STUDYID,DOMAIN,USUBJID,SUBJID,RFSTDTC,RFENDTC,RFXSTDTC,RFXENDTC,RFICDTC,RFPENDTC,DTHDTC,DTHFL,SITEID,AGE,AGEU,SEX,RACE,ETHNIC,ARMCD,ARM,ACTARMCD,ACTARM,COUNTRY,DMDTC,DMDY
STUDY001,DM,STUDY001-SUBJ0001,SUBJ0001,2025-03-12,2025-07-28,2024-12-31,2025-08-16,2025-05-01,2025-07-28,,,49,56,YEARS,F,AMERICAN INDIAN OR ALASKA NATIVE,HISPANIC OR LATINO,ARM1,Treatment 2,ARM1,Treatment 2,CL,2025-05-17,30
STUDY001,DM,STUDY001-SUBJ0002,SUBJ0002,2025-03-29,2025-08-19,2025-01-14,2025-08-03,2024-10-12,2025-08-19,,,41,39,YEARS,F,BLACK OR AFRICAN AMERICAN,NOT HISPANIC OR LATINO,ARM2,Treatment 1,ARM2,Treatment 1,TH,2024-10-07,25
STUDY001,DM,STUDY001-SUBJ0003,SUBJ0003,2025-03-13,2025-07-24,2025-06-16,2025-07-24,2024-11-13,2025-07-24,,,8,46,YEARS,M,AMERICAN INDIAN OR ALASKA NATIVE,NOT HISPANIC OR LATINO,ARM3,Treatment 2,ARM3,Treatment 2,MY,2024-10-27,23
STUDY001,DM,STUDY001-SUBJ0004,SUBJ0004,2024-12-07,2025-08-08,2024-09-05,2025-08-02,2025-06-20,2025-08-08,,,46,57,YEARS,M,AMERICAN INDIAN OR ALASKA NATIVE,HISPANIC OR LATINO,ARM1,Treatment 1,ARM1,Treatment 1,FJ,2025-06-03,28
STUDY001,DM,STUDY001-SUBJ0005,SUBJ0005,2025-07-07,2025-08-13,2025-01-04,2025-08-09,2024-11-06,2025-08-13,,,35,67,YEARS,F,BLACK OR AFRICAN AMERICAN,HISPANIC OR LATINO,ARM2,Treatment 2,ARM2,Treatment 2,SN,2025-01-09,28
STUDY001,DM,STUDY001-SUBJ0006,SUBJ0006,2025-03-18,2025-08-21,2025-01-27,2025-08-10,2025-01-27,2025-08-21,,,15,25,YEARS,F,AMERICAN INDIAN OR ALASKA NATIVE,HISPANIC OR LATINO,ARM3,Treatment 3,ARM3,Treatment 3,CR,2025-04-02,15
STUDY001,DM,STUDY001-SUBJ0007,SUBJ0007,2025-03-10,2025-08-08,2025-07-12,2025-08-01,2024-10-06,2025-08-08,,,6,67,YEARS,M,OTHER,HISPANIC OR LATINO,ARM1,Treatment 1,ARM1,Treatment 1,BO,2025-03-20,21
STUDY001,DM,STUDY001-SUBJ0008,SUBJ0008,2024-11-09,2025-07-27,2025-07-21,2025-08-04,2024-10-04,2025-07-27,,,23,50,YEARS,M,WHITE,NOT HISPANIC OR LATINO,ARM2,Treatment 1,ARM2,Treatment 1,LR,2025-01-01,5
STUDY001,DM,STUDY001-SUBJ0009,SUBJ0009,2025-02-09,2025-08-03,2024-10-12,2025-08-16,2025-01-08,2025-08-03,,,28,19,YEARS,M,AMERICAN INDIAN OR ALASKA NATIVE,HISPANIC OR LATINO,ARM3,Treatment 3,ARM3,Treatment 3,TG,2025-01-20,18
STUDY001,DM,STUDY001-SUBJ0010,SUBJ0010,2024-11-18,2025-08-12,2024-11-14,2025-08-14,2025-03-06,2025-08-12,,,35,63,YEARS,M,BLACK OR AFRICAN AMERICAN,NOT HISPANIC OR LATINO,ARM1,Treatment 3,ARM1,Treatment 3,BH,2024-12-27,23
