STUDYID,DOMAIN,USUBJID,VSSEQ,VSTESTCD,VSTEST,VSORRES,VSORRESU,VSSTRESC,VSSTRESN,VSSTRESU,VSBLFL,VISIT,VISITNUM,VSDTC,VSDY
STUDY001,VS,STUDY001-SUBJ0001,1,HEIGHT,Height,186.1,cm,186.1,186.1,cm,,SCREENING,1,2024-09-22,-14
STUDY001,VS,STUDY001-SUBJ0001,2,WEIGHT,Weight,84.8,kg,84.8,84.8,kg,,SCREENING,1,2024-09-22,-14
STUDY001,VS,STUDY001-SUBJ0001,3,TEMP,Temperature,37.0,C,37.0,37.0,C,,SCREENING,1,2024-09-22,-14
STUDY001,VS,STUDY001-SUBJ0001,4,BP,Blood Pressure,122/95,mmHg,122/95,,mmHg,,SCREENING,1,2024-09-22,-14
STUDY001,VS,STUDY001-SUBJ0001,5,HR,Heart Rate,77,beats/min,77,77.0,beats/min,,SCREENING,1,2024-09-22,-14
STUDY001,VS,STUDY001-SUBJ0001,6,HEIGHT,Height,186.0,cm,186.0,186.0,cm,Y,BASELINE,2,2024-10-06,1
STUDY001,VS,STUDY001-SUBJ0001,7,WEIGHT,Weight,85.5,kg,85.5,85.5,kg,Y,BASELINE,2,2024-10-06,1
STUDY001,VS,STUDY001-SUBJ0001,8,TEMP,Temperature,36.8,C,36.8,36.8,C,Y,BASELINE,2,2024-10-06,1
STUDY001,VS,STUDY001-SUBJ0001,9,BP,Blood Pressure,117/91,mmHg,117/91,,mmHg,Y,BASELINE,2,2024-10-06,1
STUDY001,VS,STUDY001-SUBJ0001,10,HR,Heart Rate,79,beats/min,79,79.0,beats/min,Y,BASELINE,2,2024-10-06,1
STUDY001,VS,STUDY001-SUBJ0001,11,HEIGHT,Height,186.3,cm,186.3,186.3,cm,,WEEK 1,3,2024-10-12,7
STUDY001,VS,STUDY001-SUBJ0001,12,WEIGHT,Weight,85.5,kg,85.5,85.5,kg,,WEEK 1,3,2024-10-12,7
STUDY001,VS,STUDY001-SUBJ0001,13,TEMP,Temperature,36.7,C,36.7,36.7,C,,WEEK 1,3,2024-10-12,7
STUDY001,VS,STUDY001-SUBJ0001,14,BP,Blood Pressure,121/95,mmHg,121/95,,mmHg,,WEEK 1,3,2024-10-12,7
STUDY001,VS,STUDY001-SUBJ0001,15,HR,Heart Rate,78,beats/min,78,78.0,beats/min,,WEEK 1,3,2024-10-12,7
STUDY001,VS,STUDY001-SUBJ0001,16,HEIGHT,Height,185.9,cm,185.9,185.9,cm,,WEEK 2,4,2024-10-19,14
STUDY001,VS,STUDY001-SUBJ0001,17,WEIGHT,Weight,85.5,kg,85.5,85.5,kg,,WEEK 2,4,2024-10-19,14
STUDY001,VS,STUDY001-SUBJ0001,18,TEMP,Temperature,36.8,C,36.8,36.8,C,,WEEK 2,4,2024-10-19,14
STUDY001,VS,STUDY001-SUBJ0001,19,BP,Blood Pressure,117/91,mmHg,117/91,,mmHg,,WEEK 2,4,2024-10-19,14
STUDY001,VS,STUDY001-SUBJ0001,20,HR,Heart Rate,77,beats/min,77,77.0,beats/min,,WEEK 2,4,2024-10-19,14
STUDY001,VS,STUDY001-SUBJ0001,21,HEIGHT,Height,186.2,cm,186.2,186.2,cm,,WEEK 4,5,2024-11-02,28
STUDY001,VS,STUDY001-SUBJ0001,22,WEIGHT,Weight,84.8,kg,84.8,84.8,kg,,WEEK 4,5,2024-11-02,28
STUDY001,VS,STUDY001-SUBJ0001,23,TEMP,Temperature,36.8,C,36.8,36.8,C,,WEEK 4,5,2024-11-02,28
STUDY001,VS,STUDY001-SUBJ0001,24,BP,Blood Pressure,120/99,mmHg,120/99,,mmHg,,WEEK 4,5,2024-11-02,28
STUDY001,VS,STUDY001-SUBJ0001,25,HR,Heart Rate,81,beats/min,81,81.0,beats/min,,WEEK 4,5,2024-11-02,28
STUDY001,VS,STUDY001-SUBJ0001,26,HEIGHT,Height,186.0,cm,186.0,186.0,cm,,WEEK 8,6,2024-11-30,56
STUDY001,VS,STUDY001-SUBJ0001,27,WEIGHT,Weight,86.4,kg,86.4,86.4,kg,,WEEK 8,6,2024-11-30,56
STUDY001,VS,STUDY001-SUBJ0001,28,TEMP,Temperature,36.7,C,36.7,36.7,C,,WEEK 8,6,2024-11-30,56
STUDY001,VS,STUDY001-SUBJ0001,29,BP,Blood Pressure,118/95,mmHg,118/95,,mmHg,,WEEK 8,6,2024-11-30,56
STUDY001,VS,STUDY001-SUBJ0001,30,HR,Heart Rate,78,beats/min,78,78.0,beats/min,,WEEK 8,6,2024-11-30,56
STUDY001,VS,STUDY001-SUBJ0001,31,HEIGHT,Height,186.1,cm,186.1,186.1,cm,,WEEK 12,7,2024-12-28,84
STUDY001,VS,STUDY001-SUBJ0001,32,WEIGHT,Weight,85.5,kg,85.5,85.5,kg,,WEEK 12,7,2024-12-28,84
STUDY001,VS,STUDY001-SUBJ0001,33,TEMP,Temperature,37.2,C,37.2,37.2,C,,WEEK 12,7,2024-12-28,84
STUDY001,VS,STUDY001-SUBJ0001,34,BP,Blood Pressure,119/98,mmHg,119/98,,mmHg,,WEEK 12,7,2024-12-28,84
STUDY001,VS,STUDY001-SUBJ0001,35,HR,Heart Rate,72,beats/min,72,72.0,beats/min,,WEEK 12,7,2024-12-28,84
STUDY001,VS,STUDY001-SUBJ0001,36,HEIGHT,Height,186.1,cm,186.1,186.1,cm,,WEEK 16,8,2025-01-25,112
STUDY001,VS,STUDY001-SUBJ0001,37,WEIGHT,Weight,85.0,kg,85.0,85.0,kg,,WEEK 16,8,2025-01-25,112
STUDY001,VS,STUDY001-SUBJ0001,38,TEMP,Temperature,36.7,C,36.7,36.7,C,,WEEK 16,8,2025-01-25,112
STUDY001,VS,STUDY001-SUBJ0001,39,BP,Blood Pressure,114/89,mmHg,114/89,,mmHg,,WEEK 16,8,2025-01-25,112
STUDY001,VS,STUDY001-SUBJ0001,40,HR,Heart Rate,74,beats/min,74,74.0,beats/min,,WEEK 16,8,2025-01-25,112
STUDY001,VS,STUDY001-SUBJ0001,41,HEIGHT,Height,186.2,cm,186.2,186.2,cm,,END OF TREATMENT,9,2025-02-22,140
STUDY001,VS,STUDY001-SUBJ0001,42,WEIGHT,Weight,85.8,kg,85.8,85.8,kg,,END OF TREATMENT,9,2025-02-22,140
STUDY001,VS,STUDY001-SUBJ0001,43,TEMP,Temperature,36.7,C,36.7,36.7,C,,END OF TREATMENT,9,2025-02-22,140
STUDY001,VS,STUDY001-SUBJ0001,44,BP,Blood Pressure,115/93,mmHg,115/93,,mmHg,,END OF TREATMENT,9,2025-02-22,140
STUDY001,VS,STUDY001-SUBJ0001,45,HR,Heart Rate,81,beats/min,81,81.0,beats/min,,END OF TREATMENT,9,2025-02-22,140
STUDY001,VS,STUDY001-SUBJ0002,1,HEIGHT,Height,165.5,cm,165.5,165.5,cm,,SCREENING,1,2025-02-19,-14
STUDY001,VS,STUDY001-SUBJ0002,2,WEIGHT,Weight,60.6,kg,60.6,60.6,kg,,SCREENING,1,2025-02-19,-14
STUDY001,VS,STUDY001-SUBJ0002,3,TEMP,Temperature,36.0,C,36.0,36.0,C,,SCREENING,1,2025-02-19,-14
STUDY001,VS,STUDY001-SUBJ0002,4,BP,Blood Pressure,148/78,mmHg,148/78,,mmHg,,SCREENING,1,2025-02-19,-14
STUDY001,VS,STUDY001-SUBJ0002,5,HR,Heart Rate,75,beats/min,75,75.0,beats/min,,SCREENING,1,2025-02-19,-14
STUDY001,VS,STUDY001-SUBJ0002,6,HEIGHT,Height,165.5,cm,165.5,165.5,cm,Y,BASELINE,2,2025-03-05,1
STUDY001,VS,STUDY001-SUBJ0002,7,WEIGHT,Weight,61.1,kg,61.1,61.1,kg,Y,BASELINE,2,2025-03-05,1
STUDY001,VS,STUDY001-SUBJ0002,8,TEMP,Temperature,36.2,C,36.2,36.2,C,Y,BASELINE,2,2025-03-05,1
STUDY001,VS,STUDY001-SUBJ0002,9,BP,Blood Pressure,153/79,mmHg,153/79,,mmHg,Y,BASELINE,2,2025-03-05,1
STUDY001,VS,STUDY001-SUBJ0002,10,HR,Heart Rate,68,beats/min,68,68.0,beats/min,Y,BASELINE,2,2025-03-05,1
STUDY001,VS,STUDY001-SUBJ0002,11,HEIGHT,Height,165.4,cm,165.4,165.4,cm,,WEEK 1,3,2025-03-11,7
STUDY001,VS,STUDY001-SUBJ0002,12,WEIGHT,Weight,62.0,kg,62.0,62.0,kg,,WEEK 1,3,2025-03-11,7
STUDY001,VS,STUDY001-SUBJ0002,13,TEMP,Temperature,35.8,C,35.8,35.8,C,,WEEK 1,3,2025-03-11,7
STUDY001,VS,STUDY001-SUBJ0002,14,BP,Blood Pressure,152/81,mmHg,152/81,,mmHg,,WEEK 1,3,2025-03-11,7
STUDY001,VS,STUDY001-SUBJ0002,15,HR,Heart Rate,72,beats/min,72,72.0,beats/min,,WEEK 1,3,2025-03-11,7
STUDY001,VS,STUDY001-SUBJ0002,16,HEIGHT,Height,165.6,cm,165.6,165.6,cm,,WEEK 2,4,2025-03-18,14
STUDY001,VS,STUDY001-SUBJ0002,17,WEIGHT,Weight,61.6,kg,61.6,61.6,kg,,WEEK 2,4,2025-03-18,14
STUDY001,VS,STUDY001-SUBJ0002,18,TEMP,Temperature,35.9,C,35.9,35.9,C,,WEEK 2,4,2025-03-18,14
STUDY001,VS,STUDY001-SUBJ0002,19,BP,Blood Pressure,143/76,mmHg,143/76,,mmHg,,WEEK 2,4,2025-03-18,14
STUDY001,VS,STUDY001-SUBJ0002,20,HR,Heart Rate,71,beats/min,71,71.0,beats/min,,WEEK 2,4,2025-03-18,14
STUDY001,VS,STUDY001-SUBJ0002,21,HEIGHT,Height,165.3,cm,165.3,165.3,cm,,WEEK 4,5,2025-04-01,28
STUDY001,VS,STUDY001-SUBJ0002,22,WEIGHT,Weight,61.6,kg,61.6,61.6,kg,,WEEK 4,5,2025-04-01,28
STUDY001,VS,STUDY001-SUBJ0002,23,TEMP,Temperature,35.7,C,35.7,35.7,C,,WEEK 4,5,2025-04-01,28
STUDY001,VS,STUDY001-SUBJ0002,24,BP,Blood Pressure,151/79,mmHg,151/79,,mmHg,,WEEK 4,5,2025-04-01,28
STUDY001,VS,STUDY001-SUBJ0002,25,HR,Heart Rate,76,beats/min,76,76.0,beats/min,,WEEK 4,5,2025-04-01,28
STUDY001,VS,STUDY001-SUBJ0002,26,HEIGHT,Height,165.5,cm,165.5,165.5,cm,,WEEK 8,6,2025-04-29,56
STUDY001,VS,STUDY001-SUBJ0002,27,WEIGHT,Weight,60.3,kg,60.3,60.3,kg,,WEEK 8,6,2025-04-29,56
STUDY001,VS,STUDY001-SUBJ0002,28,TEMP,Temperature,35.8,C,35.8,35.8,C,,WEEK 8,6,2025-04-29,56
STUDY001,VS,STUDY001-SUBJ0002,29,BP,Blood Pressure,146/79,mmHg,146/79,,mmHg,,WEEK 8,6,2025-04-29,56
STUDY001,VS,STUDY001-SUBJ0002,30,HR,Heart Rate,74,beats/min,74,74.0,beats/min,,WEEK 8,6,2025-04-29,56
STUDY001,VS,STUDY001-SUBJ0002,31,HEIGHT,Height,165.3,cm,165.3,165.3,cm,,WEEK 12,7,2025-05-27,84
STUDY001,VS,STUDY001-SUBJ0002,32,WEIGHT,Weight,61.5,kg,61.5,61.5,kg,,WEEK 12,7,2025-05-27,84
STUDY001,VS,STUDY001-SUBJ0002,33,TEMP,Temperature,36.1,C,36.1,36.1,C,,WEEK 12,7,2025-05-27,84
STUDY001,VS,STUDY001-SUBJ0002,34,BP,Blood Pressure,149/81,mmHg,149/81,,mmHg,,WEEK 12,7,2025-05-27,84
STUDY001,VS,STUDY001-SUBJ0002,35,HR,Heart Rate,75,beats/min,75,75.0,beats/min,,WEEK 12,7,2025-05-27,84
STUDY001,VS,STUDY001-SUBJ0002,36,HEIGHT,Height,165.6,cm,165.6,165.6,cm,,WEEK 16,8,2025-06-24,112
STUDY001,VS,STUDY001-SUBJ0002,37,WEIGHT,Weight,60.3,kg,60.3,60.3,kg,,WEEK 16,8,2025-06-24,112
STUDY001,VS,STUDY001-SUBJ0002,38,TEMP,Temperature,36.2,C,36.2,36.2,C,,WEEK 16,8,2025-06-24,112
STUDY001,VS,STUDY001-SUBJ0002,39,BP,Blood Pressure,146/83,mmHg,146/83,,mmHg,,WEEK 16,8,2025-06-24,112
STUDY001,VS,STUDY001-SUBJ0002,40,HR,Heart Rate,75,beats/min,75,75.0,beats/min,,WEEK 16,8,2025-06-24,112
STUDY001,VS,STUDY001-SUBJ0002,41,HEIGHT,Height,165.3,cm,165.3,165.3,cm,,END OF TREATMENT,9,2025-07-22,140
STUDY001,VS,STUDY001-SUBJ0002,42,WEIGHT,Weight,61.1,kg,61.1,61.1,kg,,END OF TREATMENT,9,2025-07-22,140
STUDY001,VS,STUDY001-SUBJ0002,43,TEMP,Temperature,36.0,C,36.0,36.0,C,,END OF TREATMENT,9,2025-07-22,140
STUDY001,VS,STUDY001-SUBJ0002,44,BP,Blood Pressure,145/79,mmHg,145/79,,mmHg,,END OF TREATMENT,9,2025-07-22,140
STUDY001,VS,STUDY001-SUBJ0002,45,HR,Heart Rate,74,beats/min,74,74.0,beats/min,,END OF TREATMENT,9,2025-07-22,140
STUDY001,VS,STUDY001-SUBJ0003,1,HEIGHT,Height,161.0,cm,161.0,161.0,cm,,SCREENING,1,2025-04-24,-14
STUDY001,VS,STUDY001-SUBJ0003,2,WEIGHT,Weight,62.2,kg,62.2,62.2,kg,,SCREENING,1,2025-04-24,-14
STUDY001,VS,STUDY001-SUBJ0003,3,TEMP,Temperature,36.5,C,36.5,36.5,C,,SCREENING,1,2025-04-24,-14
STUDY001,VS,STUDY001-SUBJ0003,4,BP,Blood Pressure,105/85,mmHg,105/85,,mmHg,,SCREENING,1,2025-04-24,-14
STUDY001,VS,STUDY001-SUBJ0003,5,HR,Heart Rate,73,beats/min,73,73.0,beats/min,,SCREENING,1,2025-04-24,-14
STUDY001,VS,STUDY001-SUBJ0003,6,HEIGHT,Height,160.8,cm,160.8,160.8,cm,Y,BASELINE,2,2025-05-08,1
STUDY001,VS,STUDY001-SUBJ0003,7,WEIGHT,Weight,62.1,kg,62.1,62.1,kg,Y,BASELINE,2,2025-05-08,1
STUDY001,VS,STUDY001-SUBJ0003,8,TEMP,Temperature,36.4,C,36.4,36.4,C,Y,BASELINE,2,2025-05-08,1
STUDY001,VS,STUDY001-SUBJ0003,9,BP,Blood Pressure,110/88,mmHg,110/88,,mmHg,Y,BASELINE,2,2025-05-08,1
STUDY001,VS,STUDY001-SUBJ0003,10,HR,Heart Rate,71,beats/min,71,71.0,beats/min,Y,BASELINE,2,2025-05-08,1
STUDY001,VS,STUDY001-SUBJ0003,11,HEIGHT,Height,160.8,cm,160.8,160.8,cm,,WEEK 1,3,2025-05-14,7
STUDY001,VS,STUDY001-SUBJ0003,12,WEIGHT,Weight,61.9,kg,61.9,61.9,kg,,WEEK 1,3,2025-05-14,7
STUDY001,VS,STUDY001-SUBJ0003,13,TEMP,Temperature,36.3,C,36.3,36.3,C,,WEEK 1,3,2025-05-14,7
STUDY001,VS,STUDY001-SUBJ0003,14,BP,Blood Pressure,109/87,mmHg,109/87,,mmHg,,WEEK 1,3,2025-05-14,7
STUDY001,VS,STUDY001-SUBJ0003,15,HR,Heart Rate,74,beats/min,74,74.0,beats/min,,WEEK 1,3,2025-05-14,7
STUDY001,VS,STUDY001-SUBJ0003,16,HEIGHT,Height,161.1,cm,161.1,161.1,cm,,WEEK 2,4,2025-05-21,14
STUDY001,VS,STUDY001-SUBJ0003,17,WEIGHT,Weight,62.6,kg,62.6,62.6,kg,,WEEK 2,4,2025-05-21,14
STUDY001,VS,STUDY001-SUBJ0003,18,TEMP,Temperature,36.5,C,36.5,36.5,C,,WEEK 2,4,2025-05-21,14
STUDY001,VS,STUDY001-SUBJ0003,19,BP,Blood Pressure,106/85,mmHg,106/85,,mmHg,,WEEK 2,4,2025-05-21,14
STUDY001,VS,STUDY001-SUBJ0003,20,HR,Heart Rate,74,beats/min,74,74.0,beats/min,,WEEK 2,4,2025-05-21,14
STUDY001,VS,STUDY001-SUBJ0003,21,HEIGHT,Height,161.1,cm,161.1,161.1,cm,,WEEK 4,5,2025-06-04,28
STUDY001,VS,STUDY001-SUBJ0003,22,WEIGHT,Weight,61.4,kg,61.4,61.4,kg,,WEEK 4,5,2025-06-04,28
STUDY001,VS,STUDY001-SUBJ0003,23,TEMP,Temperature,36.4,C,36.4,36.4,C,,WEEK 4,5,2025-06-04,28
STUDY001,VS,STUDY001-SUBJ0003,24,BP,Blood Pressure,112/82,mmHg,112/82,,mmHg,,WEEK 4,5,2025-06-04,28
STUDY001,VS,STUDY001-SUBJ0003,25,HR,Heart Rate,70,beats/min,70,70.0,beats/min,,WEEK 4,5,2025-06-04,28
STUDY001,VS,STUDY001-SUBJ0003,26,HEIGHT,Height,161.0,cm,161.0,161.0,cm,,WEEK 8,6,2025-07-02,56
STUDY001,VS,STUDY001-SUBJ0003,27,WEIGHT,Weight,61.7,kg,61.7,61.7,kg,,WEEK 8,6,2025-07-02,56
STUDY001,VS,STUDY001-SUBJ0003,28,TEMP,Temperature,36.5,C,36.5,36.5,C,,WEEK 8,6,2025-07-02,56
STUDY001,VS,STUDY001-SUBJ0003,29,BP,Blood Pressure,108/90,mmHg,108/90,,mmHg,,WEEK 8,6,2025-07-02,56
STUDY001,VS,STUDY001-SUBJ0003,30,HR,Heart Rate,71,beats/min,71,71.0,beats/min,,WEEK 8,6,2025-07-02,56
STUDY001,VS,STUDY001-SUBJ0003,31,HEIGHT,Height,160.8,cm,160.8,160.8,cm,,WEEK 12,7,2025-07-30,84
STUDY001,VS,STUDY001-SUBJ0003,32,WEIGHT,Weight,62.7,kg,62.7,62.7,kg,,WEEK 12,7,2025-07-30,84
STUDY001,VS,STUDY001-SUBJ0003,33,TEMP,Temperature,36.7,C,36.7,36.7,C,,WEEK 12,7,2025-07-30,84
STUDY001,VS,STUDY001-SUBJ0003,34,BP,Blood Pressure,107/83,mmHg,107/83,,mmHg,,WEEK 12,7,2025-07-30,84
STUDY001,VS,STUDY001-SUBJ0003,35,HR,Heart Rate,72,beats/min,72,72.0,beats/min,,WEEK 12,7,2025-07-30,84
STUDY001,VS,STUDY001-SUBJ0003,36,HEIGHT,Height,160.9,cm,160.9,160.9,cm,,WEEK 16,8,2025-08-27,112
STUDY001,VS,STUDY001-SUBJ0003,37,WEIGHT,Weight,61.4,kg,61.4,61.4,kg,,WEEK 16,8,2025-08-27,112
STUDY001,VS,STUDY001-SUBJ0003,38,TEMP,Temperature,36.2,C,36.2,36.2,C,,WEEK 16,8,2025-08-27,112
STUDY001,VS,STUDY001-SUBJ0003,39,BP,Blood Pressure,102/89,mmHg,102/89,,mmHg,,WEEK 16,8,2025-08-27,112
STUDY001,VS,STUDY001-SUBJ0003,40,HR,Heart Rate,72,beats/min,72,72.0,beats/min,,WEEK 16,8,2025-08-27,112
STUDY001,VS,STUDY001-SUBJ0003,41,HEIGHT,Height,160.9,cm,160.9,160.9,cm,,END OF TREATMENT,9,2025-09-24,140
STUDY001,VS,STUDY001-SUBJ0003,42,WEIGHT,Weight,61.8,kg,61.8,61.8,kg,,END OF TREATMENT,9,2025-09-24,140
STUDY001,VS,STUDY001-SUBJ0003,43,TEMP,Temperature,36.2,C,36.2,36.2,C,,END OF TREATMENT,9,2025-09-24,140
STUDY001,VS,STUDY001-SUBJ0003,44,BP,Blood Pressure,104/83,mmHg,104/83,,mmHg,,END OF TREATMENT,9,2025-09-24,140
STUDY001,VS,STUDY001-SUBJ0003,45,HR,Heart Rate,72,beats/min,72,72.0,beats/min,,END OF TREATMENT,9,2025-09-24,140
STUDY001,VS,STUDY001-SUBJ0004,1,HEIGHT,Height,183.9,cm,183.9,183.9,cm,,SCREENING,1,2024-11-10,-14
STUDY001,VS,STUDY001-SUBJ0004,2,WEIGHT,Weight,103.8,kg,103.8,103.8,kg,,SCREENING,1,2024-11-10,-14
STUDY001,VS,STUDY001-SUBJ0004,3,TEMP,Temperature,37.1,C,37.1,37.1,C,,SCREENING,1,2024-11-10,-14
STUDY001,VS,STUDY001-SUBJ0004,4,BP,Blood Pressure,136/95,mmHg,136/95,,mmHg,,SCREENING,1,2024-11-10,-14
STUDY001,VS,STUDY001-SUBJ0004,5,HR,Heart Rate,73,beats/min,73,73.0,beats/min,,SCREENING,1,2024-11-10,-14
STUDY001,VS,STUDY001-SUBJ0004,6,HEIGHT,Height,183.9,cm,183.9,183.9,cm,Y,BASELINE,2,2024-11-24,1
STUDY001,VS,STUDY001-SUBJ0004,7,WEIGHT,Weight,103.0,kg,103.0,103.0,kg,Y,BASELINE,2,2024-11-24,1
STUDY001,VS,STUDY001-SUBJ0004,8,TEMP,Temperature,36.6,C,36.6,36.6,C,Y,BASELINE,2,2024-11-24,1
STUDY001,VS,STUDY001-SUBJ0004,9,BP,Blood Pressure,140/90,mmHg,140/90,,mmHg,Y,BASELINE,2,2024-11-24,1
STUDY001,VS,STUDY001-SUBJ0004,10,HR,Heart Rate,75,beats/min,75,75.0,beats/min,Y,BASELINE,2,2024-11-24,1
STUDY001,VS,STUDY001-SUBJ0004,11,HEIGHT,Height,183.9,cm,183.9,183.9,cm,,WEEK 1,3,2024-11-30,7
STUDY001,VS,STUDY001-SUBJ0004,12,WEIGHT,Weight,103.7,kg,103.7,103.7,kg,,WEEK 1,3,2024-11-30,7
STUDY001,VS,STUDY001-SUBJ0004,13,TEMP,Temperature,36.9,C,36.9,36.9,C,,WEEK 1,3,2024-11-30,7
STUDY001,VS,STUDY001-SUBJ0004,14,BP,Blood Pressure,134/87,mmHg,134/87,,mmHg,,WEEK 1,3,2024-11-30,7
STUDY001,VS,STUDY001-SUBJ0004,15,HR,Heart Rate,74,beats/min,74,74.0,beats/min,,WEEK 1,3,2024-11-30,7
STUDY001,VS,STUDY001-SUBJ0004,16,HEIGHT,Height,183.9,cm,183.9,183.9,cm,,WEEK 2,4,2024-12-07,14
STUDY001,VS,STUDY001-SUBJ0004,17,WEIGHT,Weight,102.5,kg,102.5,102.5,kg,,WEEK 2,4,2024-12-07,14
STUDY001,VS,STUDY001-SUBJ0004,18,TEMP,Temperature,36.5,C,36.5,36.5,C,,WEEK 2,4,2024-12-07,14
STUDY001,VS,STUDY001-SUBJ0004,19,BP,Blood Pressure,142/95,mmHg,142/95,,mmHg,,WEEK 2,4,2024-12-07,14
STUDY001,VS,STUDY001-SUBJ0004,20,HR,Heart Rate,77,beats/min,77,77.0,beats/min,,WEEK 2,4,2024-12-07,14
STUDY001,VS,STUDY001-SUBJ0004,21,HEIGHT,Height,184.0,cm,184.0,184.0,cm,,WEEK 4,5,2024-12-21,28
STUDY001,VS,STUDY001-SUBJ0004,22,WEIGHT,Weight,103.5,kg,103.5,103.5,kg,,WEEK 4,5,2024-12-21,28
STUDY001,VS,STUDY001-SUBJ0004,23,TEMP,Temperature,37.1,C,37.1,37.1,C,,WEEK 4,5,2024-12-21,28
STUDY001,VS,STUDY001-SUBJ0004,24,BP,Blood Pressure,136/95,mmHg,136/95,,mmHg,,WEEK 4,5,2024-12-21,28
STUDY001,VS,STUDY001-SUBJ0004,25,HR,Heart Rate,72,beats/min,72,72.0,beats/min,,WEEK 4,5,2024-12-21,28
STUDY001,VS,STUDY001-SUBJ0004,26,HEIGHT,Height,184.1,cm,184.1,184.1,cm,,WEEK 8,6,2025-01-18,56
STUDY001,VS,STUDY001-SUBJ0004,27,WEIGHT,Weight,102.8,kg,102.8,102.8,kg,,WEEK 8,6,2025-01-18,56
STUDY001,VS,STUDY001-SUBJ0004,28,TEMP,Temperature,36.7,C,36.7,36.7,C,,WEEK 8,6,2025-01-18,56
STUDY001,VS,STUDY001-SUBJ0004,29,BP,Blood Pressure,135/90,mmHg,135/90,,mmHg,,WEEK 8,6,2025-01-18,56
STUDY001,VS,STUDY001-SUBJ0004,30,HR,Heart Rate,74,beats/min,74,74.0,beats/min,,WEEK 8,6,2025-01-18,56
STUDY001,VS,STUDY001-SUBJ0004,31,HEIGHT,Height,183.9,cm,183.9,183.9,cm,,WEEK 12,7,2025-02-15,84
STUDY001,VS,STUDY001-SUBJ0004,32,WEIGHT,Weight,102.4,kg,102.4,102.4,kg,,WEEK 12,7,2025-02-15,84
STUDY001,VS,STUDY001-SUBJ0004,33,TEMP,Temperature,36.6,C,36.6,36.6,C,,WEEK 12,7,2025-02-15,84
STUDY001,VS,STUDY001-SUBJ0004,34,BP,Blood Pressure,140/89,mmHg,140/89,,mmHg,,WEEK 12,7,2025-02-15,84
STUDY001,VS,STUDY001-SUBJ0004,35,HR,Heart Rate,71,beats/min,71,71.0,beats/min,,WEEK 12,7,2025-02-15,84
STUDY001,VS,STUDY001-SUBJ0004,36,HEIGHT,Height,183.9,cm,183.9,183.9,cm,,WEEK 16,8,2025-03-15,112
STUDY001,VS,STUDY001-SUBJ0004,37,WEIGHT,Weight,102.5,kg,102.5,102.5,kg,,WEEK 16,8,2025-03-15,112
STUDY001,VS,STUDY001-SUBJ0004,38,TEMP,Temperature,37.0,C,37.0,37.0,C,,WEEK 16,8,2025-03-15,112
STUDY001,VS,STUDY001-SUBJ0004,39,BP,Blood Pressure,133/94,mmHg,133/94,,mmHg,,WEEK 16,8,2025-03-15,112
STUDY001,VS,STUDY001-SUBJ0004,40,HR,Heart Rate,77,beats/min,77,77.0,beats/min,,WEEK 16,8,2025-03-15,112
STUDY001,VS,STUDY001-SUBJ0004,41,HEIGHT,Height,183.9,cm,183.9,183.9,cm,,END OF TREATMENT,9,2025-04-12,140
STUDY001,VS,STUDY001-SUBJ0004,42,WEIGHT,Weight,103.2,kg,103.2,103.2,kg,,END OF TREATMENT,9,2025-04-12,140
STUDY001,VS,STUDY001-SUBJ0004,43,TEMP,Temperature,37.1,C,37.1,37.1,C,,END OF TREATMENT,9,2025-04-12,140
STUDY001,VS,STUDY001-SUBJ0004,44,BP,Blood Pressure,142/96,mmHg,142/96,,mmHg,,END OF TREATMENT,9,2025-04-12,140
STUDY001,VS,STUDY001-SUBJ0004,45,HR,Heart Rate,71,beats/min,71,71.0,beats/min,,END OF TREATMENT,9,2025-04-12,140
STUDY001,VS,STUDY001-SUBJ0005,1,HEIGHT,Height,152.8,cm,152.8,152.8,cm,,SCREENING,1,2024-11-04,-14
STUDY001,VS,STUDY001-SUBJ0005,2,WEIGHT,Weight,94.5,kg,94.5,94.5,kg,,SCREENING,1,2024-11-04,-14
STUDY001,VS,STUDY001-SUBJ0005,3,TEMP,Temperature,36.7,C,36.7,36.7,C,,SCREENING,1,2024-11-04,-14
STUDY001,VS,STUDY001-SUBJ0005,4,BP,Blood Pressure,142/89,mmHg,142/89,,mmHg,,SCREENING,1,2024-11-04,-14
STUDY001,VS,STUDY001-SUBJ0005,5,HR,Heart Rate,73,beats/min,73,73.0,beats/min,,SCREENING,1,2024-11-04,-14
STUDY001,VS,STUDY001-SUBJ0005,6,HEIGHT,Height,153.0,cm,153.0,153.0,cm,Y,BASELINE,2,2024-11-18,1
STUDY001,VS,STUDY001-SUBJ0005,7,WEIGHT,Weight,95.8,kg,95.8,95.8,kg,Y,BASELINE,2,2024-11-18,1
STUDY001,VS,STUDY001-SUBJ0005,8,TEMP,Temperature,36.7,C,36.7,36.7,C,Y,BASELINE,2,2024-11-18,1
STUDY001,VS,STUDY001-SUBJ0005,9,BP,Blood Pressure,149/95,mmHg,149/95,,mmHg,Y,BASELINE,2,2024-11-18,1
STUDY001,VS,STUDY001-SUBJ0005,10,HR,Heart Rate,77,beats/min,77,77.0,beats/min,Y,BASELINE,2,2024-11-18,1
STUDY001,VS,STUDY001-SUBJ0005,11,HEIGHT,Height,152.7,cm,152.7,152.7,cm,,WEEK 1,3,2024-11-24,7
STUDY001,VS,STUDY001-SUBJ0005,12,WEIGHT,Weight,94.7,kg,94.7,94.7,kg,,WEEK 1,3,2024-11-24,7
STUDY001,VS,STUDY001-SUBJ0005,13,TEMP,Temperature,36.6,C,36.6,36.6,C,,WEEK 1,3,2024-11-24,7
STUDY001,VS,STUDY001-SUBJ0005,14,BP,Blood Pressure,148/94,mmHg,148/94,,mmHg,,WEEK 1,3,2024-11-24,7
STUDY001,VS,STUDY001-SUBJ0005,15,HR,Heart Rate,81,beats/min,81,81.0,beats/min,,WEEK 1,3,2024-11-24,7
STUDY001,VS,STUDY001-SUBJ0005,16,HEIGHT,Height,152.8,cm,152.8,152.8,cm,,WEEK 2,4,2024-12-01,14
STUDY001,VS,STUDY001-SUBJ0005,17,WEIGHT,Weight,95.0,kg,95.0,95.0,kg,,WEEK 2,4,2024-12-01,14
STUDY001,VS,STUDY001-SUBJ0005,18,TEMP,Temperature,36.6,C,36.6,36.6,C,,WEEK 2,4,2024-12-01,14
STUDY001,VS,STUDY001-SUBJ0005,19,BP,Blood Pressure,145/96,mmHg,145/96,,mmHg,,WEEK 2,4,2024-12-01,14
STUDY001,VS,STUDY001-SUBJ0005,20,HR,Heart Rate,77,beats/min,77,77.0,beats/min,,WEEK 2,4,2024-12-01,14
STUDY001,VS,STUDY001-SUBJ0005,21,HEIGHT,Height,152.8,cm,152.8,152.8,cm,,WEEK 4,5,2024-12-15,28
STUDY001,VS,STUDY001-SUBJ0005,22,WEIGHT,Weight,94.4,kg,94.4,94.4,kg,,WEEK 4,5,2024-12-15,28
STUDY001,VS,STUDY001-SUBJ0005,23,TEMP,Temperature,36.5,C,36.5,36.5,C,,WEEK 4,5,2024-12-15,28
STUDY001,VS,STUDY001-SUBJ0005,24,BP,Blood Pressure,144/90,mmHg,144/90,,mmHg,,WEEK 4,5,2024-12-15,28
STUDY001,VS,STUDY001-SUBJ0005,25,HR,Heart Rate,80,beats/min,80,80.0,beats/min,,WEEK 4,5,2024-12-15,28
STUDY001,VS,STUDY001-SUBJ0005,26,HEIGHT,Height,152.9,cm,152.9,152.9,cm,,WEEK 8,6,2025-01-12,56
STUDY001,VS,STUDY001-SUBJ0005,27,WEIGHT,Weight,96.2,kg,96.2,96.2,kg,,WEEK 8,6,2025-01-12,56
STUDY001,VS,STUDY001-SUBJ0005,28,TEMP,Temperature,36.6,C,36.6,36.6,C,,WEEK 8,6,2025-01-12,56
STUDY001,VS,STUDY001-SUBJ0005,29,BP,Blood Pressure,140/93,mmHg,140/93,,mmHg,,WEEK 8,6,2025-01-12,56
STUDY001,VS,STUDY001-SUBJ0005,30,HR,Heart Rate,73,beats/min,73,73.0,beats/min,,WEEK 8,6,2025-01-12,56
STUDY001,VS,STUDY001-SUBJ0005,31,HEIGHT,Height,152.8,cm,152.8,152.8,cm,,WEEK 12,7,2025-02-09,84
STUDY001,VS,STUDY001-SUBJ0005,32,WEIGHT,Weight,94.4,kg,94.4,94.4,kg,,WEEK 12,7,2025-02-09,84
STUDY001,VS,STUDY001-SUBJ0005,33,TEMP,Temperature,36.7,C,36.7,36.7,C,,WEEK 12,7,2025-02-09,84
STUDY001,VS,STUDY001-SUBJ0005,34,BP,Blood Pressure,147/95,mmHg,147/95,,mmHg,,WEEK 12,7,2025-02-09,84
STUDY001,VS,STUDY001-SUBJ0005,35,HR,Heart Rate,72,beats/min,72,72.0,beats/min,,WEEK 12,7,2025-02-09,84
STUDY001,VS,STUDY001-SUBJ0005,36,HEIGHT,Height,152.8,cm,152.8,152.8,cm,,WEEK 16,8,2025-03-09,112
STUDY001,VS,STUDY001-SUBJ0005,37,WEIGHT,Weight,95.7,kg,95.7,95.7,kg,,WEEK 16,8,2025-03-09,112
STUDY001,VS,STUDY001-SUBJ0005,38,TEMP,Temperature,36.4,C,36.4,36.4,C,,WEEK 16,8,2025-03-09,112
STUDY001,VS,STUDY001-SUBJ0005,39,BP,Blood Pressure,143/90,mmHg,143/90,,mmHg,,WEEK 16,8,2025-03-09,112
STUDY001,VS,STUDY001-SUBJ0005,40,HR,Heart Rate,73,beats/min,73,73.0,beats/min,,WEEK 16,8,2025-03-09,112
STUDY001,VS,STUDY001-SUBJ0005,41,HEIGHT,Height,152.7,cm,152.7,152.7,cm,,END OF TREATMENT,9,2025-04-06,140
STUDY001,VS,STUDY001-SUBJ0005,42,WEIGHT,Weight,95.7,kg,95.7,95.7,kg,,END OF TREATMENT,9,2025-04-06,140
STUDY001,VS,STUDY001-SUBJ0005,43,TEMP,Temperature,36.2,C,36.2,36.2,C,,END OF TREATMENT,9,2025-04-06,140
STUDY001,VS,STUDY001-SUBJ0005,44,BP,Blood Pressure,140/97,mmHg,140/97,,mmHg,,END OF TREATMENT,9,2025-04-06,140
STUDY001,VS,STUDY001-SUBJ0005,45,HR,Heart Rate,75,beats/min,75,75.0,beats/min,,END OF TREATMENT,9,2025-04-06,140
STUDY001,VS,STUDY001-SUBJ0006,1,HEIGHT,Height,199.3,cm,199.3,199.3,cm,,SCREENING,1,2024-11-05,-14
STUDY001,VS,STUDY001-SUBJ0006,2,WEIGHT,Weight,55.8,kg,55.8,55.8,kg,,SCREENING,1,2024-11-05,-14
STUDY001,VS,STUDY001-SUBJ0006,3,TEMP,Temperature,35.9,C,35.9,35.9,C,,SCREENING,1,2024-11-05,-14
STUDY001,VS,STUDY001-SUBJ0006,4,BP,Blood Pressure,112/96,mmHg,112/96,,mmHg,,SCREENING,1,2024-11-05,-14
STUDY001,VS,STUDY001-SUBJ0006,5,HR,Heart Rate,85,beats/min,85,85.0,beats/min,,SCREENING,1,2024-11-05,-14
STUDY001,VS,STUDY001-SUBJ0006,6,HEIGHT,Height,199.3,cm,199.3,199.3,cm,Y,BASELINE,2,2024-11-19,1
STUDY001,VS,STUDY001-SUBJ0006,7,WEIGHT,Weight,55.6,kg,55.6,55.6,kg,Y,BASELINE,2,2024-11-19,1
STUDY001,VS,STUDY001-SUBJ0006,8,TEMP,Temperature,35.9,C,35.9,35.9,C,Y,BASELINE,2,2024-11-19,1
STUDY001,VS,STUDY001-SUBJ0006,9,BP,Blood Pressure,105/95,mmHg,105/95,,mmHg,Y,BASELINE,2,2024-11-19,1
STUDY001,VS,STUDY001-SUBJ0006,10,HR,Heart Rate,77,beats/min,77,77.0,beats/min,Y,BASELINE,2,2024-11-19,1
STUDY001,VS,STUDY001-SUBJ0006,11,HEIGHT,Height,199.3,cm,199.3,199.3,cm,,WEEK 1,3,2024-11-25,7
STUDY001,VS,STUDY001-SUBJ0006,12,WEIGHT,Weight,56.0,kg,56.0,56.0,kg,,WEEK 1,3,2024-11-25,7
STUDY001,VS,STUDY001-SUBJ0006,13,TEMP,Temperature,35.9,C,35.9,35.9,C,,WEEK 1,3,2024-11-25,7
STUDY001,VS,STUDY001-SUBJ0006,14,BP,Blood Pressure,114/103,mmHg,114/103,,mmHg,,WEEK 1,3,2024-11-25,7
STUDY001,VS,STUDY001-SUBJ0006,15,HR,Heart Rate,85,beats/min,85,85.0,beats/min,,WEEK 1,3,2024-11-25,7
STUDY001,VS,STUDY001-SUBJ0006,16,HEIGHT,Height,199.4,cm,199.4,199.4,cm,,WEEK 2,4,2024-12-02,14
STUDY001,VS,STUDY001-SUBJ0006,17,WEIGHT,Weight,56.2,kg,56.2,56.2,kg,,WEEK 2,4,2024-12-02,14
STUDY001,VS,STUDY001-SUBJ0006,18,TEMP,Temperature,36.0,C,36.0,36.0,C,,WEEK 2,4,2024-12-02,14
STUDY001,VS,STUDY001-SUBJ0006,19,BP,Blood Pressure,112/103,mmHg,112/103,,mmHg,,WEEK 2,4,2024-12-02,14
STUDY001,VS,STUDY001-SUBJ0006,20,HR,Heart Rate,78,beats/min,78,78.0,beats/min,,WEEK 2,4,2024-12-02,14
STUDY001,VS,STUDY001-SUBJ0006,21,HEIGHT,Height,199.2,cm,199.2,199.2,cm,,WEEK 4,5,2024-12-16,28
STUDY001,VS,STUDY001-SUBJ0006,22,WEIGHT,Weight,56.0,kg,56.0,56.0,kg,,WEEK 4,5,2024-12-16,28
STUDY001,VS,STUDY001-SUBJ0006,23,TEMP,Temperature,36.3,C,36.3,36.3,C,,WEEK 4,5,2024-12-16,28
STUDY001,VS,STUDY001-SUBJ0006,24,BP,Blood Pressure,106/100,mmHg,106/100,,mmHg,,WEEK 4,5,2024-12-16,28
STUDY001,VS,STUDY001-SUBJ0006,25,HR,Heart Rate,84,beats/min,84,84.0,beats/min,,WEEK 4,5,2024-12-16,28
STUDY001,VS,STUDY001-SUBJ0006,26,HEIGHT,Height,199.3,cm,199.3,199.3,cm,,WEEK 8,6,2025-01-13,56
STUDY001,VS,STUDY001-SUBJ0006,27,WEIGHT,Weight,54.9,kg,54.9,54.9,kg,,WEEK 8,6,2025-01-13,56
STUDY001,VS,STUDY001-SUBJ0006,28,TEMP,Temperature,36.0,C,36.0,36.0,C,,WEEK 8,6,2025-01-13,56
STUDY001,VS,STUDY001-SUBJ0006,29,BP,Blood Pressure,109/95,mmHg,109/95,,mmHg,,WEEK 8,6,2025-01-13,56
STUDY001,VS,STUDY001-SUBJ0006,30,HR,Heart Rate,86,beats/min,86,86.0,beats/min,,WEEK 8,6,2025-01-13,56
STUDY001,VS,STUDY001-SUBJ0006,31,HEIGHT,Height,199.1,cm,199.1,199.1,cm,,WEEK 12,7,2025-02-10,84
STUDY001,VS,STUDY001-SUBJ0006,32,WEIGHT,Weight,54.5,kg,54.5,54.5,kg,,WEEK 12,7,2025-02-10,84
STUDY001,VS,STUDY001-SUBJ0006,33,TEMP,Temperature,36.3,C,36.3,36.3,C,,WEEK 12,7,2025-02-10,84
STUDY001,VS,STUDY001-SUBJ0006,34,BP,Blood Pressure,108/95,mmHg,108/95,,mmHg,,WEEK 12,7,2025-02-10,84
STUDY001,VS,STUDY001-SUBJ0006,35,HR,Heart Rate,80,beats/min,80,80.0,beats/min,,WEEK 12,7,2025-02-10,84
STUDY001,VS,STUDY001-SUBJ0006,36,HEIGHT,Height,199.2,cm,199.2,199.2,cm,,WEEK 16,8,2025-03-10,112
STUDY001,VS,STUDY001-SUBJ0006,37,WEIGHT,Weight,55.2,kg,55.2,55.2,kg,,WEEK 16,8,2025-03-10,112
STUDY001,VS,STUDY001-SUBJ0006,38,TEMP,Temperature,36.0,C,36.0,36.0,C,,WEEK 16,8,2025-03-10,112
STUDY001,VS,STUDY001-SUBJ0006,39,BP,Blood Pressure,109/98,mmHg,109/98,,mmHg,,WEEK 16,8,2025-03-10,112
STUDY001,VS,STUDY001-SUBJ0006,40,HR,Heart Rate,79,beats/min,79,79.0,beats/min,,WEEK 16,8,2025-03-10,112
STUDY001,VS,STUDY001-SUBJ0006,41,HEIGHT,Height,199.2,cm,199.2,199.2,cm,,END OF TREATMENT,9,2025-04-07,140
STUDY001,VS,STUDY001-SUBJ0006,42,WEIGHT,Weight,56.0,kg,56.0,56.0,kg,,END OF TREATMENT,9,2025-04-07,140
STUDY001,VS,STUDY001-SUBJ0006,43,TEMP,Temperature,36.0,C,36.0,36.0,C,,END OF TREATMENT,9,2025-04-07,140
STUDY001,VS,STUDY001-SUBJ0006,44,BP,Blood Pressure,112/96,mmHg,112/96,,mmHg,,END OF TREATMENT,9,2025-04-07,140
STUDY001,VS,STUDY001-SUBJ0006,45,HR,Heart Rate,78,beats/min,78,78.0,beats/min,,END OF TREATMENT,9,2025-04-07,140
STUDY001,VS,STUDY001-SUBJ0007,1,HEIGHT,Height,183.6,cm,183.6,183.6,cm,,SCREENING,1,2024-11-16,-14
STUDY001,VS,STUDY001-SUBJ0007,2,WEIGHT,Weight,51.8,kg,51.8,51.8,kg,,SCREENING,1,2024-11-16,-14
STUDY001,VS,STUDY001-SUBJ0007,3,TEMP,Temperature,35.8,C,35.8,35.8,C,,SCREENING,1,2024-11-16,-14
STUDY001,VS,STUDY001-SUBJ0007,4,BP,Blood Pressure,135/86,mmHg,135/86,,mmHg,,SCREENING,1,2024-11-16,-14
STUDY001,VS,STUDY001-SUBJ0007,5,HR,Heart Rate,69,beats/min,69,69.0,beats/min,,SCREENING,1,2024-11-16,-14
STUDY001,VS,STUDY001-SUBJ0007,6,HEIGHT,Height,183.7,cm,183.7,183.7,cm,Y,BASELINE,2,2024-11-30,1
STUDY001,VS,STUDY001-SUBJ0007,7,WEIGHT,Weight,50.9,kg,50.9,50.9,kg,Y,BASELINE,2,2024-11-30,1
STUDY001,VS,STUDY001-SUBJ0007,8,TEMP,Temperature,36.3,C,36.3,36.3,C,Y,BASELINE,2,2024-11-30,1
STUDY001,VS,STUDY001-SUBJ0007,9,BP,Blood Pressure,139/88,mmHg,139/88,,mmHg,Y,BASELINE,2,2024-11-30,1
STUDY001,VS,STUDY001-SUBJ0007,10,HR,Heart Rate,68,beats/min,68,68.0,beats/min,Y,BASELINE,2,2024-11-30,1
STUDY001,VS,STUDY001-SUBJ0007,11,HEIGHT,Height,183.7,cm,183.7,183.7,cm,,WEEK 1,3,2024-12-06,7
STUDY001,VS,STUDY001-SUBJ0007,12,WEIGHT,Weight,51.1,kg,51.1,51.1,kg,,WEEK 1,3,2024-12-06,7
STUDY001,VS,STUDY001-SUBJ0007,13,TEMP,Temperature,35.9,C,35.9,35.9,C,,WEEK 1,3,2024-12-06,7
STUDY001,VS,STUDY001-SUBJ0007,14,BP,Blood Pressure,136/86,mmHg,136/86,,mmHg,,WEEK 1,3,2024-12-06,7
STUDY001,VS,STUDY001-SUBJ0007,15,HR,Heart Rate,63,beats/min,63,63.0,beats/min,,WEEK 1,3,2024-12-06,7
STUDY001,VS,STUDY001-SUBJ0007,16,HEIGHT,Height,183.6,cm,183.6,183.6,cm,,WEEK 2,4,2024-12-13,14
STUDY001,VS,STUDY001-SUBJ0007,17,WEIGHT,Weight,51.1,kg,51.1,51.1,kg,,WEEK 2,4,2024-12-13,14
STUDY001,VS,STUDY001-SUBJ0007,18,TEMP,Temperature,35.9,C,35.9,35.9,C,,WEEK 2,4,2024-12-13,14
STUDY001,VS,STUDY001-SUBJ0007,19,BP,Blood Pressure,134/87,mmHg,134/87,,mmHg,,WEEK 2,4,2024-12-13,14
STUDY001,VS,STUDY001-SUBJ0007,20,HR,Heart Rate,66,beats/min,66,66.0,beats/min,,WEEK 2,4,2024-12-13,14
STUDY001,VS,STUDY001-SUBJ0007,21,HEIGHT,Height,183.6,cm,183.6,183.6,cm,,WEEK 4,5,2024-12-27,28
STUDY001,VS,STUDY001-SUBJ0007,22,WEIGHT,Weight,51.8,kg,51.8,51.8,kg,,WEEK 4,5,2024-12-27,28
STUDY001,VS,STUDY001-SUBJ0007,23,TEMP,Temperature,36.3,C,36.3,36.3,C,,WEEK 4,5,2024-12-27,28
STUDY001,VS,STUDY001-SUBJ0007,24,BP,Blood Pressure,137/87,mmHg,137/87,,mmHg,,WEEK 4,5,2024-12-27,28
STUDY001,VS,STUDY001-SUBJ0007,25,HR,Heart Rate,71,beats/min,71,71.0,beats/min,,WEEK 4,5,2024-12-27,28
STUDY001,VS,STUDY001-SUBJ0007,26,HEIGHT,Height,183.7,cm,183.7,183.7,cm,,WEEK 8,6,2025-01-24,56
STUDY001,VS,STUDY001-SUBJ0007,27,WEIGHT,Weight,51.2,kg,51.2,51.2,kg,,WEEK 8,6,2025-01-24,56
STUDY001,VS,STUDY001-SUBJ0007,28,TEMP,Temperature,36.1,C,36.1,36.1,C,,WEEK 8,6,2025-01-24,56
STUDY001,VS,STUDY001-SUBJ0007,29,BP,Blood Pressure,134/81,mmHg,134/81,,mmHg,,WEEK 8,6,2025-01-24,56
STUDY001,VS,STUDY001-SUBJ0007,30,HR,Heart Rate,70,beats/min,70,70.0,beats/min,,WEEK 8,6,2025-01-24,56
STUDY001,VS,STUDY001-SUBJ0007,31,HEIGHT,Height,183.6,cm,183.6,183.6,cm,,WEEK 12,7,2025-02-21,84
STUDY001,VS,STUDY001-SUBJ0007,32,WEIGHT,Weight,51.8,kg,51.8,51.8,kg,,WEEK 12,7,2025-02-21,84
STUDY001,VS,STUDY001-SUBJ0007,33,TEMP,Temperature,35.9,C,35.9,35.9,C,,WEEK 12,7,2025-02-21,84
STUDY001,VS,STUDY001-SUBJ0007,34,BP,Blood Pressure,132/83,mmHg,132/83,,mmHg,,WEEK 12,7,2025-02-21,84
STUDY001,VS,STUDY001-SUBJ0007,35,HR,Heart Rate,71,beats/min,71,71.0,beats/min,,WEEK 12,7,2025-02-21,84
STUDY001,VS,STUDY001-SUBJ0007,36,HEIGHT,Height,183.8,cm,183.8,183.8,cm,,WEEK 16,8,2025-03-21,112
STUDY001,VS,STUDY001-SUBJ0007,37,WEIGHT,Weight,52.3,kg,52.3,52.3,kg,,WEEK 16,8,2025-03-21,112
STUDY001,VS,STUDY001-SUBJ0007,38,TEMP,Temperature,36.0,C,36.0,36.0,C,,WEEK 16,8,2025-03-21,112
STUDY001,VS,STUDY001-SUBJ0007,39,BP,Blood Pressure,131/86,mmHg,131/86,,mmHg,,WEEK 16,8,2025-03-21,112
STUDY001,VS,STUDY001-SUBJ0007,40,HR,Heart Rate,68,beats/min,68,68.0,beats/min,,WEEK 16,8,2025-03-21,112
STUDY001,VS,STUDY001-SUBJ0007,41,HEIGHT,Height,183.6,cm,183.6,183.6,cm,,END OF TREATMENT,9,2025-04-18,140
STUDY001,VS,STUDY001-SUBJ0007,42,WEIGHT,Weight,52.1,kg,52.1,52.1,kg,,END OF TREATMENT,9,2025-04-18,140
STUDY001,VS,STUDY001-SUBJ0007,43,TEMP,Temperature,36.3,C,36.3,36.3,C,,END OF TREATMENT,9,2025-04-18,140
STUDY001,VS,STUDY001-SUBJ0007,44,BP,Blood Pressure,129/87,mmHg,129/87,,mmHg,,END OF TREATMENT,9,2025-04-18,140
STUDY001,VS,STUDY001-SUBJ0007,45,HR,Heart Rate,65,beats/min,65,65.0,beats/min,,END OF TREATMENT,9,2025-04-18,140
STUDY001,VS,STUDY001-SUBJ0008,1,HEIGHT,Height,159.0,cm,159.0,159.0,cm,,SCREENING,1,2024-12-01,-14
STUDY001,VS,STUDY001-SUBJ0008,2,WEIGHT,Weight,74.1,kg,74.1,74.1,kg,,SCREENING,1,2024-12-01,-14
STUDY001,VS,STUDY001-SUBJ0008,3,TEMP,Temperature,36.5,C,36.5,36.5,C,,SCREENING,1,2024-12-01,-14
STUDY001,VS,STUDY001-SUBJ0008,4,BP,Blood Pressure,124/94,mmHg,124/94,,mmHg,,SCREENING,1,2024-12-01,-14
STUDY001,VS,STUDY001-SUBJ0008,5,HR,Heart Rate,78,beats/min,78,78.0,beats/min,,SCREENING,1,2024-12-01,-14
STUDY001,VS,STUDY001-SUBJ0008,6,HEIGHT,Height,159.1,cm,159.1,159.1,cm,Y,BASELINE,2,2024-12-15,1
STUDY001,VS,STUDY001-SUBJ0008,7,WEIGHT,Weight,74.8,kg,74.8,74.8,kg,Y,BASELINE,2,2024-12-15,1
STUDY001,VS,STUDY001-SUBJ0008,8,TEMP,Temperature,36.7,C,36.7,36.7,C,Y,BASELINE,2,2024-12-15,1
STUDY001,VS,STUDY001-SUBJ0008,9,BP,Blood Pressure,127/93,mmHg,127/93,,mmHg,Y,BASELINE,2,2024-12-15,1
STUDY001,VS,STUDY001-SUBJ0008,10,HR,Heart Rate,75,beats/min,75,75.0,beats/min,Y,BASELINE,2,2024-12-15,1
STUDY001,VS,STUDY001-SUBJ0008,11,HEIGHT,Height,158.9,cm,158.9,158.9,cm,,WEEK 1,3,2024-12-21,7
STUDY001,VS,STUDY001-SUBJ0008,12,WEIGHT,Weight,75.5,kg,75.5,75.5,kg,,WEEK 1,3,2024-12-21,7
STUDY001,VS,STUDY001-SUBJ0008,13,TEMP,Temperature,36.2,C,36.2,36.2,C,,WEEK 1,3,2024-12-21,7
STUDY001,VS,STUDY001-SUBJ0008,14,BP,Blood Pressure,127/88,mmHg,127/88,,mmHg,,WEEK 1,3,2024-12-21,7
STUDY001,VS,STUDY001-SUBJ0008,15,HR,Heart Rate,80,beats/min,80,80.0,beats/min,,WEEK 1,3,2024-12-21,7
STUDY001,VS,STUDY001-SUBJ0008,16,HEIGHT,Height,158.8,cm,158.8,158.8,cm,,WEEK 2,4,2024-12-28,14
STUDY001,VS,STUDY001-SUBJ0008,17,WEIGHT,Weight,75.4,kg,75.4,75.4,kg,,WEEK 2,4,2024-12-28,14
STUDY001,VS,STUDY001-SUBJ0008,18,TEMP,Temperature,36.6,C,36.6,36.6,C,,WEEK 2,4,2024-12-28,14
STUDY001,VS,STUDY001-SUBJ0008,19,BP,Blood Pressure,124/97,mmHg,124/97,,mmHg,,WEEK 2,4,2024-12-28,14
STUDY001,VS,STUDY001-SUBJ0008,20,HR,Heart Rate,77,beats/min,77,77.0,beats/min,,WEEK 2,4,2024-12-28,14
STUDY001,VS,STUDY001-SUBJ0008,21,HEIGHT,Height,158.8,cm,158.8,158.8,cm,,WEEK 4,5,2025-01-11,28
STUDY001,VS,STUDY001-SUBJ0008,22,WEIGHT,Weight,73.8,kg,73.8,73.8,kg,,WEEK 4,5,2025-01-11,28
STUDY001,VS,STUDY001-SUBJ0008,23,TEMP,Temperature,36.3,C,36.3,36.3,C,,WEEK 4,5,2025-01-11,28
STUDY001,VS,STUDY001-SUBJ0008,24,BP,Blood Pressure,133/96,mmHg,133/96,,mmHg,,WEEK 4,5,2025-01-11,28
STUDY001,VS,STUDY001-SUBJ0008,25,HR,Heart Rate,76,beats/min,76,76.0,beats/min,,WEEK 4,5,2025-01-11,28
STUDY001,VS,STUDY001-SUBJ0008,26,HEIGHT,Height,158.8,cm,158.8,158.8,cm,,WEEK 8,6,2025-02-08,56
STUDY001,VS,STUDY001-SUBJ0008,27,WEIGHT,Weight,75.4,kg,75.4,75.4,kg,,WEEK 8,6,2025-02-08,56
STUDY001,VS,STUDY001-SUBJ0008,28,TEMP,Temperature,36.7,C,36.7,36.7,C,,WEEK 8,6,2025-02-08,56
STUDY001,VS,STUDY001-SUBJ0008,29,BP,Blood Pressure,133/95,mmHg,133/95,,mmHg,,WEEK 8,6,2025-02-08,56
STUDY001,VS,STUDY001-SUBJ0008,30,HR,Heart Rate,75,beats/min,75,75.0,beats/min,,WEEK 8,6,2025-02-08,56
STUDY001,VS,STUDY001-SUBJ0008,31,HEIGHT,Height,159.0,cm,159.0,159.0,cm,,WEEK 12,7,2025-03-08,84
STUDY001,VS,STUDY001-SUBJ0008,32,WEIGHT,Weight,74.7,kg,74.7,74.7,kg,,WEEK 12,7,2025-03-08,84
STUDY001,VS,STUDY001-SUBJ0008,33,TEMP,Temperature,36.3,C,36.3,36.3,C,,WEEK 12,7,2025-03-08,84
STUDY001,VS,STUDY001-SUBJ0008,34,BP,Blood Pressure,126/92,mmHg,126/92,,mmHg,,WEEK 12,7,2025-03-08,84
STUDY001,VS,STUDY001-SUBJ0008,35,HR,Heart Rate,78,beats/min,78,78.0,beats/min,,WEEK 12,7,2025-03-08,84
STUDY001,VS,STUDY001-SUBJ0008,36,HEIGHT,Height,158.9,cm,158.9,158.9,cm,,WEEK 16,8,2025-04-05,112
STUDY001,VS,STUDY001-SUBJ0008,37,WEIGHT,Weight,73.7,kg,73.7,73.7,kg,,WEEK 16,8,2025-04-05,112
STUDY001,VS,STUDY001-SUBJ0008,38,TEMP,Temperature,36.3,C,36.3,36.3,C,,WEEK 16,8,2025-04-05,112
STUDY001,VS,STUDY001-SUBJ0008,39,BP,Blood Pressure,129/91,mmHg,129/91,,mmHg,,WEEK 16,8,2025-04-05,112
STUDY001,VS,STUDY001-SUBJ0008,40,HR,Heart Rate,75,beats/min,75,75.0,beats/min,,WEEK 16,8,2025-04-05,112
STUDY001,VS,STUDY001-SUBJ0008,41,HEIGHT,Height,158.9,cm,158.9,158.9,cm,,END OF TREATMENT,9,2025-05-03,140
STUDY001,VS,STUDY001-SUBJ0008,42,WEIGHT,Weight,74.9,kg,74.9,74.9,kg,,END OF TREATMENT,9,2025-05-03,140
STUDY001,VS,STUDY001-SUBJ0008,43,TEMP,Temperature,36.6,C,36.6,36.6,C,,END OF TREATMENT,9,2025-05-03,140
STUDY001,VS,STUDY001-SUBJ0008,44,BP,Blood Pressure,131/92,mmHg,131/92,,mmHg,,END OF TREATMENT,9,2025-05-03,140
STUDY001,VS,STUDY001-SUBJ0008,45,HR,Heart Rate,81,beats/min,81,81.0,beats/min,,END OF TREATMENT,9,2025-05-03,140
STUDY001,VS,STUDY001-SUBJ0009,1,HEIGHT,Height,194.8,cm,194.8,194.8,cm,,SCREENING,1,2024-09-03,-14
STUDY001,VS,STUDY001-SUBJ0009,2,WEIGHT,Weight,118.1,kg,118.1,118.1,kg,,SCREENING,1,2024-09-03,-14
STUDY001,VS,STUDY001-SUBJ0009,3,TEMP,Temperature,36.6,C,36.6,36.6,C,,SCREENING,1,2024-09-03,-14
STUDY001,VS,STUDY001-SUBJ0009,4,BP,Blood Pressure,135/73,mmHg,135/73,,mmHg,,SCREENING,1,2024-09-03,-14
STUDY001,VS,STUDY001-SUBJ0009,5,HR,Heart Rate,78,beats/min,78,78.0,beats/min,,SCREENING,1,2024-09-03,-14
STUDY001,VS,STUDY001-SUBJ0009,6,HEIGHT,Height,194.6,cm,194.6,194.6,cm,Y,BASELINE,2,2024-09-17,1
STUDY001,VS,STUDY001-SUBJ0009,7,WEIGHT,Weight,117.5,kg,117.5,117.5,kg,Y,BASELINE,2,2024-09-17,1
STUDY001,VS,STUDY001-SUBJ0009,8,TEMP,Temperature,36.9,C,36.9,36.9,C,Y,BASELINE,2,2024-09-17,1
STUDY001,VS,STUDY001-SUBJ0009,9,BP,Blood Pressure,132/76,mmHg,132/76,,mmHg,Y,BASELINE,2,2024-09-17,1
STUDY001,VS,STUDY001-SUBJ0009,10,HR,Heart Rate,81,beats/min,81,81.0,beats/min,Y,BASELINE,2,2024-09-17,1
STUDY001,VS,STUDY001-SUBJ0009,11,HEIGHT,Height,194.7,cm,194.7,194.7,cm,,WEEK 1,3,2024-09-23,7
STUDY001,VS,STUDY001-SUBJ0009,12,WEIGHT,Weight,117.8,kg,117.8,117.8,kg,,WEEK 1,3,2024-09-23,7
STUDY001,VS,STUDY001-SUBJ0009,13,TEMP,Temperature,37.0,C,37.0,37.0,C,,WEEK 1,3,2024-09-23,7
STUDY001,VS,STUDY001-SUBJ0009,14,BP,Blood Pressure,134/78,mmHg,134/78,,mmHg,,WEEK 1,3,2024-09-23,7
STUDY001,VS,STUDY001-SUBJ0009,15,HR,Heart Rate,81,beats/min,81,81.0,beats/min,,WEEK 1,3,2024-09-23,7
STUDY001,VS,STUDY001-SUBJ0009,16,HEIGHT,Height,194.6,cm,194.6,194.6,cm,,WEEK 2,4,2024-09-30,14
STUDY001,VS,STUDY001-SUBJ0009,17,WEIGHT,Weight,117.8,kg,117.8,117.8,kg,,WEEK 2,4,2024-09-30,14
STUDY001,VS,STUDY001-SUBJ0009,18,TEMP,Temperature,36.6,C,36.6,36.6,C,,WEEK 2,4,2024-09-30,14
STUDY001,VS,STUDY001-SUBJ0009,19,BP,Blood Pressure,130/79,mmHg,130/79,,mmHg,,WEEK 2,4,2024-09-30,14
STUDY001,VS,STUDY001-SUBJ0009,20,HR,Heart Rate,78,beats/min,78,78.0,beats/min,,WEEK 2,4,2024-09-30,14
STUDY001,VS,STUDY001-SUBJ0009,21,HEIGHT,Height,194.8,cm,194.8,194.8,cm,,WEEK 4,5,2024-10-14,28
STUDY001,VS,STUDY001-SUBJ0009,22,WEIGHT,Weight,117.1,kg,117.1,117.1,kg,,WEEK 4,5,2024-10-14,28
STUDY001,VS,STUDY001-SUBJ0009,23,TEMP,Temperature,36.9,C,36.9,36.9,C,,WEEK 4,5,2024-10-14,28
STUDY001,VS,STUDY001-SUBJ0009,24,BP,Blood Pressure,134/77,mmHg,134/77,,mmHg,,WEEK 4,5,2024-10-14,28
STUDY001,VS,STUDY001-SUBJ0009,25,HR,Heart Rate,83,beats/min,83,83.0,beats/min,,WEEK 4,5,2024-10-14,28
STUDY001,VS,STUDY001-SUBJ0009,26,HEIGHT,Height,194.6,cm,194.6,194.6,cm,,WEEK 8,6,2024-11-11,56
STUDY001,VS,STUDY001-SUBJ0009,27,WEIGHT,Weight,116.6,kg,116.6,116.6,kg,,WEEK 8,6,2024-11-11,56
STUDY001,VS,STUDY001-SUBJ0009,28,TEMP,Temperature,36.9,C,36.9,36.9,C,,WEEK 8,6,2024-11-11,56
STUDY001,VS,STUDY001-SUBJ0009,29,BP,Blood Pressure,133/79,mmHg,133/79,,mmHg,,WEEK 8,6,2024-11-11,56
STUDY001,VS,STUDY001-SUBJ0009,30,HR,Heart Rate,75,beats/min,75,75.0,beats/min,,WEEK 8,6,2024-11-11,56
STUDY001,VS,STUDY001-SUBJ0009,31,HEIGHT,Height,194.7,cm,194.7,194.7,cm,,WEEK 12,7,2024-12-09,84
STUDY001,VS,STUDY001-SUBJ0009,32,WEIGHT,Weight,116.6,kg,116.6,116.6,kg,,WEEK 12,7,2024-12-09,84
STUDY001,VS,STUDY001-SUBJ0009,33,TEMP,Temperature,37.0,C,37.0,37.0,C,,WEEK 12,7,2024-12-09,84
STUDY001,VS,STUDY001-SUBJ0009,34,BP,Blood Pressure,133/73,mmHg,133/73,,mmHg,,WEEK 12,7,2024-12-09,84
STUDY001,VS,STUDY001-SUBJ0009,35,HR,Heart Rate,79,beats/min,79,79.0,beats/min,,WEEK 12,7,2024-12-09,84
STUDY001,VS,STUDY001-SUBJ0009,36,HEIGHT,Height,194.6,cm,194.6,194.6,cm,,WEEK 16,8,2025-01-06,112
STUDY001,VS,STUDY001-SUBJ0009,37,WEIGHT,Weight,117.8,kg,117.8,117.8,kg,,WEEK 16,8,2025-01-06,112
STUDY001,VS,STUDY001-SUBJ0009,38,TEMP,Temperature,36.8,C,36.8,36.8,C,,WEEK 16,8,2025-01-06,112
STUDY001,VS,STUDY001-SUBJ0009,39,BP,Blood Pressure,135/78,mmHg,135/78,,mmHg,,WEEK 16,8,2025-01-06,112
STUDY001,VS,STUDY001-SUBJ0009,40,HR,Heart Rate,83,beats/min,83,83.0,beats/min,,WEEK 16,8,2025-01-06,112
STUDY001,VS,STUDY001-SUBJ0009,41,HEIGHT,Height,194.7,cm,194.7,194.7,cm,,END OF TREATMENT,9,2025-02-03,140
STUDY001,VS,STUDY001-SUBJ0009,42,WEIGHT,Weight,117.9,kg,117.9,117.9,kg,,END OF TREATMENT,9,2025-02-03,140
STUDY001,VS,STUDY001-SUBJ0009,43,TEMP,Temperature,36.8,C,36.8,36.8,C,,END OF TREATMENT,9,2025-02-03,140
STUDY001,VS,STUDY001-SUBJ0009,44,BP,Blood Pressure,129/71,mmHg,129/71,,mmHg,,END OF TREATMENT,9,2025-02-03,140
STUDY001,VS,STUDY001-SUBJ0009,45,HR,Heart Rate,76,beats/min,76,76.0,beats/min,,END OF TREATMENT,9,2025-02-03,140
STUDY001,VS,STUDY001-SUBJ0010,1,HEIGHT,Height,187.2,cm,187.2,187.2,cm,,SCREENING,1,2024-10-05,-14
STUDY001,VS,STUDY001-SUBJ0010,2,WEIGHT,Weight,57.7,kg,57.7,57.7,kg,,SCREENING,1,2024-10-05,-14
STUDY001,VS,STUDY001-SUBJ0010,3,TEMP,Temperature,36.1,C,36.1,36.1,C,,SCREENING,1,2024-10-05,-14
STUDY001,VS,STUDY001-SUBJ0010,4,BP,Blood Pressure,113/76,mmHg,113/76,,mmHg,,SCREENING,1,2024-10-05,-14
STUDY001,VS,STUDY001-SUBJ0010,5,HR,Heart Rate,83,beats/min,83,83.0,beats/min,,SCREENING,1,2024-10-05,-14
STUDY001,VS,STUDY001-SUBJ0010,6,HEIGHT,Height,187.1,cm,187.1,187.1,cm,Y,BASELINE,2,2024-10-19,1
STUDY001,VS,STUDY001-SUBJ0010,7,WEIGHT,Weight,58.6,kg,58.6,58.6,kg,Y,BASELINE,2,2024-10-19,1
STUDY001,VS,STUDY001-SUBJ0010,8,TEMP,Temperature,36.4,C,36.4,36.4,C,Y,BASELINE,2,2024-10-19,1
STUDY001,VS,STUDY001-SUBJ0010,9,BP,Blood Pressure,113/75,mmHg,113/75,,mmHg,Y,BASELINE,2,2024-10-19,1
STUDY001,VS,STUDY001-SUBJ0010,10,HR,Heart Rate,83,beats/min,83,83.0,beats/min,Y,BASELINE,2,2024-10-19,1
STUDY001,VS,STUDY001-SUBJ0010,11,HEIGHT,Height,187.0,cm,187.0,187.0,cm,,WEEK 1,3,2024-10-25,7
STUDY001,VS,STUDY001-SUBJ0010,12,WEIGHT,Weight,59.0,kg,59.0,59.0,kg,,WEEK 1,3,2024-10-25,7
STUDY001,VS,STUDY001-SUBJ0010,13,TEMP,Temperature,36.1,C,36.1,36.1,C,,WEEK 1,3,2024-10-25,7
STUDY001,VS,STUDY001-SUBJ0010,14,BP,Blood Pressure,110/80,mmHg,110/80,,mmHg,,WEEK 1,3,2024-10-25,7
STUDY001,VS,STUDY001-SUBJ0010,15,HR,Heart Rate,77,beats/min,77,77.0,beats/min,,WEEK 1,3,2024-10-25,7
STUDY001,VS,STUDY001-SUBJ0010,16,HEIGHT,Height,187.4,cm,187.4,187.4,cm,,WEEK 2,4,2024-11-01,14
STUDY001,VS,STUDY001-SUBJ0010,17,WEIGHT,Weight,57.7,kg,57.7,57.7,kg,,WEEK 2,4,2024-11-01,14
STUDY001,VS,STUDY001-SUBJ0010,18,TEMP,Temperature,36.5,C,36.5,36.5,C,,WEEK 2,4,2024-11-01,14
STUDY001,VS,STUDY001-SUBJ0010,19,BP,Blood Pressure,117/83,mmHg,117/83,,mmHg,,WEEK 2,4,2024-11-01,14
STUDY001,VS,STUDY001-SUBJ0010,20,HR,Heart Rate,78,beats/min,78,78.0,beats/min,,WEEK 2,4,2024-11-01,14
STUDY001,VS,STUDY001-SUBJ0010,21,HEIGHT,Height,187.1,cm,187.1,187.1,cm,,WEEK 4,5,2024-11-15,28
STUDY001,VS,STUDY001-SUBJ0010,22,WEIGHT,Weight,58.8,kg,58.8,58.8,kg,,WEEK 4,5,2024-11-15,28
STUDY001,VS,STUDY001-SUBJ0010,23,TEMP,Temperature,36.3,C,36.3,36.3,C,,WEEK 4,5,2024-11-15,28
STUDY001,VS,STUDY001-SUBJ0010,24,BP,Blood Pressure,109/82,mmHg,109/82,,mmHg,,WEEK 4,5,2024-11-15,28
STUDY001,VS,STUDY001-SUBJ0010,25,HR,Heart Rate,75,beats/min,75,75.0,beats/min,,WEEK 4,5,2024-11-15,28
STUDY001,VS,STUDY001-SUBJ0010,26,HEIGHT,Height,187.1,cm,187.1,187.1,cm,,WEEK 8,6,2024-12-13,56
STUDY001,VS,STUDY001-SUBJ0010,27,WEIGHT,Weight,58.3,kg,58.3,58.3,kg,,WEEK 8,6,2024-12-13,56
STUDY001,VS,STUDY001-SUBJ0010,28,TEMP,Temperature,36.5,C,36.5,36.5,C,,WEEK 8,6,2024-12-13,56
STUDY001,VS,STUDY001-SUBJ0010,29,BP,Blood Pressure,108/82,mmHg,108/82,,mmHg,,WEEK 8,6,2024-12-13,56
STUDY001,VS,STUDY001-SUBJ0010,30,HR,Heart Rate,80,beats/min,80,80.0,beats/min,,WEEK 8,6,2024-12-13,56
STUDY001,VS,STUDY001-SUBJ0010,31,HEIGHT,Height,187.3,cm,187.3,187.3,cm,,WEEK 12,7,2025-01-10,84
STUDY001,VS,STUDY001-SUBJ0010,32,WEIGHT,Weight,57.2,kg,57.2,57.2,kg,,WEEK 12,7,2025-01-10,84
STUDY001,VS,STUDY001-SUBJ0010,33,TEMP,Temperature,36.6,C,36.6,36.6,C,,WEEK 12,7,2025-01-10,84
STUDY001,VS,STUDY001-SUBJ0010,34,BP,Blood Pressure,115/78,mmHg,115/78,,mmHg,,WEEK 12,7,2025-01-10,84
STUDY001,VS,STUDY001-SUBJ0010,35,HR,Heart Rate,83,beats/min,83,83.0,beats/min,,WEEK 12,7,2025-01-10,84
STUDY001,VS,STUDY001-SUBJ0010,36,HEIGHT,Height,187.1,cm,187.1,187.1,cm,,WEEK 16,8,2025-02-07,112
STUDY001,VS,STUDY001-SUBJ0010,37,WEIGHT,Weight,58.8,kg,58.8,58.8,kg,,WEEK 16,8,2025-02-07,112
STUDY001,VS,STUDY001-SUBJ0010,38,TEMP,Temperature,36.0,C,36.0,36.0,C,,WEEK 16,8,2025-02-07,112
STUDY001,VS,STUDY001-SUBJ0010,39,BP,Blood Pressure,111/77,mmHg,111/77,,mmHg,,WEEK 16,8,2025-02-07,112
STUDY001,VS,STUDY001-SUBJ0010,40,HR,Heart Rate,76,beats/min,76,76.0,beats/min,,WEEK 16,8,2025-02-07,112
STUDY001,VS,STUDY001-SUBJ0010,41,HEIGHT,Height,187.1,cm,187.1,187.1,cm,,END OF TREATMENT,9,2025-03-07,140
STUDY001,VS,STUDY001-SUBJ0010,42,WEIGHT,Weight,58.7,kg,58.7,58.7,kg,,END OF TREATMENT,9,2025-03-07,140
STUDY001,VS,STUDY001-SUBJ0010,43,TEMP,Temperature,36.4,C,36.4,36.4,C,,END OF TREATMENT,9,2025-03-07,140
STUDY001,VS,STUDY001-SUBJ0010,44,BP,Blood Pressure,113/76,mmHg,113/76,,mmHg,,END OF TREATMENT,9,2025-03-07,140
STUDY001,VS,STUDY001-SUBJ0010,45,HR,Heart Rate,84,beats/min,84,84.0,beats/min,,END OF TREATMENT,9,2025-03-07,140
