STUDYID,DOMAIN,USUBJID,LBSEQ,LBREFID,LBTESTCD,LBTEST,LBCAT,LBORRES,LBORRESU,LBORNRLO,LBORNRHI,LBSTRESC,LBSTRESN,LBSTRESU,LBSTNRLO,LBSTNRHI,LBNRIND,LBBLFL,VISIT,VISITNUM,LBDTC,LBDY
STUDY001,LB,STUDY001-SUBJ0001,1,L00001,HGB,Hemoglobin,HEMATOLOGY,16.59,g/dL,13.5,17.5,16.59,16.59,g/dL,13.5,17.5,NORMAL,,SCREENING,1,2024-09-28,-14
STUDY001,LB,STUDY001-SUBJ0001,2,L00002,HCT,Hematocrit,HEMATOLOGY,45.45,%,41.0,51.0,45.45,45.45,%,41.0,51.0,NORMAL,,SCREENING,1,2024-09-28,-14
STUDY001,LB,STUDY001-SUBJ0001,3,L00003,WBC,White Blood Cell Count,HEMATOLOGY,8.17,10^9/L,4.5,11.0,8.17,8.17,10^9/L,4.5,11.0,NORMAL,,SCREENING,1,2024-09-28,-14
STUDY001,LB,STUDY001-SUBJ0001,4,L00004,PLT,Platelet Count,HEMATOLOGY,396.8,10^9/L,150.0,450.0,396.8,396.8,10^9/L,150.0,450.0,NORMAL,,SCREENING,1,2024-09-28,-14
STUDY001,LB,STUDY001-SUBJ0001,5,L00005,GLUC,Glucose,CHEMISTRY,65.37,mg/dL,70.0,100.0,65.37,65.37,mg/dL,70.0,100.0,LOW,,SCREENING,1,2024-09-28,-14
STUDY001,LB,STUDY001-SUBJ0001,6,L00006,BUN,Blood Urea Nitrogen,CHEMISTRY,17.75,mg/dL,7.0,20.0,17.75,17.75,mg/dL,7.0,20.0,NORMAL,,SCREENING,1,2024-09-28,-14
STUDY001,LB,STUDY001-SUBJ0001,7,L00007,CREAT,Creatinine,CHEMISTRY,0.6,mg/dL,0.6,1.2,0.6,0.6,mg/dL,0.6,1.2,NORMAL,,SCREENING,1,2024-09-28,-14
STUDY001,LB,STUDY001-SUBJ0001,8,L00008,BILI,Total Bilirubin,CHEMISTRY,0.24,mg/dL,0.1,1.2,0.24,0.24,mg/dL,0.1,1.2,NORMAL,,SCREENING,1,2024-09-28,-14
STUDY001,LB,STUDY001-SUBJ0001,9,L00009,ALP,Alkaline Phosphatase,CHEMISTRY,113.22,U/L,44.0,147.0,113.22,113.22,U/L,44.0,147.0,NORMAL,,SCREENING,1,2024-09-28,-14
STUDY001,LB,STUDY001-SUBJ0001,10,L00010,ALT,Alanine Aminotransferase,CHEMISTRY,26.31,U/L,7.0,56.0,26.31,26.31,U/L,7.0,56.0,NORMAL,,SCREENING,1,2024-09-28,-14
STUDY001,LB,STUDY001-SUBJ0001,11,L00011,HGB,Hemoglobin,HEMATOLOGY,16.81,g/dL,13.5,17.5,16.81,16.81,g/dL,13.5,17.5,NORMAL,Y,BASELINE,2,2024-10-12,1
STUDY001,LB,STUDY001-SUBJ0001,12,L00012,HCT,Hematocrit,HEMATOLOGY,45.27,%,41.0,51.0,45.27,45.27,%,41.0,51.0,NORMAL,Y,BASELINE,2,2024-10-12,1
STUDY001,LB,STUDY001-SUBJ0001,13,L00013,WBC,White Blood Cell Count,HEMATOLOGY,8.14,10^9/L,4.5,11.0,8.14,8.14,10^9/L,4.5,11.0,NORMAL,Y,BASELINE,2,2024-10-12,1
STUDY001,LB,STUDY001-SUBJ0001,14,L00014,PLT,Platelet Count,HEMATOLOGY,403.15,10^9/L,150.0,450.0,403.15,403.15,10^9/L,150.0,450.0,NORMAL,Y,BASELINE,2,2024-10-12,1
STUDY001,LB,STUDY001-SUBJ0001,15,L00015,GLUC,Glucose,CHEMISTRY,66.22,mg/dL,70.0,100.0,66.22,66.22,mg/dL,70.0,100.0,LOW,Y,BASELINE,2,2024-10-12,1
STUDY001,LB,STUDY001-SUBJ0001,16,L00016,BUN,Blood Urea Nitrogen,CHEMISTRY,17.55,mg/dL,7.0,20.0,17.55,17.55,mg/dL,7.0,20.0,NORMAL,Y,BASELINE,2,2024-10-12,1
STUDY001,LB,STUDY001-SUBJ0001,17,L00017,CREAT,Creatinine,CHEMISTRY,0.61,mg/dL,0.6,1.2,0.61,0.61,mg/dL,0.6,1.2,NORMAL,Y,BASELINE,2,2024-10-12,1
STUDY001,LB,STUDY001-SUBJ0001,18,L00018,BILI,Total Bilirubin,CHEMISTRY,0.24,mg/dL,0.1,1.2,0.24,0.24,mg/dL,0.1,1.2,NORMAL,Y,BASELINE,2,2024-10-12,1
STUDY001,LB,STUDY001-SUBJ0001,19,L00019,ALP,Alkaline Phosphatase,CHEMISTRY,108.56,U/L,44.0,147.0,108.56,108.56,U/L,44.0,147.0,NORMAL,Y,BASELINE,2,2024-10-12,1
STUDY001,LB,STUDY001-SUBJ0001,20,L00020,ALT,Alanine Aminotransferase,CHEMISTRY,25.37,U/L,7.0,56.0,25.37,25.37,U/L,7.0,56.0,NORMAL,Y,BASELINE,2,2024-10-12,1
STUDY001,LB,STUDY001-SUBJ0001,21,L00021,HGB,Hemoglobin,HEMATOLOGY,16.61,g/dL,13.5,17.5,16.61,16.61,g/dL,13.5,17.5,NORMAL,,WEEK 1,3,2024-10-18,7
STUDY001,LB,STUDY001-SUBJ0001,22,L00022,HCT,Hematocrit,HEMATOLOGY,45.47,%,41.0,51.0,45.47,45.47,%,41.0,51.0,NORMAL,,WEEK 1,3,2024-10-18,7
STUDY001,LB,STUDY001-SUBJ0001,23,L00023,WBC,White Blood Cell Count,HEMATOLOGY,8.24,10^9/L,4.5,11.0,8.24,8.24,10^9/L,4.5,11.0,NORMAL,,WEEK 1,3,2024-10-18,7
STUDY001,LB,STUDY001-SUBJ0001,24,L00024,PLT,Platelet Count,HEMATOLOGY,394.33,10^9/L,150.0,450.0,394.33,394.33,10^9/L,150.0,450.0,NORMAL,,WEEK 1,3,2024-10-18,7
STUDY001,LB,STUDY001-SUBJ0001,25,L00025,GLUC,Glucose,CHEMISTRY,64.55,mg/dL,70.0,100.0,64.55,64.55,mg/dL,70.0,100.0,LOW,,WEEK 1,3,2024-10-18,7
STUDY001,LB,STUDY001-SUBJ0001,26,L00026,BUN,Blood Urea Nitrogen,CHEMISTRY,17.59,mg/dL,7.0,20.0,17.59,17.59,mg/dL,7.0,20.0,NORMAL,,WEEK 1,3,2024-10-18,7
STUDY001,LB,STUDY001-SUBJ0001,27,L00027,CREAT,Creatinine,CHEMISTRY,0.62,mg/dL,0.6,1.2,0.62,0.62,mg/dL,0.6,1.2,NORMAL,,WEEK 1,3,2024-10-18,7
STUDY001,LB,STUDY001-SUBJ0001,28,L00028,BILI,Total Bilirubin,CHEMISTRY,0.28,mg/dL,0.1,1.2,0.28,0.28,mg/dL,0.1,1.2,NORMAL,,WEEK 1,3,2024-10-18,7
STUDY001,LB,STUDY001-SUBJ0001,29,L00029,ALP,Alkaline Phosphatase,CHEMISTRY,109.69,U/L,44.0,147.0,109.69,109.69,U/L,44.0,147.0,NORMAL,,WEEK 1,3,2024-10-18,7
STUDY001,LB,STUDY001-SUBJ0001,30,L00030,ALT,Alanine Aminotransferase,CHEMISTRY,24.35,U/L,7.0,56.0,24.35,24.35,U/L,7.0,56.0,NORMAL,,WEEK 1,3,2024-10-18,7
STUDY001,LB,STUDY001-SUBJ0001,31,L00031,HGB,Hemoglobin,HEMATOLOGY,16.72,g/dL,13.5,17.5,16.72,16.72,g/dL,13.5,17.5,NORMAL,,WEEK 2,4,2024-10-25,14
STUDY001,LB,STUDY001-SUBJ0001,32,L00032,HCT,Hematocrit,HEMATOLOGY,45.63,%,41.0,51.0,45.63,45.63,%,41.0,51.0,NORMAL,,WEEK 2,4,2024-10-25,14
STUDY001,LB,STUDY001-SUBJ0001,33,L00033,WBC,White Blood Cell Count,HEMATOLOGY,8.22,10^9/L,4.5,11.0,8.22,8.22,10^9/L,4.5,11.0,NORMAL,,WEEK 2,4,2024-10-25,14
STUDY001,LB,STUDY001-SUBJ0001,34,L00034,PLT,Platelet Count,HEMATOLOGY,410.0,10^9/L,150.0,450.0,410.0,410.0,10^9/L,150.0,450.0,NORMAL,,WEEK 2,4,2024-10-25,14
STUDY001,LB,STUDY001-SUBJ0001,35,L00035,GLUC,Glucose,CHEMISTRY,67.77,mg/dL,70.0,100.0,67.77,67.77,mg/dL,70.0,100.0,LOW,,WEEK 2,4,2024-10-25,14
STUDY001,LB,STUDY001-SUBJ0001,36,L00036,BUN,Blood Urea Nitrogen,CHEMISTRY,17.24,mg/dL,7.0,20.0,17.24,17.24,mg/dL,7.0,20.0,NORMAL,,WEEK 2,4,2024-10-25,14
STUDY001,LB,STUDY001-SUBJ0001,37,L00037,CREAT,Creatinine,CHEMISTRY,0.59,mg/dL,0.6,1.2,0.59,0.59,mg/dL,0.6,1.2,LOW,,WEEK 2,4,2024-10-25,14
STUDY001,LB,STUDY001-SUBJ0001,38,L00038,BILI,Total Bilirubin,CHEMISTRY,0.21,mg/dL,0.1,1.2,0.21,0.21,mg/dL,0.1,1.2,NORMAL,,WEEK 2,4,2024-10-25,14
STUDY001,LB,STUDY001-SUBJ0001,39,L00039,ALP,Alkaline Phosphatase,CHEMISTRY,113.0,U/L,44.0,147.0,113.0,113.0,U/L,44.0,147.0,NORMAL,,WEEK 2,4,2024-10-25,14
STUDY001,LB,STUDY001-SUBJ0001,40,L00040,ALT,Alanine Aminotransferase,CHEMISTRY,26.45,U/L,7.0,56.0,26.45,26.45,U/L,7.0,56.0,NORMAL,,WEEK 2,4,2024-10-25,14
STUDY001,LB,STUDY001-SUBJ0001,41,L00041,HGB,Hemoglobin,HEMATOLOGY,16.59,g/dL,13.5,17.5,16.59,16.59,g/dL,13.5,17.5,NORMAL,,WEEK 4,5,2024-11-08,28
STUDY001,LB,STUDY001-SUBJ0001,42,L00042,HCT,Hematocrit,HEMATOLOGY,45.68,%,41.0,51.0,45.68,45.68,%,41.0,51.0,NORMAL,,WEEK 4,5,2024-11-08,28
STUDY001,LB,STUDY001-SUBJ0001,43,L00043,WBC,White Blood Cell Count,HEMATOLOGY,8.28,10^9/L,4.5,11.0,8.28,8.28,10^9/L,4.5,11.0,NORMAL,,WEEK 4,5,2024-11-08,28
STUDY001,LB,STUDY001-SUBJ0001,44,L00044,PLT,Platelet Count,HEMATOLOGY,407.14,10^9/L,150.0,450.0,407.14,407.14,10^9/L,150.0,450.0,NORMAL,,WEEK 4,5,2024-11-08,28
STUDY001,LB,STUDY001-SUBJ0001,45,L00045,GLUC,Glucose,CHEMISTRY,66.65,mg/dL,70.0,100.0,66.65,66.65,mg/dL,70.0,100.0,LOW,,WEEK 4,5,2024-11-08,28
STUDY001,LB,STUDY001-SUBJ0001,46,L00046,BUN,Blood Urea Nitrogen,CHEMISTRY,17.03,mg/dL,7.0,20.0,17.03,17.03,mg/dL,7.0,20.0,NORMAL,,WEEK 4,5,2024-11-08,28
STUDY001,LB,STUDY001-SUBJ0001,47,L00047,CREAT,Creatinine,CHEMISTRY,0.6,mg/dL,0.6,1.2,0.6,0.6,mg/dL,0.6,1.2,NORMAL,,WEEK 4,5,2024-11-08,28
STUDY001,LB,STUDY001-SUBJ0001,48,L00048,BILI,Total Bilirubin,CHEMISTRY,0.24,mg/dL,0.1,1.2,0.24,0.24,mg/dL,0.1,1.2,NORMAL,,WEEK 4,5,2024-11-08,28
STUDY001,LB,STUDY001-SUBJ0001,49,L00049,ALP,Alkaline Phosphatase,CHEMISTRY,111.05,U/L,44.0,147.0,111.05,111.05,U/L,44.0,147.0,NORMAL,,WEEK 4,5,2024-11-08,28
STUDY001,LB,STUDY001-SUBJ0001,50,L00050,ALT,Alanine Aminotransferase,CHEMISTRY,27.6,U/L,7.0,56.0,27.6,27.6,U/L,7.0,56.0,NORMAL,,WEEK 4,5,2024-11-08,28
STUDY001,LB,STUDY001-SUBJ0001,51,L00051,HGB,Hemoglobin,HEMATOLOGY,16.74,g/dL,13.5,17.5,16.74,16.74,g/dL,13.5,17.5,NORMAL,,WEEK 8,6,2024-12-06,56
STUDY001,LB,STUDY001-SUBJ0001,52,L00052,HCT,Hematocrit,HEMATOLOGY,45.55,%,41.0,51.0,45.55,45.55,%,41.0,51.0,NORMAL,,WEEK 8,6,2024-12-06,56
STUDY001,LB,STUDY001-SUBJ0001,53,L00053,WBC,White Blood Cell Count,HEMATOLOGY,8.18,10^9/L,4.5,11.0,8.18,8.18,10^9/L,4.5,11.0,NORMAL,,WEEK 8,6,2024-12-06,56
STUDY001,LB,STUDY001-SUBJ0001,54,L00054,PLT,Platelet Count,HEMATOLOGY,401.29,10^9/L,150.0,450.0,401.29,401.29,10^9/L,150.0,450.0,NORMAL,,WEEK 8,6,2024-12-06,56
STUDY001,LB,STUDY001-SUBJ0001,55,L00055,GLUC,Glucose,CHEMISTRY,66.4,mg/dL,70.0,100.0,66.4,66.4,mg/dL,70.0,100.0,LOW,,WEEK 8,6,2024-12-06,56
STUDY001,LB,STUDY001-SUBJ0001,56,L00056,BUN,Blood Urea Nitrogen,CHEMISTRY,16.86,mg/dL,7.0,20.0,16.86,16.86,mg/dL,7.0,20.0,NORMAL,,WEEK 8,6,2024-12-06,56
STUDY001,LB,STUDY001-SUBJ0001,57,L00057,CREAT,Creatinine,CHEMISTRY,0.6,mg/dL,0.6,1.2,0.6,0.6,mg/dL,0.6,1.2,NORMAL,,WEEK 8,6,2024-12-06,56
STUDY001,LB,STUDY001-SUBJ0001,58,L00058,BILI,Total Bilirubin,CHEMISTRY,0.25,mg/dL,0.1,1.2,0.25,0.25,mg/dL,0.1,1.2,NORMAL,,WEEK 8,6,2024-12-06,56
STUDY001,LB,STUDY001-SUBJ0001,59,L00059,ALP,Alkaline Phosphatase,CHEMISTRY,110.95,U/L,44.0,147.0,110.95,110.95,U/L,44.0,147.0,NORMAL,,WEEK 8,6,2024-12-06,56
STUDY001,LB,STUDY001-SUBJ0001,60,L00060,ALT,Alanine Aminotransferase,CHEMISTRY,25.31,U/L,7.0,56.0,25.31,25.31,U/L,7.0,56.0,NORMAL,,WEEK 8,6,2024-12-06,56
STUDY001,LB,STUDY001-SUBJ0001,61,L00061,HGB,Hemoglobin,HEMATOLOGY,16.83,g/dL,13.5,17.5,16.83,16.83,g/dL,13.5,17.5,NORMAL,,WEEK 12,7,2025-01-03,84
STUDY001,LB,STUDY001-SUBJ0001,62,L00062,HCT,Hematocrit,HEMATOLOGY,45.83,%,41.0,51.0,45.83,45.83,%,41.0,51.0,NORMAL,,WEEK 12,7,2025-01-03,84
STUDY001,LB,STUDY001-SUBJ0001,63,L00063,WBC,White Blood Cell Count,HEMATOLOGY,8.22,10^9/L,4.5,11.0,8.22,8.22,10^9/L,4.5,11.0,NORMAL,,WEEK 12,7,2025-01-03,84
STUDY001,LB,STUDY001-SUBJ0001,64,L00064,PLT,Platelet Count,HEMATOLOGY,403.84,10^9/L,150.0,450.0,403.84,403.84,10^9/L,150.0,450.0,NORMAL,,WEEK 12,7,2025-01-03,84
STUDY001,LB,STUDY001-SUBJ0001,65,L00065,GLUC,Glucose,CHEMISTRY,68.04,mg/dL,70.0,100.0,68.04,68.04,mg/dL,70.0,100.0,LOW,,WEEK 12,7,2025-01-03,84
STUDY001,LB,STUDY001-SUBJ0001,66,L00066,BUN,Blood Urea Nitrogen,CHEMISTRY,17.03,mg/dL,7.0,20.0,17.03,17.03,mg/dL,7.0,20.0,NORMAL,,WEEK 12,7,2025-01-03,84
STUDY001,LB,STUDY001-SUBJ0001,67,L00067,CREAT,Creatinine,CHEMISTRY,0.61,mg/dL,0.6,1.2,0.61,0.61,mg/dL,0.6,1.2,NORMAL,,WEEK 12,7,2025-01-03,84
STUDY001,LB,STUDY001-SUBJ0001,68,L00068,BILI,Total Bilirubin,CHEMISTRY,0.28,mg/dL,0.1,1.2,0.28,0.28,mg/dL,0.1,1.2,NORMAL,,WEEK 12,7,2025-01-03,84
STUDY001,LB,STUDY001-SUBJ0001,69,L00069,ALP,Alkaline Phosphatase,CHEMISTRY,111.58,U/L,44.0,147.0,111.58,111.58,U/L,44.0,147.0,NORMAL,,WEEK 12,7,2025-01-03,84
STUDY001,LB,STUDY001-SUBJ0001,70,L00070,ALT,Alanine Aminotransferase,CHEMISTRY,25.48,U/L,7.0,56.0,25.48,25.48,U/L,7.0,56.0,NORMAL,,WEEK 12,7,2025-01-03,84
STUDY001,LB,STUDY001-SUBJ0001,71,L00071,HGB,Hemoglobin,HEMATOLOGY,16.63,g/dL,13.5,17.5,16.63,16.63,g/dL,13.5,17.5,NORMAL,,WEEK 16,8,2025-01-31,112
STUDY001,LB,STUDY001-SUBJ0001,72,L00072,HCT,Hematocrit,HEMATOLOGY,45.63,%,41.0,51.0,45.63,45.63,%,41.0,51.0,NORMAL,,WEEK 16,8,2025-01-31,112
STUDY001,LB,STUDY001-SUBJ0001,73,L00073,WBC,White Blood Cell Count,HEMATOLOGY,8.24,10^9/L,4.5,11.0,8.24,8.24,10^9/L,4.5,11.0,NORMAL,,WEEK 16,8,2025-01-31,112
STUDY001,LB,STUDY001-SUBJ0001,74,L00074,PLT,Platelet Count,HEMATOLOGY,408.11,10^9/L,150.0,450.0,408.11,408.11,10^9/L,150.0,450.0,NORMAL,,WEEK 16,8,2025-01-31,112
STUDY001,LB,STUDY001-SUBJ0001,75,L00075,GLUC,Glucose,CHEMISTRY,65.59,mg/dL,70.0,100.0,65.59,65.59,mg/dL,70.0,100.0,LOW,,WEEK 16,8,2025-01-31,112
STUDY001,LB,STUDY001-SUBJ0001,76,L00076,BUN,Blood Urea Nitrogen,CHEMISTRY,17.26,mg/dL,7.0,20.0,17.26,17.26,mg/dL,7.0,20.0,NORMAL,,WEEK 16,8,2025-01-31,112
STUDY001,LB,STUDY001-SUBJ0001,77,L00077,CREAT,Creatinine,CHEMISTRY,0.59,mg/dL,0.6,1.2,0.59,0.59,mg/dL,0.6,1.2,LOW,,WEEK 16,8,2025-01-31,112
STUDY001,LB,STUDY001-SUBJ0001,78,L00078,BILI,Total Bilirubin,CHEMISTRY,0.26,mg/dL,0.1,1.2,0.26,0.26,mg/dL,0.1,1.2,NORMAL,,WEEK 16,8,2025-01-31,112
STUDY001,LB,STUDY001-SUBJ0001,79,L00079,ALP,Alkaline Phosphatase,CHEMISTRY,107.54,U/L,44.0,147.0,107.54,107.54,U/L,44.0,147.0,NORMAL,,WEEK 16,8,2025-01-31,112
STUDY001,LB,STUDY001-SUBJ0001,80,L00080,ALT,Alanine Aminotransferase,CHEMISTRY,25.71,U/L,7.0,56.0,25.71,25.71,U/L,7.0,56.0,NORMAL,,WEEK 16,8,2025-01-31,112
STUDY001,LB,STUDY001-SUBJ0001,81,L00081,HGB,Hemoglobin,HEMATOLOGY,16.64,g/dL,13.5,17.5,16.64,16.64,g/dL,13.5,17.5,NORMAL,,END OF TREATMENT,9,2025-02-28,140
STUDY001,LB,STUDY001-SUBJ0001,82,L00082,HCT,Hematocrit,HEMATOLOGY,45.7,%,41.0,51.0,45.7,45.7,%,41.0,51.0,NORMAL,,END OF TREATMENT,9,2025-02-28,140
STUDY001,LB,STUDY001-SUBJ0001,83,L00083,WBC,White Blood Cell Count,HEMATOLOGY,8.02,10^9/L,4.5,11.0,8.02,8.02,10^9/L,4.5,11.0,NORMAL,,END OF TREATMENT,9,2025-02-28,140
STUDY001,LB,STUDY001-SUBJ0001,84,L00084,PLT,Platelet Count,HEMATOLOGY,401.19,10^9/L,150.0,450.0,401.19,401.19,10^9/L,150.0,450.0,NORMAL,,END OF TREATMENT,9,2025-02-28,140
STUDY001,LB,STUDY001-SUBJ0001,85,L00085,GLUC,Glucose,CHEMISTRY,65.91,mg/dL,70.0,100.0,65.91,65.91,mg/dL,70.0,100.0,LOW,,END OF TREATMENT,9,2025-02-28,140
STUDY001,LB,STUDY001-SUBJ0001,86,L00086,BUN,Blood Urea Nitrogen,CHEMISTRY,17.26,mg/dL,7.0,20.0,17.26,17.26,mg/dL,7.0,20.0,NORMAL,,END OF TREATMENT,9,2025-02-28,140
STUDY001,LB,STUDY001-SUBJ0001,87,L00087,CREAT,Creatinine,CHEMISTRY,0.57,mg/dL,0.6,1.2,0.57,0.57,mg/dL,0.6,1.2,LOW,,END OF TREATMENT,9,2025-02-28,140
STUDY001,LB,STUDY001-SUBJ0001,88,L00088,BILI,Total Bilirubin,CHEMISTRY,0.26,mg/dL,0.1,1.2,0.26,0.26,mg/dL,0.1,1.2,NORMAL,,END OF TREATMENT,9,2025-02-28,140
STUDY001,LB,STUDY001-SUBJ0001,89,L00089,ALP,Alkaline Phosphatase,CHEMISTRY,109.43,U/L,44.0,147.0,109.43,109.43,U/L,44.0,147.0,NORMAL,,END OF TREATMENT,9,2025-02-28,140
STUDY001,LB,STUDY001-SUBJ0001,90,L00090,ALT,Alanine Aminotransferase,CHEMISTRY,26.57,U/L,7.0,56.0,26.57,26.57,U/L,7.0,56.0,NORMAL,,END OF TREATMENT,9,2025-02-28,140
STUDY001,LB,STUDY001-SUBJ0002,1,L00001,HGB,Hemoglobin,HEMATOLOGY,15.59,g/dL,13.5,17.5,15.59,15.59,g/dL,13.5,17.5,NORMAL,,SCREENING,1,2025-01-14,-14
STUDY001,LB,STUDY001-SUBJ0002,2,L00002,HCT,Hematocrit,HEMATOLOGY,44.57,%,41.0,51.0,44.57,44.57,%,41.0,51.0,NORMAL,,SCREENING,1,2025-01-14,-14
STUDY001,LB,STUDY001-SUBJ0002,3,L00003,WBC,White Blood Cell Count,HEMATOLOGY,5.41,10^9/L,4.5,11.0,5.41,5.41,10^9/L,4.5,11.0,NORMAL,,SCREENING,1,2025-01-14,-14
STUDY001,LB,STUDY001-SUBJ0002,4,L00004,PLT,Platelet Count,HEMATOLOGY,192.71,10^9/L,150.0,450.0,192.71,192.71,10^9/L,150.0,450.0,NORMAL,,SCREENING,1,2025-01-14,-14
STUDY001,LB,STUDY001-SUBJ0002,5,L00005,GLUC,Glucose,CHEMISTRY,69.23,mg/dL,70.0,100.0,69.23,69.23,mg/dL,70.0,100.0,LOW,,SCREENING,1,2025-01-14,-14
STUDY001,LB,STUDY001-SUBJ0002,6,L00006,BUN,Blood Urea Nitrogen,CHEMISTRY,10.64,mg/dL,7.0,20.0,10.64,10.64,mg/dL,7.0,20.0,NORMAL,,SCREENING,1,2025-01-14,-14
STUDY001,LB,STUDY001-SUBJ0002,7,L00007,CREAT,Creatinine,CHEMISTRY,1.04,mg/dL,0.6,1.2,1.04,1.04,mg/dL,0.6,1.2,NORMAL,,SCREENING,1,2025-01-14,-14
STUDY001,LB,STUDY001-SUBJ0002,8,L00008,BILI,Total Bilirubin,CHEMISTRY,0.85,mg/dL,0.1,1.2,0.85,0.85,mg/dL,0.1,1.2,NORMAL,,SCREENING,1,2025-01-14,-14
STUDY001,LB,STUDY001-SUBJ0002,9,L00009,ALP,Alkaline Phosphatase,CHEMISTRY,58.51,U/L,44.0,147.0,58.51,58.51,U/L,44.0,147.0,NORMAL,,SCREENING,1,2025-01-14,-14
STUDY001,LB,STUDY001-SUBJ0002,10,L00010,ALT,Alanine Aminotransferase,CHEMISTRY,26.68,U/L,7.0,56.0,26.68,26.68,U/L,7.0,56.0,NORMAL,,SCREENING,1,2025-01-14,-14
STUDY001,LB,STUDY001-SUBJ0002,11,L00011,HGB,Hemoglobin,HEMATOLOGY,15.51,g/dL,13.5,17.5,15.51,15.51,g/dL,13.5,17.5,NORMAL,Y,BASELINE,2,2025-01-28,1
STUDY001,LB,STUDY001-SUBJ0002,12,L00012,HCT,Hematocrit,HEMATOLOGY,44.54,%,41.0,51.0,44.54,44.54,%,41.0,51.0,NORMAL,Y,BASELINE,2,2025-01-28,1
STUDY001,LB,STUDY001-SUBJ0002,13,L00013,WBC,White Blood Cell Count,HEMATOLOGY,5.17,10^9/L,4.5,11.0,5.17,5.17,10^9/L,4.5,11.0,NORMAL,Y,BASELINE,2,2025-01-28,1
STUDY001,LB,STUDY001-SUBJ0002,14,L00014,PLT,Platelet Count,HEMATOLOGY,192.83,10^9/L,150.0,450.0,192.83,192.83,10^9/L,150.0,450.0,NORMAL,Y,BASELINE,2,2025-01-28,1
STUDY001,LB,STUDY001-SUBJ0002,15,L00015,GLUC,Glucose,CHEMISTRY,70.42,mg/dL,70.0,100.0,70.42,70.42,mg/dL,70.0,100.0,NORMAL,Y,BASELINE,2,2025-01-28,1
STUDY001,LB,STUDY001-SUBJ0002,16,L00016,BUN,Blood Urea Nitrogen,CHEMISTRY,11.47,mg/dL,7.0,20.0,11.47,11.47,mg/dL,7.0,20.0,NORMAL,Y,BASELINE,2,2025-01-28,1
STUDY001,LB,STUDY001-SUBJ0002,17,L00017,CREAT,Creatinine,CHEMISTRY,1.01,mg/dL,0.6,1.2,1.01,1.01,mg/dL,0.6,1.2,NORMAL,Y,BASELINE,2,2025-01-28,1
STUDY001,LB,STUDY001-SUBJ0002,18,L00018,BILI,Total Bilirubin,CHEMISTRY,0.84,mg/dL,0.1,1.2,0.84,0.84,mg/dL,0.1,1.2,NORMAL,Y,BASELINE,2,2025-01-28,1
STUDY001,LB,STUDY001-SUBJ0002,19,L00019,ALP,Alkaline Phosphatase,CHEMISTRY,60.05,U/L,44.0,147.0,60.05,60.05,U/L,44.0,147.0,NORMAL,Y,BASELINE,2,2025-01-28,1
STUDY001,LB,STUDY001-SUBJ0002,20,L00020,ALT,Alanine Aminotransferase,CHEMISTRY,24.9,U/L,7.0,56.0,24.9,24.9,U/L,7.0,56.0,NORMAL,Y,BASELINE,2,2025-01-28,1
STUDY001,LB,STUDY001-SUBJ0002,21,L00021,HGB,Hemoglobin,HEMATOLOGY,15.51,g/dL,13.5,17.5,15.51,15.51,g/dL,13.5,17.5,NORMAL,,WEEK 1,3,2025-02-03,7
STUDY001,LB,STUDY001-SUBJ0002,22,L00022,HCT,Hematocrit,HEMATOLOGY,44.14,%,41.0,51.0,44.14,44.14,%,41.0,51.0,NORMAL,,WEEK 1,3,2025-02-03,7
STUDY001,LB,STUDY001-SUBJ0002,23,L00023,WBC,White Blood Cell Count,HEMATOLOGY,5.38,10^9/L,4.5,11.0,5.38,5.38,10^9/L,4.5,11.0,NORMAL,,WEEK 1,3,2025-02-03,7
STUDY001,LB,STUDY001-SUBJ0002,24,L00024,PLT,Platelet Count,HEMATOLOGY,198.46,10^9/L,150.0,450.0,198.46,198.46,10^9/L,150.0,450.0,NORMAL,,WEEK 1,3,2025-02-03,7
STUDY001,LB,STUDY001-SUBJ0002,25,L00025,GLUC,Glucose,CHEMISTRY,67.66,mg/dL,70.0,100.0,67.66,67.66,mg/dL,70.0,100.0,LOW,,WEEK 1,3,2025-02-03,7
STUDY001,LB,STUDY001-SUBJ0002,26,L00026,BUN,Blood Urea Nitrogen,CHEMISTRY,10.83,mg/dL,7.0,20.0,10.83,10.83,mg/dL,7.0,20.0,NORMAL,,WEEK 1,3,2025-02-03,7
STUDY001,LB,STUDY001-SUBJ0002,27,L00027,CREAT,Creatinine,CHEMISTRY,1.0,mg/dL,0.6,1.2,1.0,1.0,mg/dL,0.6,1.2,NORMAL,,WEEK 1,3,2025-02-03,7
STUDY001,LB,STUDY001-SUBJ0002,28,L00028,BILI,Total Bilirubin,CHEMISTRY,0.82,mg/dL,0.1,1.2,0.82,0.82,mg/dL,0.1,1.2,NORMAL,,WEEK 1,3,2025-02-03,7
STUDY001,LB,STUDY001-SUBJ0002,29,L00029,ALP,Alkaline Phosphatase,CHEMISTRY,59.16,U/L,44.0,147.0,59.16,59.16,U/L,44.0,147.0,NORMAL,,WEEK 1,3,2025-02-03,7
STUDY001,LB,STUDY001-SUBJ0002,30,L00030,ALT,Alanine Aminotransferase,CHEMISTRY,25.18,U/L,7.0,56.0,25.18,25.18,U/L,7.0,56.0,NORMAL,,WEEK 1,3,2025-02-03,7
STUDY001,LB,STUDY001-SUBJ0002,31,L00031,HGB,Hemoglobin,HEMATOLOGY,15.66,g/dL,13.5,17.5,15.66,15.66,g/dL,13.5,17.5,NORMAL,,WEEK 2,4,2025-02-10,14
STUDY001,LB,STUDY001-SUBJ0002,32,L00032,HCT,Hematocrit,HEMATOLOGY,44.48,%,41.0,51.0,44.48,44.48,%,41.0,51.0,NORMAL,,WEEK 2,4,2025-02-10,14
STUDY001,LB,STUDY001-SUBJ0002,33,L00033,WBC,White Blood Cell Count,HEMATOLOGY,5.24,10^9/L,4.5,11.0,5.24,5.24,10^9/L,4.5,11.0,NORMAL,,WEEK 2,4,2025-02-10,14
STUDY001,LB,STUDY001-SUBJ0002,34,L00034,PLT,Platelet Count,HEMATOLOGY,202.29,10^9/L,150.0,450.0,202.29,202.29,10^9/L,150.0,450.0,NORMAL,,WEEK 2,4,2025-02-10,14
STUDY001,LB,STUDY001-SUBJ0002,35,L00035,GLUC,Glucose,CHEMISTRY,69.02,mg/dL,70.0,100.0,69.02,69.02,mg/dL,70.0,100.0,LOW,,WEEK 2,4,2025-02-10,14
STUDY001,LB,STUDY001-SUBJ0002,36,L00036,BUN,Blood Urea Nitrogen,CHEMISTRY,10.94,mg/dL,7.0,20.0,10.94,10.94,mg/dL,7.0,20.0,NORMAL,,WEEK 2,4,2025-02-10,14
STUDY001,LB,STUDY001-SUBJ0002,37,L00037,CREAT,Creatinine,CHEMISTRY,1.01,mg/dL,0.6,1.2,1.01,1.01,mg/dL,0.6,1.2,NORMAL,,WEEK 2,4,2025-02-10,14
STUDY001,LB,STUDY001-SUBJ0002,38,L00038,BILI,Total Bilirubin,CHEMISTRY,0.87,mg/dL,0.1,1.2,0.87,0.87,mg/dL,0.1,1.2,NORMAL,,WEEK 2,4,2025-02-10,14
STUDY001,LB,STUDY001-SUBJ0002,39,L00039,ALP,Alkaline Phosphatase,CHEMISTRY,55.8,U/L,44.0,147.0,55.8,55.8,U/L,44.0,147.0,NORMAL,,WEEK 2,4,2025-02-10,14
STUDY001,LB,STUDY001-SUBJ0002,40,L00040,ALT,Alanine Aminotransferase,CHEMISTRY,27.05,U/L,7.0,56.0,27.05,27.05,U/L,7.0,56.0,NORMAL,,WEEK 2,4,2025-02-10,14
STUDY001,LB,STUDY001-SUBJ0002,41,L00041,HGB,Hemoglobin,HEMATOLOGY,15.44,g/dL,13.5,17.5,15.44,15.44,g/dL,13.5,17.5,NORMAL,,WEEK 4,5,2025-02-24,28
STUDY001,LB,STUDY001-SUBJ0002,42,L00042,HCT,Hematocrit,HEMATOLOGY,44.36,%,41.0,51.0,44.36,44.36,%,41.0,51.0,NORMAL,,WEEK 4,5,2025-02-24,28
STUDY001,LB,STUDY001-SUBJ0002,43,L00043,WBC,White Blood Cell Count,HEMATOLOGY,5.59,10^9/L,4.5,11.0,5.59,5.59,10^9/L,4.5,11.0,NORMAL,,WEEK 4,5,2025-02-24,28
STUDY001,LB,STUDY001-SUBJ0002,44,L00044,PLT,Platelet Count,HEMATOLOGY,193.81,10^9/L,150.0,450.0,193.81,193.81,10^9/L,150.0,450.0,NORMAL,,WEEK 4,5,2025-02-24,28
STUDY001,LB,STUDY001-SUBJ0002,45,L00045,GLUC,Glucose,CHEMISTRY,69.06,mg/dL,70.0,100.0,69.06,69.06,mg/dL,70.0,100.0,LOW,,WEEK 4,5,2025-02-24,28
STUDY001,LB,STUDY001-SUBJ0002,46,L00046,BUN,Blood Urea Nitrogen,CHEMISTRY,10.73,mg/dL,7.0,20.0,10.73,10.73,mg/dL,7.0,20.0,NORMAL,,WEEK 4,5,2025-02-24,28
STUDY001,LB,STUDY001-SUBJ0002,47,L00047,CREAT,Creatinine,CHEMISTRY,1.04,mg/dL,0.6,1.2,1.04,1.04,mg/dL,0.6,1.2,NORMAL,,WEEK 4,5,2025-02-24,28
STUDY001,LB,STUDY001-SUBJ0002,48,L00048,BILI,Total Bilirubin,CHEMISTRY,0.91,mg/dL,0.1,1.2,0.91,0.91,mg/dL,0.1,1.2,NORMAL,,WEEK 4,5,2025-02-24,28
STUDY001,LB,STUDY001-SUBJ0002,49,L00049,ALP,Alkaline Phosphatase,CHEMISTRY,60.3,U/L,44.0,147.0,60.3,60.3,U/L,44.0,147.0,NORMAL,,WEEK 4,5,2025-02-24,28
STUDY001,LB,STUDY001-SUBJ0002,50,L00050,ALT,Alanine Aminotransferase,CHEMISTRY,28.31,U/L,7.0,56.0,28.31,28.31,U/L,7.0,56.0,NORMAL,,WEEK 4,5,2025-02-24,28
STUDY001,LB,STUDY001-SUBJ0002,51,L00051,HGB,Hemoglobin,HEMATOLOGY,15.36,g/dL,13.5,17.5,15.36,15.36,g/dL,13.5,17.5,NORMAL,,WEEK 8,6,2025-03-24,56
STUDY001,LB,STUDY001-SUBJ0002,52,L00052,HCT,Hematocrit,HEMATOLOGY,44.58,%,41.0,51.0,44.58,44.58,%,41.0,51.0,NORMAL,,WEEK 8,6,2025-03-24,56
STUDY001,LB,STUDY001-SUBJ0002,53,L00053,WBC,White Blood Cell Count,HEMATOLOGY,5.31,10^9/L,4.5,11.0,5.31,5.31,10^9/L,4.5,11.0,NORMAL,,WEEK 8,6,2025-03-24,56
STUDY001,LB,STUDY001-SUBJ0002,54,L00054,PLT,Platelet Count,HEMATOLOGY,211.08,10^9/L,150.0,450.0,211.08,211.08,10^9/L,150.0,450.0,NORMAL,,WEEK 8,6,2025-03-24,56
STUDY001,LB,STUDY001-SUBJ0002,55,L00055,GLUC,Glucose,CHEMISTRY,68.96,mg/dL,70.0,100.0,68.96,68.96,mg/dL,70.0,100.0,LOW,,WEEK 8,6,2025-03-24,56
STUDY001,LB,STUDY001-SUBJ0002,56,L00056,BUN,Blood Urea Nitrogen,CHEMISTRY,10.88,mg/dL,7.0,20.0,10.88,10.88,mg/dL,7.0,20.0,NORMAL,,WEEK 8,6,2025-03-24,56
STUDY001,LB,STUDY001-SUBJ0002,57,L00057,CREAT,Creatinine,CHEMISTRY,1.03,mg/dL,0.6,1.2,1.03,1.03,mg/dL,0.6,1.2,NORMAL,,WEEK 8,6,2025-03-24,56
STUDY001,LB,STUDY001-SUBJ0002,58,L00058,BILI,Total Bilirubin,CHEMISTRY,0.87,mg/dL,0.1,1.2,0.87,0.87,mg/dL,0.1,1.2,NORMAL,,WEEK 8,6,2025-03-24,56
STUDY001,LB,STUDY001-SUBJ0002,59,L00059,ALP,Alkaline Phosphatase,CHEMISTRY,59.91,U/L,44.0,147.0,59.91,59.91,U/L,44.0,147.0,NORMAL,,WEEK 8,6,2025-03-24,56
STUDY001,LB,STUDY001-SUBJ0002,60,L00060,ALT,Alanine Aminotransferase,CHEMISTRY,26.85,U/L,7.0,56.0,26.85,26.85,U/L,7.0,56.0,NORMAL,,WEEK 8,6,2025-03-24,56
STUDY001,LB,STUDY001-SUBJ0002,61,L00061,HGB,Hemoglobin,HEMATOLOGY,15.48,g/dL,13.5,17.5,15.48,15.48,g/dL,13.5,17.5,NORMAL,,WEEK 12,7,2025-04-21,84
STUDY001,LB,STUDY001-SUBJ0002,62,L00062,HCT,Hematocrit,HEMATOLOGY,44.54,%,41.0,51.0,44.54,44.54,%,41.0,51.0,NORMAL,,WEEK 12,7,2025-04-21,84
STUDY001,LB,STUDY001-SUBJ0002,63,L00063,WBC,White Blood Cell Count,HEMATOLOGY,5.39,10^9/L,4.5,11.0,5.39,5.39,10^9/L,4.5,11.0,NORMAL,,WEEK 12,7,2025-04-21,84
STUDY001,LB,STUDY001-SUBJ0002,64,L00064,PLT,Platelet Count,HEMATOLOGY,195.33,10^9/L,150.0,450.0,195.33,195.33,10^9/L,150.0,450.0,NORMAL,,WEEK 12,7,2025-04-21,84
STUDY001,LB,STUDY001-SUBJ0002,65,L00065,GLUC,Glucose,CHEMISTRY,68.77,mg/dL,70.0,100.0,68.77,68.77,mg/dL,70.0,100.0,LOW,,WEEK 12,7,2025-04-21,84
STUDY001,LB,STUDY001-SUBJ0002,66,L00066,BUN,Blood Urea Nitrogen,CHEMISTRY,11.0,mg/dL,7.0,20.0,11.0,11.0,mg/dL,7.0,20.0,NORMAL,,WEEK 12,7,2025-04-21,84
STUDY001,LB,STUDY001-SUBJ0002,67,L00067,CREAT,Creatinine,CHEMISTRY,1.04,mg/dL,0.6,1.2,1.04,1.04,mg/dL,0.6,1.2,NORMAL,,WEEK 12,7,2025-04-21,84
STUDY001,LB,STUDY001-SUBJ0002,68,L00068,BILI,Total Bilirubin,CHEMISTRY,0.86,mg/dL,0.1,1.2,0.86,0.86,mg/dL,0.1,1.2,NORMAL,,WEEK 12,7,2025-04-21,84
STUDY001,LB,STUDY001-SUBJ0002,69,L00069,ALP,Alkaline Phosphatase,CHEMISTRY,60.32,U/L,44.0,147.0,60.32,60.32,U/L,44.0,147.0,NORMAL,,WEEK 12,7,2025-04-21,84
STUDY001,LB,STUDY001-SUBJ0002,70,L00070,ALT,Alanine Aminotransferase,CHEMISTRY,26.3,U/L,7.0,56.0,26.3,26.3,U/L,7.0,56.0,NORMAL,,WEEK 12,7,2025-04-21,84
STUDY001,LB,STUDY001-SUBJ0002,71,L00071,HGB,Hemoglobin,HEMATOLOGY,15.49,g/dL,13.5,17.5,15.49,15.49,g/dL,13.5,17.5,NORMAL,,WEEK 16,8,2025-05-19,112
STUDY001,LB,STUDY001-SUBJ0002,72,L00072,HCT,Hematocrit,HEMATOLOGY,44.37,%,41.0,51.0,44.37,44.37,%,41.0,51.0,NORMAL,,WEEK 16,8,2025-05-19,112
STUDY001,LB,STUDY001-SUBJ0002,73,L00073,WBC,White Blood Cell Count,HEMATOLOGY,5.35,10^9/L,4.5,11.0,5.35,5.35,10^9/L,4.5,11.0,NORMAL,,WEEK 16,8,2025-05-19,112
STUDY001,LB,STUDY001-SUBJ0002,74,L00074,PLT,Platelet Count,HEMATOLOGY,206.04,10^9/L,150.0,450.0,206.04,206.04,10^9/L,150.0,450.0,NORMAL,,WEEK 16,8,2025-05-19,112
STUDY001,LB,STUDY001-SUBJ0002,75,L00075,GLUC,Glucose,CHEMISTRY,68.54,mg/dL,70.0,100.0,68.54,68.54,mg/dL,70.0,100.0,LOW,,WEEK 16,8,2025-05-19,112
STUDY001,LB,STUDY001-SUBJ0002,76,L00076,BUN,Blood Urea Nitrogen,CHEMISTRY,11.48,mg/dL,7.0,20.0,11.48,11.48,mg/dL,7.0,20.0,NORMAL,,WEEK 16,8,2025-05-19,112
STUDY001,LB,STUDY001-SUBJ0002,77,L00077,CREAT,Creatinine,CHEMISTRY,1.03,mg/dL,0.6,1.2,1.03,1.03,mg/dL,0.6,1.2,NORMAL,,WEEK 16,8,2025-05-19,112
STUDY001,LB,STUDY001-SUBJ0002,78,L00078,BILI,Total Bilirubin,CHEMISTRY,0.86,mg/dL,0.1,1.2,0.86,0.86,mg/dL,0.1,1.2,NORMAL,,WEEK 16,8,2025-05-19,112
STUDY001,LB,STUDY001-SUBJ0002,79,L00079,ALP,Alkaline Phosphatase,CHEMISTRY,57.85,U/L,44.0,147.0,57.85,57.85,U/L,44.0,147.0,NORMAL,,WEEK 16,8,2025-05-19,112
STUDY001,LB,STUDY001-SUBJ0002,80,L00080,ALT,Alanine Aminotransferase,CHEMISTRY,26.09,U/L,7.0,56.0,26.09,26.09,U/L,7.0,56.0,NORMAL,,WEEK 16,8,2025-05-19,112
STUDY001,LB,STUDY001-SUBJ0002,81,L00081,HGB,Hemoglobin,HEMATOLOGY,15.41,g/dL,13.5,17.5,15.41,15.41,g/dL,13.5,17.5,NORMAL,,END OF TREATMENT,9,2025-06-16,140
STUDY001,LB,STUDY001-SUBJ0002,82,L00082,HCT,Hematocrit,HEMATOLOGY,44.04,%,41.0,51.0,44.04,44.04,%,41.0,51.0,NORMAL,,END OF TREATMENT,9,2025-06-16,140
STUDY001,LB,STUDY001-SUBJ0002,83,L00083,WBC,White Blood Cell Count,HEMATOLOGY,5.57,10^9/L,4.5,11.0,5.57,5.57,10^9/L,4.5,11.0,NORMAL,,END OF TREATMENT,9,2025-06-16,140
STUDY001,LB,STUDY001-SUBJ0002,84,L00084,PLT,Platelet Count,HEMATOLOGY,198.94,10^9/L,150.0,450.0,198.94,198.94,10^9/L,150.0,450.0,NORMAL,,END OF TREATMENT,9,2025-06-16,140
STUDY001,LB,STUDY001-SUBJ0002,85,L00085,GLUC,Glucose,CHEMISTRY,69.37,mg/dL,70.0,100.0,69.37,69.37,mg/dL,70.0,100.0,LOW,,END OF TREATMENT,9,2025-06-16,140
STUDY001,LB,STUDY001-SUBJ0002,86,L00086,BUN,Blood Urea Nitrogen,CHEMISTRY,10.61,mg/dL,7.0,20.0,10.61,10.61,mg/dL,7.0,20.0,NORMAL,,END OF TREATMENT,9,2025-06-16,140
STUDY001,LB,STUDY001-SUBJ0002,87,L00087,CREAT,Creatinine,CHEMISTRY,1.03,mg/dL,0.6,1.2,1.03,1.03,mg/dL,0.6,1.2,NORMAL,,END OF TREATMENT,9,2025-06-16,140
STUDY001,LB,STUDY001-SUBJ0002,88,L00088,BILI,Total Bilirubin,CHEMISTRY,0.89,mg/dL,0.1,1.2,0.89,0.89,mg/dL,0.1,1.2,NORMAL,,END OF TREATMENT,9,2025-06-16,140
STUDY001,LB,STUDY001-SUBJ0002,89,L00089,ALP,Alkaline Phosphatase,CHEMISTRY,58.75,U/L,44.0,147.0,58.75,58.75,U/L,44.0,147.0,NORMAL,,END OF TREATMENT,9,2025-06-16,140
STUDY001,LB,STUDY001-SUBJ0002,90,L00090,ALT,Alanine Aminotransferase,CHEMISTRY,28.32,U/L,7.0,56.0,28.32,28.32,U/L,7.0,56.0,NORMAL,,END OF TREATMENT,9,2025-06-16,140
STUDY001,LB,STUDY001-SUBJ0003,1,L00001,HGB,Hemoglobin,HEMATOLOGY,13.41,g/dL,13.5,17.5,13.41,13.41,g/dL,13.5,17.5,LOW,,SCREENING,1,2025-06-09,-14
STUDY001,LB,STUDY001-SUBJ0003,2,L00002,HCT,Hematocrit,HEMATOLOGY,46.16,%,41.0,51.0,46.16,46.16,%,41.0,51.0,NORMAL,,SCREENING,1,2025-06-09,-14
STUDY001,LB,STUDY001-SUBJ0003,3,L00003,WBC,White Blood Cell Count,HEMATOLOGY,6.38,10^9/L,4.5,11.0,6.38,6.38,10^9/L,4.5,11.0,NORMAL,,SCREENING,1,2025-06-09,-14
STUDY001,LB,STUDY001-SUBJ0003,4,L00004,PLT,Platelet Count,HEMATOLOGY,276.02,10^9/L,150.0,450.0,276.02,276.02,10^9/L,150.0,450.0,NORMAL,,SCREENING,1,2025-06-09,-14
STUDY001,LB,STUDY001-SUBJ0003,5,L00005,GLUC,Glucose,CHEMISTRY,85.4,mg/dL,70.0,100.0,85.4,85.4,mg/dL,70.0,100.0,NORMAL,,SCREENING,1,2025-06-09,-14
STUDY001,LB,STUDY001-SUBJ0003,6,L00006,BUN,Blood Urea Nitrogen,CHEMISTRY,13.26,mg/dL,7.0,20.0,13.26,13.26,mg/dL,7.0,20.0,NORMAL,,SCREENING,1,2025-06-09,-14
STUDY001,LB,STUDY001-SUBJ0003,7,L00007,CREAT,Creatinine,CHEMISTRY,1.0,mg/dL,0.6,1.2,1.0,1.0,mg/dL,0.6,1.2,NORMAL,,SCREENING,1,2025-06-09,-14
STUDY001,LB,STUDY001-SUBJ0003,8,L00008,BILI,Total Bilirubin,CHEMISTRY,0.95,mg/dL,0.1,1.2,0.95,0.95,mg/dL,0.1,1.2,NORMAL,,SCREENING,1,2025-06-09,-14
STUDY001,LB,STUDY001-SUBJ0003,9,L00009,ALP,Alkaline Phosphatase,CHEMISTRY,105.77,U/L,44.0,147.0,105.77,105.77,U/L,44.0,147.0,NORMAL,,SCREENING,1,2025-06-09,-14
STUDY001,LB,STUDY001-SUBJ0003,10,L00010,ALT,Alanine Aminotransferase,CHEMISTRY,42.66,U/L,7.0,56.0,42.66,42.66,U/L,7.0,56.0,NORMAL,,SCREENING,1,2025-06-09,-14
STUDY001,LB,STUDY001-SUBJ0003,11,L00011,HGB,Hemoglobin,HEMATOLOGY,13.42,g/dL,13.5,17.5,13.42,13.42,g/dL,13.5,17.5,LOW,Y,BASELINE,2,2025-06-23,1
STUDY001,LB,STUDY001-SUBJ0003,12,L00012,HCT,Hematocrit,HEMATOLOGY,45.93,%,41.0,51.0,45.93,45.93,%,41.0,51.0,NORMAL,Y,BASELINE,2,2025-06-23,1
STUDY001,LB,STUDY001-SUBJ0003,13,L00013,WBC,White Blood Cell Count,HEMATOLOGY,6.17,10^9/L,4.5,11.0,6.17,6.17,10^9/L,4.5,11.0,NORMAL,Y,BASELINE,2,2025-06-23,1
STUDY001,LB,STUDY001-SUBJ0003,14,L00014,PLT,Platelet Count,HEMATOLOGY,283.34,10^9/L,150.0,450.0,283.34,283.34,10^9/L,150.0,450.0,NORMAL,Y,BASELINE,2,2025-06-23,1
STUDY001,LB,STUDY001-SUBJ0003,15,L00015,GLUC,Glucose,CHEMISTRY,84.67,mg/dL,70.0,100.0,84.67,84.67,mg/dL,70.0,100.0,NORMAL,Y,BASELINE,2,2025-06-23,1
STUDY001,LB,STUDY001-SUBJ0003,16,L00016,BUN,Blood Urea Nitrogen,CHEMISTRY,13.52,mg/dL,7.0,20.0,13.52,13.52,mg/dL,7.0,20.0,NORMAL,Y,BASELINE,2,2025-06-23,1
STUDY001,LB,STUDY001-SUBJ0003,17,L00017,CREAT,Creatinine,CHEMISTRY,1.01,mg/dL,0.6,1.2,1.01,1.01,mg/dL,0.6,1.2,NORMAL,Y,BASELINE,2,2025-06-23,1
STUDY001,LB,STUDY001-SUBJ0003,18,L00018,BILI,Total Bilirubin,CHEMISTRY,0.93,mg/dL,0.1,1.2,0.93,0.93,mg/dL,0.1,1.2,NORMAL,Y,BASELINE,2,2025-06-23,1
STUDY001,LB,STUDY001-SUBJ0003,19,L00019,ALP,Alkaline Phosphatase,CHEMISTRY,106.31,U/L,44.0,147.0,106.31,106.31,U/L,44.0,147.0,NORMAL,Y,BASELINE,2,2025-06-23,1
STUDY001,LB,STUDY001-SUBJ0003,20,L00020,ALT,Alanine Aminotransferase,CHEMISTRY,43.7,U/L,7.0,56.0,43.7,43.7,U/L,7.0,56.0,NORMAL,Y,BASELINE,2,2025-06-23,1
STUDY001,LB,STUDY001-SUBJ0003,21,L00021,HGB,Hemoglobin,HEMATOLOGY,13.61,g/dL,13.5,17.5,13.61,13.61,g/dL,13.5,17.5,NORMAL,,WEEK 1,3,2025-06-29,7
STUDY001,LB,STUDY001-SUBJ0003,22,L00022,HCT,Hematocrit,HEMATOLOGY,46.06,%,41.0,51.0,46.06,46.06,%,41.0,51.0,NORMAL,,WEEK 1,3,2025-06-29,7
STUDY001,LB,STUDY001-SUBJ0003,23,L00023,WBC,White Blood Cell Count,HEMATOLOGY,6.24,10^9/L,4.5,11.0,6.24,6.24,10^9/L,4.5,11.0,NORMAL,,WEEK 1,3,2025-06-29,7
STUDY001,LB,STUDY001-SUBJ0003,24,L00024,PLT,Platelet Count,HEMATOLOGY,283.22,10^9/L,150.0,450.0,283.22,283.22,10^9/L,150.0,450.0,NORMAL,,WEEK 1,3,2025-06-29,7
STUDY001,LB,STUDY001-SUBJ0003,25,L00025,GLUC,Glucose,CHEMISTRY,83.3,mg/dL,70.0,100.0,83.3,83.3,mg/dL,70.0,100.0,NORMAL,,WEEK 1,3,2025-06-29,7
STUDY001,LB,STUDY001-SUBJ0003,26,L00026,BUN,Blood Urea Nitrogen,CHEMISTRY,13.28,mg/dL,7.0,20.0,13.28,13.28,mg/dL,7.0,20.0,NORMAL,,WEEK 1,3,2025-06-29,7
STUDY001,LB,STUDY001-SUBJ0003,27,L00027,CREAT,Creatinine,CHEMISTRY,1.0,mg/dL,0.6,1.2,1.0,1.0,mg/dL,0.6,1.2,NORMAL,,WEEK 1,3,2025-06-29,7
STUDY001,LB,STUDY001-SUBJ0003,28,L00028,BILI,Total Bilirubin,CHEMISTRY,0.94,mg/dL,0.1,1.2,0.94,0.94,mg/dL,0.1,1.2,NORMAL,,WEEK 1,3,2025-06-29,7
STUDY001,LB,STUDY001-SUBJ0003,29,L00029,ALP,Alkaline Phosphatase,CHEMISTRY,106.15,U/L,44.0,147.0,106.15,106.15,U/L,44.0,147.0,NORMAL,,WEEK 1,3,2025-06-29,7
STUDY001,LB,STUDY001-SUBJ0003,30,L00030,ALT,Alanine Aminotransferase,CHEMISTRY,45.6,U/L,7.0,56.0,45.6,45.6,U/L,7.0,56.0,NORMAL,,WEEK 1,3,2025-06-29,7
STUDY001,LB,STUDY001-SUBJ0003,31,L00031,HGB,Hemoglobin,HEMATOLOGY,13.42,g/dL,13.5,17.5,13.42,13.42,g/dL,13.5,17.5,LOW,,WEEK 2,4,2025-07-06,14
STUDY001,LB,STUDY001-SUBJ0003,32,L00032,HCT,Hematocrit,HEMATOLOGY,45.62,%,41.0,51.0,45.62,45.62,%,41.0,51.0,NORMAL,,WEEK 2,4,2025-07-06,14
STUDY001,LB,STUDY001-SUBJ0003,33,L00033,WBC,White Blood Cell Count,HEMATOLOGY,6.28,10^9/L,4.5,11.0,6.28,6.28,10^9/L,4.5,11.0,NORMAL,,WEEK 2,4,2025-07-06,14
STUDY001,LB,STUDY001-SUBJ0003,34,L00034,PLT,Platelet Count,HEMATOLOGY,284.86,10^9/L,150.0,450.0,284.86,284.86,10^9/L,150.0,450.0,NORMAL,,WEEK 2,4,2025-07-06,14
STUDY001,LB,STUDY001-SUBJ0003,35,L00035,GLUC,Glucose,CHEMISTRY,85.07,mg/dL,70.0,100.0,85.07,85.07,mg/dL,70.0,100.0,NORMAL,,WEEK 2,4,2025-07-06,14
STUDY001,LB,STUDY001-SUBJ0003,36,L00036,BUN,Blood Urea Nitrogen,CHEMISTRY,12.85,mg/dL,7.0,20.0,12.85,12.85,mg/dL,7.0,20.0,NORMAL,,WEEK 2,4,2025-07-06,14
STUDY001,LB,STUDY001-SUBJ0003,37,L00037,CREAT,Creatinine,CHEMISTRY,0.98,mg/dL,0.6,1.2,0.98,0.98,mg/dL,0.6,1.2,NORMAL,,WEEK 2,4,2025-07-06,14
STUDY001,LB,STUDY001-SUBJ0003,38,L00038,BILI,Total Bilirubin,CHEMISTRY,0.96,mg/dL,0.1,1.2,0.96,0.96,mg/dL,0.1,1.2,NORMAL,,WEEK 2,4,2025-07-06,14
STUDY001,LB,STUDY001-SUBJ0003,39,L00039,ALP,Alkaline Phosphatase,CHEMISTRY,103.48,U/L,44.0,147.0,103.48,103.48,U/L,44.0,147.0,NORMAL,,WEEK 2,4,2025-07-06,14
STUDY001,LB,STUDY001-SUBJ0003,40,L00040,ALT,Alanine Aminotransferase,CHEMISTRY,43.96,U/L,7.0,56.0,43.96,43.96,U/L,7.0,56.0,NORMAL,,WEEK 2,4,2025-07-06,14
STUDY001,LB,STUDY001-SUBJ0003,41,L00041,HGB,Hemoglobin,HEMATOLOGY,13.44,g/dL,13.5,17.5,13.44,13.44,g/dL,13.5,17.5,LOW,,WEEK 4,5,2025-07-20,28
STUDY001,LB,STUDY001-SUBJ0003,42,L00042,HCT,Hematocrit,HEMATOLOGY,46.17,%,41.0,51.0,46.17,46.17,%,41.0,51.0,NORMAL,,WEEK 4,5,2025-07-20,28
STUDY001,LB,STUDY001-SUBJ0003,43,L00043,WBC,White Blood Cell Count,HEMATOLOGY,6.09,10^9/L,4.5,11.0,6.09,6.09,10^9/L,4.5,11.0,NORMAL,,WEEK 4,5,2025-07-20,28
STUDY001,LB,STUDY001-SUBJ0003,44,L00044,PLT,Platelet Count,HEMATOLOGY,289.36,10^9/L,150.0,450.0,289.36,289.36,10^9/L,150.0,450.0,NORMAL,,WEEK 4,5,2025-07-20,28
STUDY001,LB,STUDY001-SUBJ0003,45,L00045,GLUC,Glucose,CHEMISTRY,88.03,mg/dL,70.0,100.0,88.03,88.03,mg/dL,70.0,100.0,NORMAL,,WEEK 4,5,2025-07-20,28
STUDY001,LB,STUDY001-SUBJ0003,46,L00046,BUN,Blood Urea Nitrogen,CHEMISTRY,12.89,mg/dL,7.0,20.0,12.89,12.89,mg/dL,7.0,20.0,NORMAL,,WEEK 4,5,2025-07-20,28
STUDY001,LB,STUDY001-SUBJ0003,47,L00047,CREAT,Creatinine,CHEMISTRY,1.0,mg/dL,0.6,1.2,1.0,1.0,mg/dL,0.6,1.2,NORMAL,,WEEK 4,5,2025-07-20,28
STUDY001,LB,STUDY001-SUBJ0003,48,L00048,BILI,Total Bilirubin,CHEMISTRY,0.96,mg/dL,0.1,1.2,0.96,0.96,mg/dL,0.1,1.2,NORMAL,,WEEK 4,5,2025-07-20,28
STUDY001,LB,STUDY001-SUBJ0003,49,L00049,ALP,Alkaline Phosphatase,CHEMISTRY,107.1,U/L,44.0,147.0,107.1,107.1,U/L,44.0,147.0,NORMAL,,WEEK 4,5,2025-07-20,28
STUDY001,LB,STUDY001-SUBJ0003,50,L00050,ALT,Alanine Aminotransferase,CHEMISTRY,41.52,U/L,7.0,56.0,41.52,41.52,U/L,7.0,56.0,NORMAL,,WEEK 4,5,2025-07-20,28
STUDY001,LB,STUDY001-SUBJ0003,51,L00051,HGB,Hemoglobin,HEMATOLOGY,13.44,g/dL,13.5,17.5,13.44,13.44,g/dL,13.5,17.5,LOW,,WEEK 8,6,2025-08-17,56
STUDY001,LB,STUDY001-SUBJ0003,52,L00052,HCT,Hematocrit,HEMATOLOGY,45.97,%,41.0,51.0,45.97,45.97,%,41.0,51.0,NORMAL,,WEEK 8,6,2025-08-17,56
STUDY001,LB,STUDY001-SUBJ0003,53,L00053,WBC,White Blood Cell Count,HEMATOLOGY,6.5,10^9/L,4.5,11.0,6.5,6.5,10^9/L,4.5,11.0,NORMAL,,WEEK 8,6,2025-08-17,56
STUDY001,LB,STUDY001-SUBJ0003,54,L00054,PLT,Platelet Count,HEMATOLOGY,289.02,10^9/L,150.0,450.0,289.02,289.02,10^9/L,150.0,450.0,NORMAL,,WEEK 8,6,2025-08-17,56
STUDY001,LB,STUDY001-SUBJ0003,55,L00055,GLUC,Glucose,CHEMISTRY,83.23,mg/dL,70.0,100.0,83.23,83.23,mg/dL,70.0,100.0,NORMAL,,WEEK 8,6,2025-08-17,56
STUDY001,LB,STUDY001-SUBJ0003,56,L00056,BUN,Blood Urea Nitrogen,CHEMISTRY,13.16,mg/dL,7.0,20.0,13.16,13.16,mg/dL,7.0,20.0,NORMAL,,WEEK 8,6,2025-08-17,56
STUDY001,LB,STUDY001-SUBJ0003,57,L00057,CREAT,Creatinine,CHEMISTRY,1.01,mg/dL,0.6,1.2,1.01,1.01,mg/dL,0.6,1.2,NORMAL,,WEEK 8,6,2025-08-17,56
STUDY001,LB,STUDY001-SUBJ0003,58,L00058,BILI,Total Bilirubin,CHEMISTRY,0.97,mg/dL,0.1,1.2,0.97,0.97,mg/dL,0.1,1.2,NORMAL,,WEEK 8,6,2025-08-17,56
STUDY001,LB,STUDY001-SUBJ0003,59,L00059,ALP,Alkaline Phosphatase,CHEMISTRY,105.79,U/L,44.0,147.0,105.79,105.79,U/L,44.0,147.0,NORMAL,,WEEK 8,6,2025-08-17,56
STUDY001,LB,STUDY001-SUBJ0003,60,L00060,ALT,Alanine Aminotransferase,CHEMISTRY,43.29,U/L,7.0,56.0,43.29,43.29,U/L,7.0,56.0,NORMAL,,WEEK 8,6,2025-08-17,56
STUDY001,LB,STUDY001-SUBJ0003,61,L00061,HGB,Hemoglobin,HEMATOLOGY,13.33,g/dL,13.5,17.5,13.33,13.33,g/dL,13.5,17.5,LOW,,WEEK 12,7,2025-09-14,84
STUDY001,LB,STUDY001-SUBJ0003,62,L00062,HCT,Hematocrit,HEMATOLOGY,45.71,%,41.0,51.0,45.71,45.71,%,41.0,51.0,NORMAL,,WEEK 12,7,2025-09-14,84
STUDY001,LB,STUDY001-SUBJ0003,63,L00063,WBC,White Blood Cell Count,HEMATOLOGY,6.53,10^9/L,4.5,11.0,6.53,6.53,10^9/L,4.5,11.0,NORMAL,,WEEK 12,7,2025-09-14,84
STUDY001,LB,STUDY001-SUBJ0003,64,L00064,PLT,Platelet Count,HEMATOLOGY,288.17,10^9/L,150.0,450.0,288.17,288.17,10^9/L,150.0,450.0,NORMAL,,WEEK 12,7,2025-09-14,84
STUDY001,LB,STUDY001-SUBJ0003,65,L00065,GLUC,Glucose,CHEMISTRY,84.48,mg/dL,70.0,100.0,84.48,84.48,mg/dL,70.0,100.0,NORMAL,,WEEK 12,7,2025-09-14,84
STUDY001,LB,STUDY001-SUBJ0003,66,L00066,BUN,Blood Urea Nitrogen,CHEMISTRY,13.22,mg/dL,7.0,20.0,13.22,13.22,mg/dL,7.0,20.0,NORMAL,,WEEK 12,7,2025-09-14,84
STUDY001,LB,STUDY001-SUBJ0003,67,L00067,CREAT,Creatinine,CHEMISTRY,1.02,mg/dL,0.6,1.2,1.02,1.02,mg/dL,0.6,1.2,NORMAL,,WEEK 12,7,2025-09-14,84
STUDY001,LB,STUDY001-SUBJ0003,68,L00068,BILI,Total Bilirubin,CHEMISTRY,0.95,mg/dL,0.1,1.2,0.95,0.95,mg/dL,0.1,1.2,NORMAL,,WEEK 12,7,2025-09-14,84
STUDY001,LB,STUDY001-SUBJ0003,69,L00069,ALP,Alkaline Phosphatase,CHEMISTRY,104.4,U/L,44.0,147.0,104.4,104.4,U/L,44.0,147.0,NORMAL,,WEEK 12,7,2025-09-14,84
STUDY001,LB,STUDY001-SUBJ0003,70,L00070,ALT,Alanine Aminotransferase,CHEMISTRY,41.92,U/L,7.0,56.0,41.92,41.92,U/L,7.0,56.0,NORMAL,,WEEK 12,7,2025-09-14,84
STUDY001,LB,STUDY001-SUBJ0003,71,L00071,HGB,Hemoglobin,HEMATOLOGY,13.27,g/dL,13.5,17.5,13.27,13.27,g/dL,13.5,17.5,LOW,,WEEK 16,8,2025-10-12,112
STUDY001,LB,STUDY001-SUBJ0003,72,L00072,HCT,Hematocrit,HEMATOLOGY,45.75,%,41.0,51.0,45.75,45.75,%,41.0,51.0,NORMAL,,WEEK 16,8,2025-10-12,112
STUDY001,LB,STUDY001-SUBJ0003,73,L00073,WBC,White Blood Cell Count,HEMATOLOGY,6.3,10^9/L,4.5,11.0,6.3,6.3,10^9/L,4.5,11.0,NORMAL,,WEEK 16,8,2025-10-12,112
STUDY001,LB,STUDY001-SUBJ0003,74,L00074,PLT,Platelet Count,HEMATOLOGY,283.84,10^9/L,150.0,450.0,283.84,283.84,10^9/L,150.0,450.0,NORMAL,,WEEK 16,8,2025-10-12,112
STUDY001,LB,STUDY001-SUBJ0003,75,L00075,GLUC,Glucose,CHEMISTRY,85.31,mg/dL,70.0,100.0,85.31,85.31,mg/dL,70.0,100.0,NORMAL,,WEEK 16,8,2025-10-12,112
STUDY001,LB,STUDY001-SUBJ0003,76,L00076,BUN,Blood Urea Nitrogen,CHEMISTRY,13.15,mg/dL,7.0,20.0,13.15,13.15,mg/dL,7.0,20.0,NORMAL,,WEEK 16,8,2025-10-12,112
STUDY001,LB,STUDY001-SUBJ0003,77,L00077,CREAT,Creatinine,CHEMISTRY,1.02,mg/dL,0.6,1.2,1.02,1.02,mg/dL,0.6,1.2,NORMAL,,WEEK 16,8,2025-10-12,112
STUDY001,LB,STUDY001-SUBJ0003,78,L00078,BILI,Total Bilirubin,CHEMISTRY,0.94,mg/dL,0.1,1.2,0.94,0.94,mg/dL,0.1,1.2,NORMAL,,WEEK 16,8,2025-10-12,112
STUDY001,LB,STUDY001-SUBJ0003,79,L00079,ALP,Alkaline Phosphatase,CHEMISTRY,105.26,U/L,44.0,147.0,105.26,105.26,U/L,44.0,147.0,NORMAL,,WEEK 16,8,2025-10-12,112
STUDY001,LB,STUDY001-SUBJ0003,80,L00080,ALT,Alanine Aminotransferase,CHEMISTRY,43.67,U/L,7.0,56.0,43.67,43.67,U/L,7.0,56.0,NORMAL,,WEEK 16,8,2025-10-12,112
STUDY001,LB,STUDY001-SUBJ0003,81,L00081,HGB,Hemoglobin,HEMATOLOGY,13.39,g/dL,13.5,17.5,13.39,13.39,g/dL,13.5,17.5,LOW,,END OF TREATMENT,9,2025-11-09,140
STUDY001,LB,STUDY001-SUBJ0003,82,L00082,HCT,Hematocrit,HEMATOLOGY,45.66,%,41.0,51.0,45.66,45.66,%,41.0,51.0,NORMAL,,END OF TREATMENT,9,2025-11-09,140
STUDY001,LB,STUDY001-SUBJ0003,83,L00083,WBC,White Blood Cell Count,HEMATOLOGY,6.04,10^9/L,4.5,11.0,6.04,6.04,10^9/L,4.5,11.0,NORMAL,,END OF TREATMENT,9,2025-11-09,140
STUDY001,LB,STUDY001-SUBJ0003,84,L00084,PLT,Platelet Count,HEMATOLOGY,278.05,10^9/L,150.0,450.0,278.05,278.05,10^9/L,150.0,450.0,NORMAL,,END OF TREATMENT,9,2025-11-09,140
STUDY001,LB,STUDY001-SUBJ0003,85,L00085,GLUC,Glucose,CHEMISTRY,85.22,mg/dL,70.0,100.0,85.22,85.22,mg/dL,70.0,100.0,NORMAL,,END OF TREATMENT,9,2025-11-09,140
STUDY001,LB,STUDY001-SUBJ0003,86,L00086,BUN,Blood Urea Nitrogen,CHEMISTRY,12.81,mg/dL,7.0,20.0,12.81,12.81,mg/dL,7.0,20.0,NORMAL,,END OF TREATMENT,9,2025-11-09,140
STUDY001,LB,STUDY001-SUBJ0003,87,L00087,CREAT,Creatinine,CHEMISTRY,1.02,mg/dL,0.6,1.2,1.02,1.02,mg/dL,0.6,1.2,NORMAL,,END OF TREATMENT,9,2025-11-09,140
STUDY001,LB,STUDY001-SUBJ0003,88,L00088,BILI,Total Bilirubin,CHEMISTRY,0.98,mg/dL,0.1,1.2,0.98,0.98,mg/dL,0.1,1.2,NORMAL,,END OF TREATMENT,9,2025-11-09,140
STUDY001,LB,STUDY001-SUBJ0003,89,L00089,ALP,Alkaline Phosphatase,CHEMISTRY,106.02,U/L,44.0,147.0,106.02,106.02,U/L,44.0,147.0,NORMAL,,END OF TREATMENT,9,2025-11-09,140
STUDY001,LB,STUDY001-SUBJ0003,90,L00090,ALT,Alanine Aminotransferase,CHEMISTRY,43.82,U/L,7.0,56.0,43.82,43.82,U/L,7.0,56.0,NORMAL,,END OF TREATMENT,9,2025-11-09,140
STUDY001,LB,STUDY001-SUBJ0004,1,L00001,HGB,Hemoglobin,HEMATOLOGY,13.77,g/dL,13.5,17.5,13.77,13.77,g/dL,13.5,17.5,NORMAL,,SCREENING,1,2025-05-05,-14
STUDY001,LB,STUDY001-SUBJ0004,2,L00002,HCT,Hematocrit,HEMATOLOGY,47.12,%,41.0,51.0,47.12,47.12,%,41.0,51.0,NORMAL,,SCREENING,1,2025-05-05,-14
STUDY001,LB,STUDY001-SUBJ0004,3,L00003,WBC,White Blood Cell Count,HEMATOLOGY,5.95,10^9/L,4.5,11.0,5.95,5.95,10^9/L,4.5,11.0,NORMAL,,SCREENING,1,2025-05-05,-14
STUDY001,LB,STUDY001-SUBJ0004,4,L00004,PLT,Platelet Count,HEMATOLOGY,249.92,10^9/L,150.0,450.0,249.92,249.92,10^9/L,150.0,450.0,NORMAL,,SCREENING,1,2025-05-05,-14
STUDY001,LB,STUDY001-SUBJ0004,5,L00005,GLUC,Glucose,CHEMISTRY,76.06,mg/dL,70.0,100.0,76.06,76.06,mg/dL,70.0,100.0,NORMAL,,SCREENING,1,2025-05-05,-14
STUDY001,LB,STUDY001-SUBJ0004,6,L00006,BUN,Blood Urea Nitrogen,CHEMISTRY,16.99,mg/dL,7.0,20.0,16.99,16.99,mg/dL,7.0,20.0,NORMAL,,SCREENING,1,2025-05-05,-14
STUDY001,LB,STUDY001-SUBJ0004,7,L00007,CREAT,Creatinine,CHEMISTRY,0.74,mg/dL,0.6,1.2,0.74,0.74,mg/dL,0.6,1.2,NORMAL,,SCREENING,1,2025-05-05,-14
STUDY001,LB,STUDY001-SUBJ0004,8,L00008,BILI,Total Bilirubin,CHEMISTRY,0.8,mg/dL,0.1,1.2,0.8,0.8,mg/dL,0.1,1.2,NORMAL,,SCREENING,1,2025-05-05,-14
STUDY001,LB,STUDY001-SUBJ0004,9,L00009,ALP,Alkaline Phosphatase,CHEMISTRY,111.5,U/L,44.0,147.0,111.5,111.5,U/L,44.0,147.0,NORMAL,,SCREENING,1,2025-05-05,-14
STUDY001,LB,STUDY001-SUBJ0004,10,L00010,ALT,Alanine Aminotransferase,CHEMISTRY,36.15,U/L,7.0,56.0,36.15,36.15,U/L,7.0,56.0,NORMAL,,SCREENING,1,2025-05-05,-14
STUDY001,LB,STUDY001-SUBJ0004,11,L00011,HGB,Hemoglobin,HEMATOLOGY,13.65,g/dL,13.5,17.5,13.65,13.65,g/dL,13.5,17.5,NORMAL,Y,BASELINE,2,2025-05-19,1
STUDY001,LB,STUDY001-SUBJ0004,12,L00012,HCT,Hematocrit,HEMATOLOGY,47.27,%,41.0,51.0,47.27,47.27,%,41.0,51.0,NORMAL,Y,BASELINE,2,2025-05-19,1
STUDY001,LB,STUDY001-SUBJ0004,13,L00013,WBC,White Blood Cell Count,HEMATOLOGY,5.97,10^9/L,4.5,11.0,5.97,5.97,10^9/L,4.5,11.0,NORMAL,Y,BASELINE,2,2025-05-19,1
STUDY001,LB,STUDY001-SUBJ0004,14,L00014,PLT,Platelet Count,HEMATOLOGY,259.41,10^9/L,150.0,450.0,259.41,259.41,10^9/L,150.0,450.0,NORMAL,Y,BASELINE,2,2025-05-19,1
STUDY001,LB,STUDY001-SUBJ0004,15,L00015,GLUC,Glucose,CHEMISTRY,74.72,mg/dL,70.0,100.0,74.72,74.72,mg/dL,70.0,100.0,NORMAL,Y,BASELINE,2,2025-05-19,1
STUDY001,LB,STUDY001-SUBJ0004,16,L00016,BUN,Blood Urea Nitrogen,CHEMISTRY,16.6,mg/dL,7.0,20.0,16.6,16.6,mg/dL,7.0,20.0,NORMAL,Y,BASELINE,2,2025-05-19,1
STUDY001,LB,STUDY001-SUBJ0004,17,L00017,CREAT,Creatinine,CHEMISTRY,0.75,mg/dL,0.6,1.2,0.75,0.75,mg/dL,0.6,1.2,NORMAL,Y,BASELINE,2,2025-05-19,1
STUDY001,LB,STUDY001-SUBJ0004,18,L00018,BILI,Total Bilirubin,CHEMISTRY,0.75,mg/dL,0.1,1.2,0.75,0.75,mg/dL,0.1,1.2,NORMAL,Y,BASELINE,2,2025-05-19,1
STUDY001,LB,STUDY001-SUBJ0004,19,L00019,ALP,Alkaline Phosphatase,CHEMISTRY,111.2,U/L,44.0,147.0,111.2,111.2,U/L,44.0,147.0,NORMAL,Y,BASELINE,2,2025-05-19,1
STUDY001,LB,STUDY001-SUBJ0004,20,L00020,ALT,Alanine Aminotransferase,CHEMISTRY,36.12,U/L,7.0,56.0,36.12,36.12,U/L,7.0,56.0,NORMAL,Y,BASELINE,2,2025-05-19,1
STUDY001,LB,STUDY001-SUBJ0004,21,L00021,HGB,Hemoglobin,HEMATOLOGY,13.93,g/dL,13.5,17.5,13.93,13.93,g/dL,13.5,17.5,NORMAL,,WEEK 1,3,2025-05-25,7
STUDY001,LB,STUDY001-SUBJ0004,22,L00022,HCT,Hematocrit,HEMATOLOGY,46.92,%,41.0,51.0,46.92,46.92,%,41.0,51.0,NORMAL,,WEEK 1,3,2025-05-25,7
STUDY001,LB,STUDY001-SUBJ0004,23,L00023,WBC,White Blood Cell Count,HEMATOLOGY,6.14,10^9/L,4.5,11.0,6.14,6.14,10^9/L,4.5,11.0,NORMAL,,WEEK 1,3,2025-05-25,7
STUDY001,LB,STUDY001-SUBJ0004,24,L00024,PLT,Platelet Count,HEMATOLOGY,248.0,10^9/L,150.0,450.0,248.0,248.0,10^9/L,150.0,450.0,NORMAL,,WEEK 1,3,2025-05-25,7
STUDY001,LB,STUDY001-SUBJ0004,25,L00025,GLUC,Glucose,CHEMISTRY,75.93,mg/dL,70.0,100.0,75.93,75.93,mg/dL,70.0,100.0,NORMAL,,WEEK 1,3,2025-05-25,7
STUDY001,LB,STUDY001-SUBJ0004,26,L00026,BUN,Blood Urea Nitrogen,CHEMISTRY,16.33,mg/dL,7.0,20.0,16.33,16.33,mg/dL,7.0,20.0,NORMAL,,WEEK 1,3,2025-05-25,7
STUDY001,LB,STUDY001-SUBJ0004,27,L00027,CREAT,Creatinine,CHEMISTRY,0.75,mg/dL,0.6,1.2,0.75,0.75,mg/dL,0.6,1.2,NORMAL,,WEEK 1,3,2025-05-25,7
STUDY001,LB,STUDY001-SUBJ0004,28,L00028,BILI,Total Bilirubin,CHEMISTRY,0.78,mg/dL,0.1,1.2,0.78,0.78,mg/dL,0.1,1.2,NORMAL,,WEEK 1,3,2025-05-25,7
STUDY001,LB,STUDY001-SUBJ0004,29,L00029,ALP,Alkaline Phosphatase,CHEMISTRY,112.32,U/L,44.0,147.0,112.32,112.32,U/L,44.0,147.0,NORMAL,,WEEK 1,3,2025-05-25,7
STUDY001,LB,STUDY001-SUBJ0004,30,L00030,ALT,Alanine Aminotransferase,CHEMISTRY,36.44,U/L,7.0,56.0,36.44,36.44,U/L,7.0,56.0,NORMAL,,WEEK 1,3,2025-05-25,7
STUDY001,LB,STUDY001-SUBJ0004,31,L00031,HGB,Hemoglobin,HEMATOLOGY,13.71,g/dL,13.5,17.5,13.71,13.71,g/dL,13.5,17.5,NORMAL,,WEEK 2,4,2025-06-01,14
STUDY001,LB,STUDY001-SUBJ0004,32,L00032,HCT,Hematocrit,HEMATOLOGY,47.2,%,41.0,51.0,47.2,47.2,%,41.0,51.0,NORMAL,,WEEK 2,4,2025-06-01,14
STUDY001,LB,STUDY001-SUBJ0004,33,L00033,WBC,White Blood Cell Count,HEMATOLOGY,5.87,10^9/L,4.5,11.0,5.87,5.87,10^9/L,4.5,11.0,NORMAL,,WEEK 2,4,2025-06-01,14
STUDY001,LB,STUDY001-SUBJ0004,34,L00034,PLT,Platelet Count,HEMATOLOGY,257.38,10^9/L,150.0,450.0,257.38,257.38,10^9/L,150.0,450.0,NORMAL,,WEEK 2,4,2025-06-01,14
STUDY001,LB,STUDY001-SUBJ0004,35,L00035,GLUC,Glucose,CHEMISTRY,77.02,mg/dL,70.0,100.0,77.02,77.02,mg/dL,70.0,100.0,NORMAL,,WEEK 2,4,2025-06-01,14
STUDY001,LB,STUDY001-SUBJ0004,36,L00036,BUN,Blood Urea Nitrogen,CHEMISTRY,16.42,mg/dL,7.0,20.0,16.42,16.42,mg/dL,7.0,20.0,NORMAL,,WEEK 2,4,2025-06-01,14
STUDY001,LB,STUDY001-SUBJ0004,37,L00037,CREAT,Creatinine,CHEMISTRY,0.76,mg/dL,0.6,1.2,0.76,0.76,mg/dL,0.6,1.2,NORMAL,,WEEK 2,4,2025-06-01,14
STUDY001,LB,STUDY001-SUBJ0004,38,L00038,BILI,Total Bilirubin,CHEMISTRY,0.8,mg/dL,0.1,1.2,0.8,0.8,mg/dL,0.1,1.2,NORMAL,,WEEK 2,4,2025-06-01,14
STUDY001,LB,STUDY001-SUBJ0004,39,L00039,ALP,Alkaline Phosphatase,CHEMISTRY,110.79,U/L,44.0,147.0,110.79,110.79,U/L,44.0,147.0,NORMAL,,WEEK 2,4,2025-06-01,14
STUDY001,LB,STUDY001-SUBJ0004,40,L00040,ALT,Alanine Aminotransferase,CHEMISTRY,36.31,U/L,7.0,56.0,36.31,36.31,U/L,7.0,56.0,NORMAL,,WEEK 2,4,2025-06-01,14
STUDY001,LB,STUDY001-SUBJ0004,41,L00041,HGB,Hemoglobin,HEMATOLOGY,13.98,g/dL,13.5,17.5,13.98,13.98,g/dL,13.5,17.5,NORMAL,,WEEK 4,5,2025-06-15,28
STUDY001,LB,STUDY001-SUBJ0004,42,L00042,HCT,Hematocrit,HEMATOLOGY,47.34,%,41.0,51.0,47.34,47.34,%,41.0,51.0,NORMAL,,WEEK 4,5,2025-06-15,28
STUDY001,LB,STUDY001-SUBJ0004,43,L00043,WBC,White Blood Cell Count,HEMATOLOGY,5.85,10^9/L,4.5,11.0,5.85,5.85,10^9/L,4.5,11.0,NORMAL,,WEEK 4,5,2025-06-15,28
STUDY001,LB,STUDY001-SUBJ0004,44,L00044,PLT,Platelet Count,HEMATOLOGY,260.26,10^9/L,150.0,450.0,260.26,260.26,10^9/L,150.0,450.0,NORMAL,,WEEK 4,5,2025-06-15,28
STUDY001,LB,STUDY001-SUBJ0004,45,L00045,GLUC,Glucose,CHEMISTRY,75.84,mg/dL,70.0,100.0,75.84,75.84,mg/dL,70.0,100.0,NORMAL,,WEEK 4,5,2025-06-15,28
STUDY001,LB,STUDY001-SUBJ0004,46,L00046,BUN,Blood Urea Nitrogen,CHEMISTRY,17.08,mg/dL,7.0,20.0,17.08,17.08,mg/dL,7.0,20.0,NORMAL,,WEEK 4,5,2025-06-15,28
STUDY001,LB,STUDY001-SUBJ0004,47,L00047,CREAT,Creatinine,CHEMISTRY,0.73,mg/dL,0.6,1.2,0.73,0.73,mg/dL,0.6,1.2,NORMAL,,WEEK 4,5,2025-06-15,28
STUDY001,LB,STUDY001-SUBJ0004,48,L00048,BILI,Total Bilirubin,CHEMISTRY,0.76,mg/dL,0.1,1.2,0.76,0.76,mg/dL,0.1,1.2,NORMAL,,WEEK 4,5,2025-06-15,28
STUDY001,LB,STUDY001-SUBJ0004,49,L00049,ALP,Alkaline Phosphatase,CHEMISTRY,112.68,U/L,44.0,147.0,112.68,112.68,U/L,44.0,147.0,NORMAL,,WEEK 4,5,2025-06-15,28
STUDY001,LB,STUDY001-SUBJ0004,50,L00050,ALT,Alanine Aminotransferase,CHEMISTRY,36.93,U/L,7.0,56.0,36.93,36.93,U/L,7.0,56.0,NORMAL,,WEEK 4,5,2025-06-15,28
STUDY001,LB,STUDY001-SUBJ0004,51,L00051,HGB,Hemoglobin,HEMATOLOGY,13.76,g/dL,13.5,17.5,13.76,13.76,g/dL,13.5,17.5,NORMAL,,WEEK 8,6,2025-07-13,56
STUDY001,LB,STUDY001-SUBJ0004,52,L00052,HCT,Hematocrit,HEMATOLOGY,47.8,%,41.0,51.0,47.8,47.8,%,41.0,51.0,NORMAL,,WEEK 8,6,2025-07-13,56
STUDY001,LB,STUDY001-SUBJ0004,53,L00053,WBC,White Blood Cell Count,HEMATOLOGY,6.01,10^9/L,4.5,11.0,6.01,6.01,10^9/L,4.5,11.0,NORMAL,,WEEK 8,6,2025-07-13,56
STUDY001,LB,STUDY001-SUBJ0004,54,L00054,PLT,Platelet Count,HEMATOLOGY,262.79,10^9/L,150.0,450.0,262.79,262.79,10^9/L,150.0,450.0,NORMAL,,WEEK 8,6,2025-07-13,56
STUDY001,LB,STUDY001-SUBJ0004,55,L00055,GLUC,Glucose,CHEMISTRY,73.89,mg/dL,70.0,100.0,73.89,73.89,mg/dL,70.0,100.0,NORMAL,,WEEK 8,6,2025-07-13,56
STUDY001,LB,STUDY001-SUBJ0004,56,L00056,BUN,Blood Urea Nitrogen,CHEMISTRY,16.89,mg/dL,7.0,20.0,16.89,16.89,mg/dL,7.0,20.0,NORMAL,,WEEK 8,6,2025-07-13,56
STUDY001,LB,STUDY001-SUBJ0004,57,L00057,CREAT,Creatinine,CHEMISTRY,0.75,mg/dL,0.6,1.2,0.75,0.75,mg/dL,0.6,1.2,NORMAL,,WEEK 8,6,2025-07-13,56
STUDY001,LB,STUDY001-SUBJ0004,58,L00058,BILI,Total Bilirubin,CHEMISTRY,0.77,mg/dL,0.1,1.2,0.77,0.77,mg/dL,0.1,1.2,NORMAL,,WEEK 8,6,2025-07-13,56
STUDY001,LB,STUDY001-SUBJ0004,59,L00059,ALP,Alkaline Phosphatase,CHEMISTRY,112.42,U/L,44.0,147.0,112.42,112.42,U/L,44.0,147.0,NORMAL,,WEEK 8,6,2025-07-13,56
STUDY001,LB,STUDY001-SUBJ0004,60,L00060,ALT,Alanine Aminotransferase,CHEMISTRY,35.72,U/L,7.0,56.0,35.72,35.72,U/L,7.0,56.0,NORMAL,,WEEK 8,6,2025-07-13,56
STUDY001,LB,STUDY001-SUBJ0004,61,L00061,HGB,Hemoglobin,HEMATOLOGY,13.71,g/dL,13.5,17.5,13.71,13.71,g/dL,13.5,17.5,NORMAL,,WEEK 12,7,2025-08-10,84
STUDY001,LB,STUDY001-SUBJ0004,62,L00062,HCT,Hematocrit,HEMATOLOGY,47.33,%,41.0,51.0,47.33,47.33,%,41.0,51.0,NORMAL,,WEEK 12,7,2025-08-10,84
STUDY001,LB,STUDY001-SUBJ0004,63,L00063,WBC,White Blood Cell Count,HEMATOLOGY,6.13,10^9/L,4.5,11.0,6.13,6.13,10^9/L,4.5,11.0,NORMAL,,WEEK 12,7,2025-08-10,84
STUDY001,LB,STUDY001-SUBJ0004,64,L00064,PLT,Platelet Count,HEMATOLOGY,254.23,10^9/L,150.0,450.0,254.23,254.23,10^9/L,150.0,450.0,NORMAL,,WEEK 12,7,2025-08-10,84
STUDY001,LB,STUDY001-SUBJ0004,65,L00065,GLUC,Glucose,CHEMISTRY,77.09,mg/dL,70.0,100.0,77.09,77.09,mg/dL,70.0,100.0,NORMAL,,WEEK 12,7,2025-08-10,84
STUDY001,LB,STUDY001-SUBJ0004,66,L00066,BUN,Blood Urea Nitrogen,CHEMISTRY,16.95,mg/dL,7.0,20.0,16.95,16.95,mg/dL,7.0,20.0,NORMAL,,WEEK 12,7,2025-08-10,84
STUDY001,LB,STUDY001-SUBJ0004,67,L00067,CREAT,Creatinine,CHEMISTRY,0.71,mg/dL,0.6,1.2,0.71,0.71,mg/dL,0.6,1.2,NORMAL,,WEEK 12,7,2025-08-10,84
STUDY001,LB,STUDY001-SUBJ0004,68,L00068,BILI,Total Bilirubin,CHEMISTRY,0.77,mg/dL,0.1,1.2,0.77,0.77,mg/dL,0.1,1.2,NORMAL,,WEEK 12,7,2025-08-10,84
STUDY001,LB,STUDY001-SUBJ0004,69,L00069,ALP,Alkaline Phosphatase,CHEMISTRY,108.66,U/L,44.0,147.0,108.66,108.66,U/L,44.0,147.0,NORMAL,,WEEK 12,7,2025-08-10,84
STUDY001,LB,STUDY001-SUBJ0004,70,L00070,ALT,Alanine Aminotransferase,CHEMISTRY,36.74,U/L,7.0,56.0,36.74,36.74,U/L,7.0,56.0,NORMAL,,WEEK 12,7,2025-08-10,84
STUDY001,LB,STUDY001-SUBJ0004,71,L00071,HGB,Hemoglobin,HEMATOLOGY,13.88,g/dL,13.5,17.5,13.88,13.88,g/dL,13.5,17.5,NORMAL,,WEEK 16,8,2025-09-07,112
STUDY001,LB,STUDY001-SUBJ0004,72,L00072,HCT,Hematocrit,HEMATOLOGY,46.72,%,41.0,51.0,46.72,46.72,%,41.0,51.0,NORMAL,,WEEK 16,8,2025-09-07,112
STUDY001,LB,STUDY001-SUBJ0004,73,L00073,WBC,White Blood Cell Count,HEMATOLOGY,6.02,10^9/L,4.5,11.0,6.02,6.02,10^9/L,4.5,11.0,NORMAL,,WEEK 16,8,2025-09-07,112
STUDY001,LB,STUDY001-SUBJ0004,74,L00074,PLT,Platelet Count,HEMATOLOGY,253.29,10^9/L,150.0,450.0,253.29,253.29,10^9/L,150.0,450.0,NORMAL,,WEEK 16,8,2025-09-07,112
STUDY001,LB,STUDY001-SUBJ0004,75,L00075,GLUC,Glucose,CHEMISTRY,75.66,mg/dL,70.0,100.0,75.66,75.66,mg/dL,70.0,100.0,NORMAL,,WEEK 16,8,2025-09-07,112
STUDY001,LB,STUDY001-SUBJ0004,76,L00076,BUN,Blood Urea Nitrogen,CHEMISTRY,16.73,mg/dL,7.0,20.0,16.73,16.73,mg/dL,7.0,20.0,NORMAL,,WEEK 16,8,2025-09-07,112
STUDY001,LB,STUDY001-SUBJ0004,77,L00077,CREAT,Creatinine,CHEMISTRY,0.78,mg/dL,0.6,1.2,0.78,0.78,mg/dL,0.6,1.2,NORMAL,,WEEK 16,8,2025-09-07,112
STUDY001,LB,STUDY001-SUBJ0004,78,L00078,BILI,Total Bilirubin,CHEMISTRY,0.77,mg/dL,0.1,1.2,0.77,0.77,mg/dL,0.1,1.2,NORMAL,,WEEK 16,8,2025-09-07,112
STUDY001,LB,STUDY001-SUBJ0004,79,L00079,ALP,Alkaline Phosphatase,CHEMISTRY,112.81,U/L,44.0,147.0,112.81,112.81,U/L,44.0,147.0,NORMAL,,WEEK 16,8,2025-09-07,112
STUDY001,LB,STUDY001-SUBJ0004,80,L00080,ALT,Alanine Aminotransferase,CHEMISTRY,36.24,U/L,7.0,56.0,36.24,36.24,U/L,7.0,56.0,NORMAL,,WEEK 16,8,2025-09-07,112
STUDY001,LB,STUDY001-SUBJ0004,81,L00081,HGB,Hemoglobin,HEMATOLOGY,13.51,g/dL,13.5,17.5,13.51,13.51,g/dL,13.5,17.5,NORMAL,,END OF TREATMENT,9,2025-10-05,140
STUDY001,LB,STUDY001-SUBJ0004,82,L00082,HCT,Hematocrit,HEMATOLOGY,47.17,%,41.0,51.0,47.17,47.17,%,41.0,51.0,NORMAL,,END OF TREATMENT,9,2025-10-05,140
STUDY001,LB,STUDY001-SUBJ0004,83,L00083,WBC,White Blood Cell Count,HEMATOLOGY,6.07,10^9/L,4.5,11.0,6.07,6.07,10^9/L,4.5,11.0,NORMAL,,END OF TREATMENT,9,2025-10-05,140
STUDY001,LB,STUDY001-SUBJ0004,84,L00084,PLT,Platelet Count,HEMATOLOGY,256.54,10^9/L,150.0,450.0,256.54,256.54,10^9/L,150.0,450.0,NORMAL,,END OF TREATMENT,9,2025-10-05,140
STUDY001,LB,STUDY001-SUBJ0004,85,L00085,GLUC,Glucose,CHEMISTRY,75.09,mg/dL,70.0,100.0,75.09,75.09,mg/dL,70.0,100.0,NORMAL,,END OF TREATMENT,9,2025-10-05,140
STUDY001,LB,STUDY001-SUBJ0004,86,L00086,BUN,Blood Urea Nitrogen,CHEMISTRY,16.82,mg/dL,7.0,20.0,16.82,16.82,mg/dL,7.0,20.0,NORMAL,,END OF TREATMENT,9,2025-10-05,140
STUDY001,LB,STUDY001-SUBJ0004,87,L00087,CREAT,Creatinine,CHEMISTRY,0.73,mg/dL,0.6,1.2,0.73,0.73,mg/dL,0.6,1.2,NORMAL,,END OF TREATMENT,9,2025-10-05,140
STUDY001,LB,STUDY001-SUBJ0004,88,L00088,BILI,Total Bilirubin,CHEMISTRY,0.77,mg/dL,0.1,1.2,0.77,0.77,mg/dL,0.1,1.2,NORMAL,,END OF TREATMENT,9,2025-10-05,140
STUDY001,LB,STUDY001-SUBJ0004,89,L00089,ALP,Alkaline Phosphatase,CHEMISTRY,106.16,U/L,44.0,147.0,106.16,106.16,U/L,44.0,147.0,NORMAL,,END OF TREATMENT,9,2025-10-05,140
STUDY001,LB,STUDY001-SUBJ0004,90,L00090,ALT,Alanine Aminotransferase,CHEMISTRY,38.91,U/L,7.0,56.0,38.91,38.91,U/L,7.0,56.0,NORMAL,,END OF TREATMENT,9,2025-10-05,140
STUDY001,LB,STUDY001-SUBJ0005,1,L00001,HGB,Hemoglobin,HEMATOLOGY,15.22,g/dL,13.5,17.5,15.22,15.22,g/dL,13.5,17.5,NORMAL,,SCREENING,1,2024-11-13,-14
STUDY001,LB,STUDY001-SUBJ0005,2,L00002,HCT,Hematocrit,HEMATOLOGY,45.65,%,41.0,51.0,45.65,45.65,%,41.0,51.0,NORMAL,,SCREENING,1,2024-11-13,-14
STUDY001,LB,STUDY001-SUBJ0005,3,L00003,WBC,White Blood Cell Count,HEMATOLOGY,6.74,10^9/L,4.5,11.0,6.74,6.74,10^9/L,4.5,11.0,NORMAL,,SCREENING,1,2024-11-13,-14
STUDY001,LB,STUDY001-SUBJ0005,4,L00004,PLT,Platelet Count,HEMATOLOGY,294.99,10^9/L,150.0,450.0,294.99,294.99,10^9/L,150.0,450.0,NORMAL,,SCREENING,1,2024-11-13,-14
STUDY001,LB,STUDY001-SUBJ0005,5,L00005,GLUC,Glucose,CHEMISTRY,104.11,mg/dL,70.0,100.0,104.11,104.11,mg/dL,70.0,100.0,HIGH,,SCREENING,1,2024-11-13,-14
STUDY001,LB,STUDY001-SUBJ0005,6,L00006,BUN,Blood Urea Nitrogen,CHEMISTRY,12.37,mg/dL,7.0,20.0,12.37,12.37,mg/dL,7.0,20.0,NORMAL,,SCREENING,1,2024-11-13,-14
STUDY001,LB,STUDY001-SUBJ0005,7,L00007,CREAT,Creatinine,CHEMISTRY,1.07,mg/dL,0.6,1.2,1.07,1.07,mg/dL,0.6,1.2,NORMAL,,SCREENING,1,2024-11-13,-14
STUDY001,LB,STUDY001-SUBJ0005,8,L00008,BILI,Total Bilirubin,CHEMISTRY,0.58,mg/dL,0.1,1.2,0.58,0.58,mg/dL,0.1,1.2,NORMAL,,SCREENING,1,2024-11-13,-14
STUDY001,LB,STUDY001-SUBJ0005,9,L00009,ALP,Alkaline Phosphatase,CHEMISTRY,113.42,U/L,44.0,147.0,113.42,113.42,U/L,44.0,147.0,NORMAL,,SCREENING,1,2024-11-13,-14
STUDY001,LB,STUDY001-SUBJ0005,10,L00010,ALT,Alanine Aminotransferase,CHEMISTRY,44.23,U/L,7.0,56.0,44.23,44.23,U/L,7.0,56.0,NORMAL,,SCREENING,1,2024-11-13,-14
STUDY001,LB,STUDY001-SUBJ0005,11,L00011,HGB,Hemoglobin,HEMATOLOGY,15.11,g/dL,13.5,17.5,15.11,15.11,g/dL,13.5,17.5,NORMAL,Y,BASELINE,2,2024-11-27,1
STUDY001,LB,STUDY001-SUBJ0005,12,L00012,HCT,Hematocrit,HEMATOLOGY,45.72,%,41.0,51.0,45.72,45.72,%,41.0,51.0,NORMAL,Y,BASELINE,2,2024-11-27,1
STUDY001,LB,STUDY001-SUBJ0005,13,L00013,WBC,White Blood Cell Count,HEMATOLOGY,6.3,10^9/L,4.5,11.0,6.3,6.3,10^9/L,4.5,11.0,NORMAL,Y,BASELINE,2,2024-11-27,1
STUDY001,LB,STUDY001-SUBJ0005,14,L00014,PLT,Platelet Count,HEMATOLOGY,293.12,10^9/L,150.0,450.0,293.12,293.12,10^9/L,150.0,450.0,NORMAL,Y,BASELINE,2,2024-11-27,1
STUDY001,LB,STUDY001-SUBJ0005,15,L00015,GLUC,Glucose,CHEMISTRY,104.07,mg/dL,70.0,100.0,104.07,104.07,mg/dL,70.0,100.0,HIGH,Y,BASELINE,2,2024-11-27,1
STUDY001,LB,STUDY001-SUBJ0005,16,L00016,BUN,Blood Urea Nitrogen,CHEMISTRY,12.44,mg/dL,7.0,20.0,12.44,12.44,mg/dL,7.0,20.0,NORMAL,Y,BASELINE,2,2024-11-27,1
STUDY001,LB,STUDY001-SUBJ0005,17,L00017,CREAT,Creatinine,CHEMISTRY,1.06,mg/dL,0.6,1.2,1.06,1.06,mg/dL,0.6,1.2,NORMAL,Y,BASELINE,2,2024-11-27,1
STUDY001,LB,STUDY001-SUBJ0005,18,L00018,BILI,Total Bilirubin,CHEMISTRY,0.55,mg/dL,0.1,1.2,0.55,0.55,mg/dL,0.1,1.2,NORMAL,Y,BASELINE,2,2024-11-27,1
STUDY001,LB,STUDY001-SUBJ0005,19,L00019,ALP,Alkaline Phosphatase,CHEMISTRY,116.88,U/L,44.0,147.0,116.88,116.88,U/L,44.0,147.0,NORMAL,Y,BASELINE,2,2024-11-27,1
STUDY001,LB,STUDY001-SUBJ0005,20,L00020,ALT,Alanine Aminotransferase,CHEMISTRY,43.29,U/L,7.0,56.0,43.29,43.29,U/L,7.0,56.0,NORMAL,Y,BASELINE,2,2024-11-27,1
STUDY001,LB,STUDY001-SUBJ0005,21,L00021,HGB,Hemoglobin,HEMATOLOGY,15.01,g/dL,13.5,17.5,15.01,15.01,g/dL,13.5,17.5,NORMAL,,WEEK 1,3,2024-12-03,7
STUDY001,LB,STUDY001-SUBJ0005,22,L00022,HCT,Hematocrit,HEMATOLOGY,45.77,%,41.0,51.0,45.77,45.77,%,41.0,51.0,NORMAL,,WEEK 1,3,2024-12-03,7
STUDY001,LB,STUDY001-SUBJ0005,23,L00023,WBC,White Blood Cell Count,HEMATOLOGY,6.61,10^9/L,4.5,11.0,6.61,6.61,10^9/L,4.5,11.0,NORMAL,,WEEK 1,3,2024-12-03,7
STUDY001,LB,STUDY001-SUBJ0005,24,L00024,PLT,Platelet Count,HEMATOLOGY,291.78,10^9/L,150.0,450.0,291.78,291.78,10^9/L,150.0,450.0,NORMAL,,WEEK 1,3,2024-12-03,7
STUDY001,LB,STUDY001-SUBJ0005,25,L00025,GLUC,Glucose,CHEMISTRY,105.06,mg/dL,70.0,100.0,105.06,105.06,mg/dL,70.0,100.0,HIGH,,WEEK 1,3,2024-12-03,7
STUDY001,LB,STUDY001-SUBJ0005,26,L00026,BUN,Blood Urea Nitrogen,CHEMISTRY,11.88,mg/dL,7.0,20.0,11.88,11.88,mg/dL,7.0,20.0,NORMAL,,WEEK 1,3,2024-12-03,7
STUDY001,LB,STUDY001-SUBJ0005,27,L00027,CREAT,Creatinine,CHEMISTRY,1.09,mg/dL,0.6,1.2,1.09,1.09,mg/dL,0.6,1.2,NORMAL,,WEEK 1,3,2024-12-03,7
STUDY001,LB,STUDY001-SUBJ0005,28,L00028,BILI,Total Bilirubin,CHEMISTRY,0.57,mg/dL,0.1,1.2,0.57,0.57,mg/dL,0.1,1.2,NORMAL,,WEEK 1,3,2024-12-03,7
STUDY001,LB,STUDY001-SUBJ0005,29,L00029,ALP,Alkaline Phosphatase,CHEMISTRY,116.46,U/L,44.0,147.0,116.46,116.46,U/L,44.0,147.0,NORMAL,,WEEK 1,3,2024-12-03,7
STUDY001,LB,STUDY001-SUBJ0005,30,L00030,ALT,Alanine Aminotransferase,CHEMISTRY,43.24,U/L,7.0,56.0,43.24,43.24,U/L,7.0,56.0,NORMAL,,WEEK 1,3,2024-12-03,7
STUDY001,LB,STUDY001-SUBJ0005,31,L00031,HGB,Hemoglobin,HEMATOLOGY,15.17,g/dL,13.5,17.5,15.17,15.17,g/dL,13.5,17.5,NORMAL,,WEEK 2,4,2024-12-10,14
STUDY001,LB,STUDY001-SUBJ0005,32,L00032,HCT,Hematocrit,HEMATOLOGY,45.45,%,41.0,51.0,45.45,45.45,%,41.0,51.0,NORMAL,,WEEK 2,4,2024-12-10,14
STUDY001,LB,STUDY001-SUBJ0005,33,L00033,WBC,White Blood Cell Count,HEMATOLOGY,6.4,10^9/L,4.5,11.0,6.4,6.4,10^9/L,4.5,11.0,NORMAL,,WEEK 2,4,2024-12-10,14
STUDY001,LB,STUDY001-SUBJ0005,34,L00034,PLT,Platelet Count,HEMATOLOGY,296.93,10^9/L,150.0,450.0,296.93,296.93,10^9/L,150.0,450.0,NORMAL,,WEEK 2,4,2024-12-10,14
STUDY001,LB,STUDY001-SUBJ0005,35,L00035,GLUC,Glucose,CHEMISTRY,105.91,mg/dL,70.0,100.0,105.91,105.91,mg/dL,70.0,100.0,HIGH,,WEEK 2,4,2024-12-10,14
STUDY001,LB,STUDY001-SUBJ0005,36,L00036,BUN,Blood Urea Nitrogen,CHEMISTRY,11.64,mg/dL,7.0,20.0,11.64,11.64,mg/dL,7.0,20.0,NORMAL,,WEEK 2,4,2024-12-10,14
STUDY001,LB,STUDY001-SUBJ0005,37,L00037,CREAT,Creatinine,CHEMISTRY,1.05,mg/dL,0.6,1.2,1.05,1.05,mg/dL,0.6,1.2,NORMAL,,WEEK 2,4,2024-12-10,14
STUDY001,LB,STUDY001-SUBJ0005,38,L00038,BILI,Total Bilirubin,CHEMISTRY,0.61,mg/dL,0.1,1.2,0.61,0.61,mg/dL,0.1,1.2,NORMAL,,WEEK 2,4,2024-12-10,14
STUDY001,LB,STUDY001-SUBJ0005,39,L00039,ALP,Alkaline Phosphatase,CHEMISTRY,115.71,U/L,44.0,147.0,115.71,115.71,U/L,44.0,147.0,NORMAL,,WEEK 2,4,2024-12-10,14
STUDY001,LB,STUDY001-SUBJ0005,40,L00040,ALT,Alanine Aminotransferase,CHEMISTRY,42.86,U/L,7.0,56.0,42.86,42.86,U/L,7.0,56.0,NORMAL,,WEEK 2,4,2024-12-10,14
STUDY001,LB,STUDY001-SUBJ0005,41,L00041,HGB,Hemoglobin,HEMATOLOGY,15.19,g/dL,13.5,17.5,15.19,15.19,g/dL,13.5,17.5,NORMAL,,WEEK 4,5,2024-12-24,28
STUDY001,LB,STUDY001-SUBJ0005,42,L00042,HCT,Hematocrit,HEMATOLOGY,45.79,%,41.0,51.0,45.79,45.79,%,41.0,51.0,NORMAL,,WEEK 4,5,2024-12-24,28
STUDY001,LB,STUDY001-SUBJ0005,43,L00043,WBC,White Blood Cell Count,HEMATOLOGY,6.57,10^9/L,4.5,11.0,6.57,6.57,10^9/L,4.5,11.0,NORMAL,,WEEK 4,5,2024-12-24,28
STUDY001,LB,STUDY001-SUBJ0005,44,L00044,PLT,Platelet Count,HEMATOLOGY,293.2,10^9/L,150.0,450.0,293.2,293.2,10^9/L,150.0,450.0,NORMAL,,WEEK 4,5,2024-12-24,28
STUDY001,LB,STUDY001-SUBJ0005,45,L00045,GLUC,Glucose,CHEMISTRY,105.4,mg/dL,70.0,100.0,105.4,105.4,mg/dL,70.0,100.0,HIGH,,WEEK 4,5,2024-12-24,28
STUDY001,LB,STUDY001-SUBJ0005,46,L00046,BUN,Blood Urea Nitrogen,CHEMISTRY,12.13,mg/dL,7.0,20.0,12.13,12.13,mg/dL,7.0,20.0,NORMAL,,WEEK 4,5,2024-12-24,28
STUDY001,LB,STUDY001-SUBJ0005,47,L00047,CREAT,Creatinine,CHEMISTRY,1.09,mg/dL,0.6,1.2,1.09,1.09,mg/dL,0.6,1.2,NORMAL,,WEEK 4,5,2024-12-24,28
STUDY001,LB,STUDY001-SUBJ0005,48,L00048,BILI,Total Bilirubin,CHEMISTRY,0.56,mg/dL,0.1,1.2,0.56,0.56,mg/dL,0.1,1.2,NORMAL,,WEEK 4,5,2024-12-24,28
STUDY001,LB,STUDY001-SUBJ0005,49,L00049,ALP,Alkaline Phosphatase,CHEMISTRY,113.32,U/L,44.0,147.0,113.32,113.32,U/L,44.0,147.0,NORMAL,,WEEK 4,5,2024-12-24,28
STUDY001,LB,STUDY001-SUBJ0005,50,L00050,ALT,Alanine Aminotransferase,CHEMISTRY,44.11,U/L,7.0,56.0,44.11,44.11,U/L,7.0,56.0,NORMAL,,WEEK 4,5,2024-12-24,28
STUDY001,LB,STUDY001-SUBJ0005,51,L00051,HGB,Hemoglobin,HEMATOLOGY,15.17,g/dL,13.5,17.5,15.17,15.17,g/dL,13.5,17.5,NORMAL,,WEEK 8,6,2025-01-21,56
STUDY001,LB,STUDY001-SUBJ0005,52,L00052,HCT,Hematocrit,HEMATOLOGY,45.69,%,41.0,51.0,45.69,45.69,%,41.0,51.0,NORMAL,,WEEK 8,6,2025-01-21,56
STUDY001,LB,STUDY001-SUBJ0005,53,L00053,WBC,White Blood Cell Count,HEMATOLOGY,6.66,10^9/L,4.5,11.0,6.66,6.66,10^9/L,4.5,11.0,NORMAL,,WEEK 8,6,2025-01-21,56
STUDY001,LB,STUDY001-SUBJ0005,54,L00054,PLT,Platelet Count,HEMATOLOGY,284.07,10^9/L,150.0,450.0,284.07,284.07,10^9/L,150.0,450.0,NORMAL,,WEEK 8,6,2025-01-21,56
STUDY001,LB,STUDY001-SUBJ0005,55,L00055,GLUC,Glucose,CHEMISTRY,103.83,mg/dL,70.0,100.0,103.83,103.83,mg/dL,70.0,100.0,HIGH,,WEEK 8,6,2025-01-21,56
STUDY001,LB,STUDY001-SUBJ0005,56,L00056,BUN,Blood Urea Nitrogen,CHEMISTRY,11.86,mg/dL,7.0,20.0,11.86,11.86,mg/dL,7.0,20.0,NORMAL,,WEEK 8,6,2025-01-21,56
STUDY001,LB,STUDY001-SUBJ0005,57,L00057,CREAT,Creatinine,CHEMISTRY,1.08,mg/dL,0.6,1.2,1.08,1.08,mg/dL,0.6,1.2,NORMAL,,WEEK 8,6,2025-01-21,56
STUDY001,LB,STUDY001-SUBJ0005,58,L00058,BILI,Total Bilirubin,CHEMISTRY,0.58,mg/dL,0.1,1.2,0.58,0.58,mg/dL,0.1,1.2,NORMAL,,WEEK 8,6,2025-01-21,56
STUDY001,LB,STUDY001-SUBJ0005,59,L00059,ALP,Alkaline Phosphatase,CHEMISTRY,116.11,U/L,44.0,147.0,116.11,116.11,U/L,44.0,147.0,NORMAL,,WEEK 8,6,2025-01-21,56
STUDY001,LB,STUDY001-SUBJ0005,60,L00060,ALT,Alanine Aminotransferase,CHEMISTRY,43.89,U/L,7.0,56.0,43.89,43.89,U/L,7.0,56.0,NORMAL,,WEEK 8,6,2025-01-21,56
STUDY001,LB,STUDY001-SUBJ0005,61,L00061,HGB,Hemoglobin,HEMATOLOGY,15.15,g/dL,13.5,17.5,15.15,15.15,g/dL,13.5,17.5,NORMAL,,WEEK 12,7,2025-02-18,84
STUDY001,LB,STUDY001-SUBJ0005,62,L00062,HCT,Hematocrit,HEMATOLOGY,45.65,%,41.0,51.0,45.65,45.65,%,41.0,51.0,NORMAL,,WEEK 12,7,2025-02-18,84
STUDY001,LB,STUDY001-SUBJ0005,63,L00063,WBC,White Blood Cell Count,HEMATOLOGY,6.72,10^9/L,4.5,11.0,6.72,6.72,10^9/L,4.5,11.0,NORMAL,,WEEK 12,7,2025-02-18,84
STUDY001,LB,STUDY001-SUBJ0005,64,L00064,PLT,Platelet Count,HEMATOLOGY,291.13,10^9/L,150.0,450.0,291.13,291.13,10^9/L,150.0,450.0,NORMAL,,WEEK 12,7,2025-02-18,84
STUDY001,LB,STUDY001-SUBJ0005,65,L00065,GLUC,Glucose,CHEMISTRY,106.26,mg/dL,70.0,100.0,106.26,106.26,mg/dL,70.0,100.0,HIGH,,WEEK 12,7,2025-02-18,84
STUDY001,LB,STUDY001-SUBJ0005,66,L00066,BUN,Blood Urea Nitrogen,CHEMISTRY,12.36,mg/dL,7.0,20.0,12.36,12.36,mg/dL,7.0,20.0,NORMAL,,WEEK 12,7,2025-02-18,84
STUDY001,LB,STUDY001-SUBJ0005,67,L00067,CREAT,Creatinine,CHEMISTRY,1.08,mg/dL,0.6,1.2,1.08,1.08,mg/dL,0.6,1.2,NORMAL,,WEEK 12,7,2025-02-18,84
STUDY001,LB,STUDY001-SUBJ0005,68,L00068,BILI,Total Bilirubin,CHEMISTRY,0.57,mg/dL,0.1,1.2,0.57,0.57,mg/dL,0.1,1.2,NORMAL,,WEEK 12,7,2025-02-18,84
STUDY001,LB,STUDY001-SUBJ0005,69,L00069,ALP,Alkaline Phosphatase,CHEMISTRY,115.55,U/L,44.0,147.0,115.55,115.55,U/L,44.0,147.0,NORMAL,,WEEK 12,7,2025-02-18,84
STUDY001,LB,STUDY001-SUBJ0005,70,L00070,ALT,Alanine Aminotransferase,CHEMISTRY,44.94,U/L,7.0,56.0,44.94,44.94,U/L,7.0,56.0,NORMAL,,WEEK 12,7,2025-02-18,84
STUDY001,LB,STUDY001-SUBJ0005,71,L00071,HGB,Hemoglobin,HEMATOLOGY,15.17,g/dL,13.5,17.5,15.17,15.17,g/dL,13.5,17.5,NORMAL,,WEEK 16,8,2025-03-18,112
STUDY001,LB,STUDY001-SUBJ0005,72,L00072,HCT,Hematocrit,HEMATOLOGY,46.21,%,41.0,51.0,46.21,46.21,%,41.0,51.0,NORMAL,,WEEK 16,8,2025-03-18,112
STUDY001,LB,STUDY001-SUBJ0005,73,L00073,WBC,White Blood Cell Count,HEMATOLOGY,6.47,10^9/L,4.5,11.0,6.47,6.47,10^9/L,4.5,11.0,NORMAL,,WEEK 16,8,2025-03-18,112
STUDY001,LB,STUDY001-SUBJ0005,74,L00074,PLT,Platelet Count,HEMATOLOGY,286.14,10^9/L,150.0,450.0,286.14,286.14,10^9/L,150.0,450.0,NORMAL,,WEEK 16,8,2025-03-18,112
STUDY001,LB,STUDY001-SUBJ0005,75,L00075,GLUC,Glucose,CHEMISTRY,105.98,mg/dL,70.0,100.0,105.98,105.98,mg/dL,70.0,100.0,HIGH,,WEEK 16,8,2025-03-18,112
STUDY001,LB,STUDY001-SUBJ0005,76,L00076,BUN,Blood Urea Nitrogen,CHEMISTRY,11.74,mg/dL,7.0,20.0,11.74,11.74,mg/dL,7.0,20.0,NORMAL,,WEEK 16,8,2025-03-18,112
STUDY001,LB,STUDY001-SUBJ0005,77,L00077,CREAT,Creatinine,CHEMISTRY,1.12,mg/dL,0.6,1.2,1.12,1.12,mg/dL,0.6,1.2,NORMAL,,WEEK 16,8,2025-03-18,112
STUDY001,LB,STUDY001-SUBJ0005,78,L00078,BILI,Total Bilirubin,CHEMISTRY,0.57,mg/dL,0.1,1.2,0.57,0.57,mg/dL,0.1,1.2,NORMAL,,WEEK 16,8,2025-03-18,112
STUDY001,LB,STUDY001-SUBJ0005,79,L00079,ALP,Alkaline Phosphatase,CHEMISTRY,116.27,U/L,44.0,147.0,116.27,116.27,U/L,44.0,147.0,NORMAL,,WEEK 16,8,2025-03-18,112
STUDY001,LB,STUDY001-SUBJ0005,80,L00080,ALT,Alanine Aminotransferase,CHEMISTRY,45.84,U/L,7.0,56.0,45.84,45.84,U/L,7.0,56.0,NORMAL,,WEEK 16,8,2025-03-18,112
STUDY001,LB,STUDY001-SUBJ0005,81,L00081,HGB,Hemoglobin,HEMATOLOGY,15.23,g/dL,13.5,17.5,15.23,15.23,g/dL,13.5,17.5,NORMAL,,END OF TREATMENT,9,2025-04-15,140
STUDY001,LB,STUDY001-SUBJ0005,82,L00082,HCT,Hematocrit,HEMATOLOGY,45.44,%,41.0,51.0,45.44,45.44,%,41.0,51.0,NORMAL,,END OF TREATMENT,9,2025-04-15,140
STUDY001,LB,STUDY001-SUBJ0005,83,L00083,WBC,White Blood Cell Count,HEMATOLOGY,6.7,10^9/L,4.5,11.0,6.7,6.7,10^9/L,4.5,11.0,NORMAL,,END OF TREATMENT,9,2025-04-15,140
STUDY001,LB,STUDY001-SUBJ0005,84,L00084,PLT,Platelet Count,HEMATOLOGY,292.6,10^9/L,150.0,450.0,292.6,292.6,10^9/L,150.0,450.0,NORMAL,,END OF TREATMENT,9,2025-04-15,140
STUDY001,LB,STUDY001-SUBJ0005,85,L00085,GLUC,Glucose,CHEMISTRY,104.73,mg/dL,70.0,100.0,104.73,104.73,mg/dL,70.0,100.0,HIGH,,END OF TREATMENT,9,2025-04-15,140
STUDY001,LB,STUDY001-SUBJ0005,86,L00086,BUN,Blood Urea Nitrogen,CHEMISTRY,12.34,mg/dL,7.0,20.0,12.34,12.34,mg/dL,7.0,20.0,NORMAL,,END OF TREATMENT,9,2025-04-15,140
STUDY001,LB,STUDY001-SUBJ0005,87,L00087,CREAT,Creatinine,CHEMISTRY,1.1,mg/dL,0.6,1.2,1.1,1.1,mg/dL,0.6,1.2,NORMAL,,END OF TREATMENT,9,2025-04-15,140
STUDY001,LB,STUDY001-SUBJ0005,88,L00088,BILI,Total Bilirubin,CHEMISTRY,0.6,mg/dL,0.1,1.2,0.6,0.6,mg/dL,0.1,1.2,NORMAL,,END OF TREATMENT,9,2025-04-15,140
STUDY001,LB,STUDY001-SUBJ0005,89,L00089,ALP,Alkaline Phosphatase,CHEMISTRY,114.61,U/L,44.0,147.0,114.61,114.61,U/L,44.0,147.0,NORMAL,,END OF TREATMENT,9,2025-04-15,140
STUDY001,LB,STUDY001-SUBJ0005,90,L00090,ALT,Alanine Aminotransferase,CHEMISTRY,43.04,U/L,7.0,56.0,43.04,43.04,U/L,7.0,56.0,NORMAL,,END OF TREATMENT,9,2025-04-15,140
STUDY001,LB,STUDY001-SUBJ0006,1,L00001,HGB,Hemoglobin,HEMATOLOGY,14.66,g/dL,13.5,17.5,14.66,14.66,g/dL,13.5,17.5,NORMAL,,SCREENING,1,2024-08-25,-14
STUDY001,LB,STUDY001-SUBJ0006,2,L00002,HCT,Hematocrit,HEMATOLOGY,46.28,%,41.0,51.0,46.28,46.28,%,41.0,51.0,NORMAL,,SCREENING,1,2024-08-25,-14
STUDY001,LB,STUDY001-SUBJ0006,3,L00003,WBC,White Blood Cell Count,HEMATOLOGY,8.42,10^9/L,4.5,11.0,8.42,8.42,10^9/L,4.5,11.0,NORMAL,,SCREENING,1,2024-08-25,-14
STUDY001,LB,STUDY001-SUBJ0006,4,L00004,PLT,Platelet Count,HEMATOLOGY,265.28,10^9/L,150.0,450.0,265.28,265.28,10^9/L,150.0,450.0,NORMAL,,SCREENING,1,2024-08-25,-14
STUDY001,LB,STUDY001-SUBJ0006,5,L00005,GLUC,Glucose,CHEMISTRY,102.25,mg/dL,70.0,100.0,102.25,102.25,mg/dL,70.0,100.0,HIGH,,SCREENING,1,2024-08-25,-14
STUDY001,LB,STUDY001-SUBJ0006,6,L00006,BUN,Blood Urea Nitrogen,CHEMISTRY,9.49,mg/dL,7.0,20.0,9.49,9.49,mg/dL,7.0,20.0,NORMAL,,SCREENING,1,2024-08-25,-14
STUDY001,LB,STUDY001-SUBJ0006,7,L00007,CREAT,Creatinine,CHEMISTRY,0.88,mg/dL,0.6,1.2,0.88,0.88,mg/dL,0.6,1.2,NORMAL,,SCREENING,1,2024-08-25,-14
STUDY001,LB,STUDY001-SUBJ0006,8,L00008,BILI,Total Bilirubin,CHEMISTRY,0.56,mg/dL,0.1,1.2,0.56,0.56,mg/dL,0.1,1.2,NORMAL,,SCREENING,1,2024-08-25,-14
STUDY001,LB,STUDY001-SUBJ0006,9,L00009,ALP,Alkaline Phosphatase,CHEMISTRY,99.53,U/L,44.0,147.0,99.53,99.53,U/L,44.0,147.0,NORMAL,,SCREENING,1,2024-08-25,-14
STUDY001,LB,STUDY001-SUBJ0006,10,L00010,ALT,Alanine Aminotransferase,CHEMISTRY,40.48,U/L,7.0,56.0,40.48,40.48,U/L,7.0,56.0,NORMAL,,SCREENING,1,2024-08-25,-14
STUDY001,LB,STUDY001-SUBJ0006,11,L00011,HGB,Hemoglobin,HEMATOLOGY,14.45,g/dL,13.5,17.5,14.45,14.45,g/dL,13.5,17.5,NORMAL,Y,BASELINE,2,2024-09-08,1
STUDY001,LB,STUDY001-SUBJ0006,12,L00012,HCT,Hematocrit,HEMATOLOGY,46.58,%,41.0,51.0,46.58,46.58,%,41.0,51.0,NORMAL,Y,BASELINE,2,2024-09-08,1
STUDY001,LB,STUDY001-SUBJ0006,13,L00013,WBC,White Blood Cell Count,HEMATOLOGY,8.14,10^9/L,4.5,11.0,8.14,8.14,10^9/L,4.5,11.0,NORMAL,Y,BASELINE,2,2024-09-08,1
STUDY001,LB,STUDY001-SUBJ0006,14,L00014,PLT,Platelet Count,HEMATOLOGY,256.0,10^9/L,150.0,450.0,256.0,256.0,10^9/L,150.0,450.0,NORMAL,Y,BASELINE,2,2024-09-08,1
STUDY001,LB,STUDY001-SUBJ0006,15,L00015,GLUC,Glucose,CHEMISTRY,102.99,mg/dL,70.0,100.0,102.99,102.99,mg/dL,70.0,100.0,HIGH,Y,BASELINE,2,2024-09-08,1
STUDY001,LB,STUDY001-SUBJ0006,16,L00016,BUN,Blood Urea Nitrogen,CHEMISTRY,9.83,mg/dL,7.0,20.0,9.83,9.83,mg/dL,7.0,20.0,NORMAL,Y,BASELINE,2,2024-09-08,1
STUDY001,LB,STUDY001-SUBJ0006,17,L00017,CREAT,Creatinine,CHEMISTRY,0.9,mg/dL,0.6,1.2,0.9,0.9,mg/dL,0.6,1.2,NORMAL,Y,BASELINE,2,2024-09-08,1
STUDY001,LB,STUDY001-SUBJ0006,18,L00018,BILI,Total Bilirubin,CHEMISTRY,0.6,mg/dL,0.1,1.2,0.6,0.6,mg/dL,0.1,1.2,NORMAL,Y,BASELINE,2,2024-09-08,1
STUDY001,LB,STUDY001-SUBJ0006,19,L00019,ALP,Alkaline Phosphatase,CHEMISTRY,94.18,U/L,44.0,147.0,94.18,94.18,U/L,44.0,147.0,NORMAL,Y,BASELINE,2,2024-09-08,1
STUDY001,LB,STUDY001-SUBJ0006,20,L00020,ALT,Alanine Aminotransferase,CHEMISTRY,38.29,U/L,7.0,56.0,38.29,38.29,U/L,7.0,56.0,NORMAL,Y,BASELINE,2,2024-09-08,1
STUDY001,LB,STUDY001-SUBJ0006,21,L00021,HGB,Hemoglobin,HEMATOLOGY,14.58,g/dL,13.5,17.5,14.58,14.58,g/dL,13.5,17.5,NORMAL,,WEEK 1,3,2024-09-14,7
STUDY001,LB,STUDY001-SUBJ0006,22,L00022,HCT,Hematocrit,HEMATOLOGY,46.33,%,41.0,51.0,46.33,46.33,%,41.0,51.0,NORMAL,,WEEK 1,3,2024-09-14,7
STUDY001,LB,STUDY001-SUBJ0006,23,L00023,WBC,White Blood Cell Count,HEMATOLOGY,8.43,10^9/L,4.5,11.0,8.43,8.43,10^9/L,4.5,11.0,NORMAL,,WEEK 1,3,2024-09-14,7
STUDY001,LB,STUDY001-SUBJ0006,24,L00024,PLT,Platelet Count,HEMATOLOGY,269.52,10^9/L,150.0,450.0,269.52,269.52,10^9/L,150.0,450.0,NORMAL,,WEEK 1,3,2024-09-14,7
STUDY001,LB,STUDY001-SUBJ0006,25,L00025,GLUC,Glucose,CHEMISTRY,102.62,mg/dL,70.0,100.0,102.62,102.62,mg/dL,70.0,100.0,HIGH,,WEEK 1,3,2024-09-14,7
STUDY001,LB,STUDY001-SUBJ0006,26,L00026,BUN,Blood Urea Nitrogen,CHEMISTRY,9.1,mg/dL,7.0,20.0,9.1,9.1,mg/dL,7.0,20.0,NORMAL,,WEEK 1,3,2024-09-14,7
STUDY001,LB,STUDY001-SUBJ0006,27,L00027,CREAT,Creatinine,CHEMISTRY,0.9,mg/dL,0.6,1.2,0.9,0.9,mg/dL,0.6,1.2,NORMAL,,WEEK 1,3,2024-09-14,7
STUDY001,LB,STUDY001-SUBJ0006,28,L00028,BILI,Total Bilirubin,CHEMISTRY,0.58,mg/dL,0.1,1.2,0.58,0.58,mg/dL,0.1,1.2,NORMAL,,WEEK 1,3,2024-09-14,7
STUDY001,LB,STUDY001-SUBJ0006,29,L00029,ALP,Alkaline Phosphatase,CHEMISTRY,100.4,U/L,44.0,147.0,100.4,100.4,U/L,44.0,147.0,NORMAL,,WEEK 1,3,2024-09-14,7
STUDY001,LB,STUDY001-SUBJ0006,30,L00030,ALT,Alanine Aminotransferase,CHEMISTRY,40.14,U/L,7.0,56.0,40.14,40.14,U/L,7.0,56.0,NORMAL,,WEEK 1,3,2024-09-14,7
STUDY001,LB,STUDY001-SUBJ0006,31,L00031,HGB,Hemoglobin,HEMATOLOGY,14.62,g/dL,13.5,17.5,14.62,14.62,g/dL,13.5,17.5,NORMAL,,WEEK 2,4,2024-09-21,14
STUDY001,LB,STUDY001-SUBJ0006,32,L00032,HCT,Hematocrit,HEMATOLOGY,46.78,%,41.0,51.0,46.78,46.78,%,41.0,51.0,NORMAL,,WEEK 2,4,2024-09-21,14
STUDY001,LB,STUDY001-SUBJ0006,33,L00033,WBC,White Blood Cell Count,HEMATOLOGY,8.51,10^9/L,4.5,11.0,8.51,8.51,10^9/L,4.5,11.0,NORMAL,,WEEK 2,4,2024-09-21,14
STUDY001,LB,STUDY001-SUBJ0006,34,L00034,PLT,Platelet Count,HEMATOLOGY,267.58,10^9/L,150.0,450.0,267.58,267.58,10^9/L,150.0,450.0,NORMAL,,WEEK 2,4,2024-09-21,14
STUDY001,LB,STUDY001-SUBJ0006,35,L00035,GLUC,Glucose,CHEMISTRY,101.49,mg/dL,70.0,100.0,101.49,101.49,mg/dL,70.0,100.0,HIGH,,WEEK 2,4,2024-09-21,14
STUDY001,LB,STUDY001-SUBJ0006,36,L00036,BUN,Blood Urea Nitrogen,CHEMISTRY,9.61,mg/dL,7.0,20.0,9.61,9.61,mg/dL,7.0,20.0,NORMAL,,WEEK 2,4,2024-09-21,14
STUDY001,LB,STUDY001-SUBJ0006,37,L00037,CREAT,Creatinine,CHEMISTRY,0.91,mg/dL,0.6,1.2,0.91,0.91,mg/dL,0.6,1.2,NORMAL,,WEEK 2,4,2024-09-21,14
STUDY001,LB,STUDY001-SUBJ0006,38,L00038,BILI,Total Bilirubin,CHEMISTRY,0.6,mg/dL,0.1,1.2,0.6,0.6,mg/dL,0.1,1.2,NORMAL,,WEEK 2,4,2024-09-21,14
STUDY001,LB,STUDY001-SUBJ0006,39,L00039,ALP,Alkaline Phosphatase,CHEMISTRY,96.56,U/L,44.0,147.0,96.56,96.56,U/L,44.0,147.0,NORMAL,,WEEK 2,4,2024-09-21,14
STUDY001,LB,STUDY001-SUBJ0006,40,L00040,ALT,Alanine Aminotransferase,CHEMISTRY,38.89,U/L,7.0,56.0,38.89,38.89,U/L,7.0,56.0,NORMAL,,WEEK 2,4,2024-09-21,14
STUDY001,LB,STUDY001-SUBJ0006,41,L00041,HGB,Hemoglobin,HEMATOLOGY,14.6,g/dL,13.5,17.5,14.6,14.6,g/dL,13.5,17.5,NORMAL,,WEEK 4,5,2024-10-05,28
STUDY001,LB,STUDY001-SUBJ0006,42,L00042,HCT,Hematocrit,HEMATOLOGY,46.37,%,41.0,51.0,46.37,46.37,%,41.0,51.0,NORMAL,,WEEK 4,5,2024-10-05,28
STUDY001,LB,STUDY001-SUBJ0006,43,L00043,WBC,White Blood Cell Count,HEMATOLOGY,8.52,10^9/L,4.5,11.0,8.52,8.52,10^9/L,4.5,11.0,NORMAL,,WEEK 4,5,2024-10-05,28
STUDY001,LB,STUDY001-SUBJ0006,44,L00044,PLT,Platelet Count,HEMATOLOGY,269.45,10^9/L,150.0,450.0,269.45,269.45,10^9/L,150.0,450.0,NORMAL,,WEEK 4,5,2024-10-05,28
STUDY001,LB,STUDY001-SUBJ0006,45,L00045,GLUC,Glucose,CHEMISTRY,103.17,mg/dL,70.0,100.0,103.17,103.17,mg/dL,70.0,100.0,HIGH,,WEEK 4,5,2024-10-05,28
STUDY001,LB,STUDY001-SUBJ0006,46,L00046,BUN,Blood Urea Nitrogen,CHEMISTRY,9.43,mg/dL,7.0,20.0,9.43,9.43,mg/dL,7.0,20.0,NORMAL,,WEEK 4,5,2024-10-05,28
STUDY001,LB,STUDY001-SUBJ0006,47,L00047,CREAT,Creatinine,CHEMISTRY,0.9,mg/dL,0.6,1.2,0.9,0.9,mg/dL,0.6,1.2,NORMAL,,WEEK 4,5,2024-10-05,28
STUDY001,LB,STUDY001-SUBJ0006,48,L00048,BILI,Total Bilirubin,CHEMISTRY,0.58,mg/dL,0.1,1.2,0.58,0.58,mg/dL,0.1,1.2,NORMAL,,WEEK 4,5,2024-10-05,28
STUDY001,LB,STUDY001-SUBJ0006,49,L00049,ALP,Alkaline Phosphatase,CHEMISTRY,97.93,U/L,44.0,147.0,97.93,97.93,U/L,44.0,147.0,NORMAL,,WEEK 4,5,2024-10-05,28
STUDY001,LB,STUDY001-SUBJ0006,50,L00050,ALT,Alanine Aminotransferase,CHEMISTRY,39.0,U/L,7.0,56.0,39.0,39.0,U/L,7.0,56.0,NORMAL,,WEEK 4,5,2024-10-05,28
STUDY001,LB,STUDY001-SUBJ0006,51,L00051,HGB,Hemoglobin,HEMATOLOGY,14.35,g/dL,13.5,17.5,14.35,14.35,g/dL,13.5,17.5,NORMAL,,WEEK 8,6,2024-11-02,56
STUDY001,LB,STUDY001-SUBJ0006,52,L00052,HCT,Hematocrit,HEMATOLOGY,46.59,%,41.0,51.0,46.59,46.59,%,41.0,51.0,NORMAL,,WEEK 8,6,2024-11-02,56
STUDY001,LB,STUDY001-SUBJ0006,53,L00053,WBC,White Blood Cell Count,HEMATOLOGY,8.48,10^9/L,4.5,11.0,8.48,8.48,10^9/L,4.5,11.0,NORMAL,,WEEK 8,6,2024-11-02,56
STUDY001,LB,STUDY001-SUBJ0006,54,L00054,PLT,Platelet Count,HEMATOLOGY,259.05,10^9/L,150.0,450.0,259.05,259.05,10^9/L,150.0,450.0,NORMAL,,WEEK 8,6,2024-11-02,56
STUDY001,LB,STUDY001-SUBJ0006,55,L00055,GLUC,Glucose,CHEMISTRY,102.09,mg/dL,70.0,100.0,102.09,102.09,mg/dL,70.0,100.0,HIGH,,WEEK 8,6,2024-11-02,56
STUDY001,LB,STUDY001-SUBJ0006,56,L00056,BUN,Blood Urea Nitrogen,CHEMISTRY,9.86,mg/dL,7.0,20.0,9.86,9.86,mg/dL,7.0,20.0,NORMAL,,WEEK 8,6,2024-11-02,56
STUDY001,LB,STUDY001-SUBJ0006,57,L00057,CREAT,Creatinine,CHEMISTRY,0.87,mg/dL,0.6,1.2,0.87,0.87,mg/dL,0.6,1.2,NORMAL,,WEEK 8,6,2024-11-02,56
STUDY001,LB,STUDY001-SUBJ0006,58,L00058,BILI,Total Bilirubin,CHEMISTRY,0.62,mg/dL,0.1,1.2,0.62,0.62,mg/dL,0.1,1.2,NORMAL,,WEEK 8,6,2024-11-02,56
STUDY001,LB,STUDY001-SUBJ0006,59,L00059,ALP,Alkaline Phosphatase,CHEMISTRY,97.22,U/L,44.0,147.0,97.22,97.22,U/L,44.0,147.0,NORMAL,,WEEK 8,6,2024-11-02,56
STUDY001,LB,STUDY001-SUBJ0006,60,L00060,ALT,Alanine Aminotransferase,CHEMISTRY,40.05,U/L,7.0,56.0,40.05,40.05,U/L,7.0,56.0,NORMAL,,WEEK 8,6,2024-11-02,56
STUDY001,LB,STUDY001-SUBJ0006,61,L00061,HGB,Hemoglobin,HEMATOLOGY,14.74,g/dL,13.5,17.5,14.74,14.74,g/dL,13.5,17.5,NORMAL,,WEEK 12,7,2024-11-30,84
STUDY001,LB,STUDY001-SUBJ0006,62,L00062,HCT,Hematocrit,HEMATOLOGY,46.45,%,41.0,51.0,46.45,46.45,%,41.0,51.0,NORMAL,,WEEK 12,7,2024-11-30,84
STUDY001,LB,STUDY001-SUBJ0006,63,L00063,WBC,White Blood Cell Count,HEMATOLOGY,8.07,10^9/L,4.5,11.0,8.07,8.07,10^9/L,4.5,11.0,NORMAL,,WEEK 12,7,2024-11-30,84
STUDY001,LB,STUDY001-SUBJ0006,64,L00064,PLT,Platelet Count,HEMATOLOGY,270.5,10^9/L,150.0,450.0,270.5,270.5,10^9/L,150.0,450.0,NORMAL,,WEEK 12,7,2024-11-30,84
STUDY001,LB,STUDY001-SUBJ0006,65,L00065,GLUC,Glucose,CHEMISTRY,100.95,mg/dL,70.0,100.0,100.95,100.95,mg/dL,70.0,100.0,HIGH,,WEEK 12,7,2024-11-30,84
STUDY001,LB,STUDY001-SUBJ0006,66,L00066,BUN,Blood Urea Nitrogen,CHEMISTRY,10.05,mg/dL,7.0,20.0,10.05,10.05,mg/dL,7.0,20.0,NORMAL,,WEEK 12,7,2024-11-30,84
STUDY001,LB,STUDY001-SUBJ0006,67,L00067,CREAT,Creatinine,CHEMISTRY,0.9,mg/dL,0.6,1.2,0.9,0.9,mg/dL,0.6,1.2,NORMAL,,WEEK 12,7,2024-11-30,84
STUDY001,LB,STUDY001-SUBJ0006,68,L00068,BILI,Total Bilirubin,CHEMISTRY,0.61,mg/dL,0.1,1.2,0.61,0.61,mg/dL,0.1,1.2,NORMAL,,WEEK 12,7,2024-11-30,84
STUDY001,LB,STUDY001-SUBJ0006,69,L00069,ALP,Alkaline Phosphatase,CHEMISTRY,100.22,U/L,44.0,147.0,100.22,100.22,U/L,44.0,147.0,NORMAL,,WEEK 12,7,2024-11-30,84
STUDY001,LB,STUDY001-SUBJ0006,70,L00070,ALT,Alanine Aminotransferase,CHEMISTRY,39.3,U/L,7.0,56.0,39.3,39.3,U/L,7.0,56.0,NORMAL,,WEEK 12,7,2024-11-30,84
STUDY001,LB,STUDY001-SUBJ0006,71,L00071,HGB,Hemoglobin,HEMATOLOGY,14.42,g/dL,13.5,17.5,14.42,14.42,g/dL,13.5,17.5,NORMAL,,WEEK 16,8,2024-12-28,112
STUDY001,LB,STUDY001-SUBJ0006,72,L00072,HCT,Hematocrit,HEMATOLOGY,46.19,%,41.0,51.0,46.19,46.19,%,41.0,51.0,NORMAL,,WEEK 16,8,2024-12-28,112
STUDY001,LB,STUDY001-SUBJ0006,73,L00073,WBC,White Blood Cell Count,HEMATOLOGY,8.29,10^9/L,4.5,11.0,8.29,8.29,10^9/L,4.5,11.0,NORMAL,,WEEK 16,8,2024-12-28,112
STUDY001,LB,STUDY001-SUBJ0006,74,L00074,PLT,Platelet Count,HEMATOLOGY,264.59,10^9/L,150.0,450.0,264.59,264.59,10^9/L,150.0,450.0,NORMAL,,WEEK 16,8,2024-12-28,112
STUDY001,LB,STUDY001-SUBJ0006,75,L00075,GLUC,Glucose,CHEMISTRY,102.98,mg/dL,70.0,100.0,102.98,102.98,mg/dL,70.0,100.0,HIGH,,WEEK 16,8,2024-12-28,112
STUDY001,LB,STUDY001-SUBJ0006,76,L00076,BUN,Blood Urea Nitrogen,CHEMISTRY,9.61,mg/dL,7.0,20.0,9.61,9.61,mg/dL,7.0,20.0,NORMAL,,WEEK 16,8,2024-12-28,112
STUDY001,LB,STUDY001-SUBJ0006,77,L00077,CREAT,Creatinine,CHEMISTRY,0.87,mg/dL,0.6,1.2,0.87,0.87,mg/dL,0.6,1.2,NORMAL,,WEEK 16,8,2024-12-28,112
STUDY001,LB,STUDY001-SUBJ0006,78,L00078,BILI,Total Bilirubin,CHEMISTRY,0.6,mg/dL,0.1,1.2,0.6,0.6,mg/dL,0.1,1.2,NORMAL,,WEEK 16,8,2024-12-28,112
STUDY001,LB,STUDY001-SUBJ0006,79,L00079,ALP,Alkaline Phosphatase,CHEMISTRY,99.84,U/L,44.0,147.0,99.84,99.84,U/L,44.0,147.0,NORMAL,,WEEK 16,8,2024-12-28,112
STUDY001,LB,STUDY001-SUBJ0006,80,L00080,ALT,Alanine Aminotransferase,CHEMISTRY,39.84,U/L,7.0,56.0,39.84,39.84,U/L,7.0,56.0,NORMAL,,WEEK 16,8,2024-12-28,112
STUDY001,LB,STUDY001-SUBJ0006,81,L00081,HGB,Hemoglobin,HEMATOLOGY,14.56,g/dL,13.5,17.5,14.56,14.56,g/dL,13.5,17.5,NORMAL,,END OF TREATMENT,9,2025-01-25,140
STUDY001,LB,STUDY001-SUBJ0006,82,L00082,HCT,Hematocrit,HEMATOLOGY,46.19,%,41.0,51.0,46.19,46.19,%,41.0,51.0,NORMAL,,END OF TREATMENT,9,2025-01-25,140
STUDY001,LB,STUDY001-SUBJ0006,83,L00083,WBC,White Blood Cell Count,HEMATOLOGY,8.7,10^9/L,4.5,11.0,8.7,8.7,10^9/L,4.5,11.0,NORMAL,,END OF TREATMENT,9,2025-01-25,140
STUDY001,LB,STUDY001-SUBJ0006,84,L00084,PLT,Platelet Count,HEMATOLOGY,270.78,10^9/L,150.0,450.0,270.78,270.78,10^9/L,150.0,450.0,NORMAL,,END OF TREATMENT,9,2025-01-25,140
STUDY001,LB,STUDY001-SUBJ0006,85,L00085,GLUC,Glucose,CHEMISTRY,102.45,mg/dL,70.0,100.0,102.45,102.45,mg/dL,70.0,100.0,HIGH,,END OF TREATMENT,9,2025-01-25,140
STUDY001,LB,STUDY001-SUBJ0006,86,L00086,BUN,Blood Urea Nitrogen,CHEMISTRY,9.86,mg/dL,7.0,20.0,9.86,9.86,mg/dL,7.0,20.0,NORMAL,,END OF TREATMENT,9,2025-01-25,140
STUDY001,LB,STUDY001-SUBJ0006,87,L00087,CREAT,Creatinine,CHEMISTRY,0.89,mg/dL,0.6,1.2,0.89,0.89,mg/dL,0.6,1.2,NORMAL,,END OF TREATMENT,9,2025-01-25,140
STUDY001,LB,STUDY001-SUBJ0006,88,L00088,BILI,Total Bilirubin,CHEMISTRY,0.59,mg/dL,0.1,1.2,0.59,0.59,mg/dL,0.1,1.2,NORMAL,,END OF TREATMENT,9,2025-01-25,140
STUDY001,LB,STUDY001-SUBJ0006,89,L00089,ALP,Alkaline Phosphatase,CHEMISTRY,100.79,U/L,44.0,147.0,100.79,100.79,U/L,44.0,147.0,NORMAL,,END OF TREATMENT,9,2025-01-25,140
STUDY001,LB,STUDY001-SUBJ0006,90,L00090,ALT,Alanine Aminotransferase,CHEMISTRY,39.94,U/L,7.0,56.0,39.94,39.94,U/L,7.0,56.0,NORMAL,,END OF TREATMENT,9,2025-01-25,140
STUDY001,LB,STUDY001-SUBJ0007,1,L00001,HGB,Hemoglobin,HEMATOLOGY,15.99,g/dL,13.5,17.5,15.99,15.99,g/dL,13.5,17.5,NORMAL,,SCREENING,1,2024-12-24,-14
STUDY001,LB,STUDY001-SUBJ0007,2,L00002,HCT,Hematocrit,HEMATOLOGY,45.06,%,41.0,51.0,45.06,45.06,%,41.0,51.0,NORMAL,,SCREENING,1,2024-12-24,-14
STUDY001,LB,STUDY001-SUBJ0007,3,L00003,WBC,White Blood Cell Count,HEMATOLOGY,7.22,10^9/L,4.5,11.0,7.22,7.22,10^9/L,4.5,11.0,NORMAL,,SCREENING,1,2024-12-24,-14
STUDY001,LB,STUDY001-SUBJ0007,4,L00004,PLT,Platelet Count,HEMATOLOGY,310.9,10^9/L,150.0,450.0,310.9,310.9,10^9/L,150.0,450.0,NORMAL,,SCREENING,1,2024-12-24,-14
STUDY001,LB,STUDY001-SUBJ0007,5,L00005,GLUC,Glucose,CHEMISTRY,99.84,mg/dL,70.0,100.0,99.84,99.84,mg/dL,70.0,100.0,NORMAL,,SCREENING,1,2024-12-24,-14
STUDY001,LB,STUDY001-SUBJ0007,6,L00006,BUN,Blood Urea Nitrogen,CHEMISTRY,8.22,mg/dL,7.0,20.0,8.22,8.22,mg/dL,7.0,20.0,NORMAL,,SCREENING,1,2024-12-24,-14
STUDY001,LB,STUDY001-SUBJ0007,7,L00007,CREAT,Creatinine,CHEMISTRY,0.87,mg/dL,0.6,1.2,0.87,0.87,mg/dL,0.6,1.2,NORMAL,,SCREENING,1,2024-12-24,-14
STUDY001,LB,STUDY001-SUBJ0007,8,L00008,BILI,Total Bilirubin,CHEMISTRY,0.71,mg/dL,0.1,1.2,0.71,0.71,mg/dL,0.1,1.2,NORMAL,,SCREENING,1,2024-12-24,-14
STUDY001,LB,STUDY001-SUBJ0007,9,L00009,ALP,Alkaline Phosphatase,CHEMISTRY,135.71,U/L,44.0,147.0,135.71,135.71,U/L,44.0,147.0,NORMAL,,SCREENING,1,2024-12-24,-14
STUDY001,LB,STUDY001-SUBJ0007,10,L00010,ALT,Alanine Aminotransferase,CHEMISTRY,19.7,U/L,7.0,56.0,19.7,19.7,U/L,7.0,56.0,NORMAL,,SCREENING,1,2024-12-24,-14
STUDY001,LB,STUDY001-SUBJ0007,11,L00011,HGB,Hemoglobin,HEMATOLOGY,16.04,g/dL,13.5,17.5,16.04,16.04,g/dL,13.5,17.5,NORMAL,Y,BASELINE,2,2025-01-07,1
STUDY001,LB,STUDY001-SUBJ0007,12,L00012,HCT,Hematocrit,HEMATOLOGY,44.81,%,41.0,51.0,44.81,44.81,%,41.0,51.0,NORMAL,Y,BASELINE,2,2025-01-07,1
STUDY001,LB,STUDY001-SUBJ0007,13,L00013,WBC,White Blood Cell Count,HEMATOLOGY,7.46,10^9/L,4.5,11.0,7.46,7.46,10^9/L,4.5,11.0,NORMAL,Y,BASELINE,2,2025-01-07,1
STUDY001,LB,STUDY001-SUBJ0007,14,L00014,PLT,Platelet Count,HEMATOLOGY,312.53,10^9/L,150.0,450.0,312.53,312.53,10^9/L,150.0,450.0,NORMAL,Y,BASELINE,2,2025-01-07,1
STUDY001,LB,STUDY001-SUBJ0007,15,L00015,GLUC,Glucose,CHEMISTRY,96.91,mg/dL,70.0,100.0,96.91,96.91,mg/dL,70.0,100.0,NORMAL,Y,BASELINE,2,2025-01-07,1
STUDY001,LB,STUDY001-SUBJ0007,16,L00016,BUN,Blood Urea Nitrogen,CHEMISTRY,7.85,mg/dL,7.0,20.0,7.85,7.85,mg/dL,7.0,20.0,NORMAL,Y,BASELINE,2,2025-01-07,1
STUDY001,LB,STUDY001-SUBJ0007,17,L00017,CREAT,Creatinine,CHEMISTRY,0.87,mg/dL,0.6,1.2,0.87,0.87,mg/dL,0.6,1.2,NORMAL,Y,BASELINE,2,2025-01-07,1
STUDY001,LB,STUDY001-SUBJ0007,18,L00018,BILI,Total Bilirubin,CHEMISTRY,0.71,mg/dL,0.1,1.2,0.71,0.71,mg/dL,0.1,1.2,NORMAL,Y,BASELINE,2,2025-01-07,1
STUDY001,LB,STUDY001-SUBJ0007,19,L00019,ALP,Alkaline Phosphatase,CHEMISTRY,129.61,U/L,44.0,147.0,129.61,129.61,U/L,44.0,147.0,NORMAL,Y,BASELINE,2,2025-01-07,1
STUDY001,LB,STUDY001-SUBJ0007,20,L00020,ALT,Alanine Aminotransferase,CHEMISTRY,20.67,U/L,7.0,56.0,20.67,20.67,U/L,7.0,56.0,NORMAL,Y,BASELINE,2,2025-01-07,1
STUDY001,LB,STUDY001-SUBJ0007,21,L00021,HGB,Hemoglobin,HEMATOLOGY,15.93,g/dL,13.5,17.5,15.93,15.93,g/dL,13.5,17.5,NORMAL,,WEEK 1,3,2025-01-13,7
STUDY001,LB,STUDY001-SUBJ0007,22,L00022,HCT,Hematocrit,HEMATOLOGY,45.06,%,41.0,51.0,45.06,45.06,%,41.0,51.0,NORMAL,,WEEK 1,3,2025-01-13,7
STUDY001,LB,STUDY001-SUBJ0007,23,L00023,WBC,White Blood Cell Count,HEMATOLOGY,7.53,10^9/L,4.5,11.0,7.53,7.53,10^9/L,4.5,11.0,NORMAL,,WEEK 1,3,2025-01-13,7
STUDY001,LB,STUDY001-SUBJ0007,24,L00024,PLT,Platelet Count,HEMATOLOGY,321.13,10^9/L,150.0,450.0,321.13,321.13,10^9/L,150.0,450.0,NORMAL,,WEEK 1,3,2025-01-13,7
STUDY001,LB,STUDY001-SUBJ0007,25,L00025,GLUC,Glucose,CHEMISTRY,96.56,mg/dL,70.0,100.0,96.56,96.56,mg/dL,70.0,100.0,NORMAL,,WEEK 1,3,2025-01-13,7
STUDY001,LB,STUDY001-SUBJ0007,26,L00026,BUN,Blood Urea Nitrogen,CHEMISTRY,7.68,mg/dL,7.0,20.0,7.68,7.68,mg/dL,7.0,20.0,NORMAL,,WEEK 1,3,2025-01-13,7
STUDY001,LB,STUDY001-SUBJ0007,27,L00027,CREAT,Creatinine,CHEMISTRY,0.91,mg/dL,0.6,1.2,0.91,0.91,mg/dL,0.6,1.2,NORMAL,,WEEK 1,3,2025-01-13,7
STUDY001,LB,STUDY001-SUBJ0007,28,L00028,BILI,Total Bilirubin,CHEMISTRY,0.71,mg/dL,0.1,1.2,0.71,0.71,mg/dL,0.1,1.2,NORMAL,,WEEK 1,3,2025-01-13,7
STUDY001,LB,STUDY001-SUBJ0007,29,L00029,ALP,Alkaline Phosphatase,CHEMISTRY,133.85,U/L,44.0,147.0,133.85,133.85,U/L,44.0,147.0,NORMAL,,WEEK 1,3,2025-01-13,7
STUDY001,LB,STUDY001-SUBJ0007,30,L00030,ALT,Alanine Aminotransferase,CHEMISTRY,20.96,U/L,7.0,56.0,20.96,20.96,U/L,7.0,56.0,NORMAL,,WEEK 1,3,2025-01-13,7
STUDY001,LB,STUDY001-SUBJ0007,31,L00031,HGB,Hemoglobin,HEMATOLOGY,15.89,g/dL,13.5,17.5,15.89,15.89,g/dL,13.5,17.5,NORMAL,,WEEK 2,4,2025-01-20,14
STUDY001,LB,STUDY001-SUBJ0007,32,L00032,HCT,Hematocrit,HEMATOLOGY,45.08,%,41.0,51.0,45.08,45.08,%,41.0,51.0,NORMAL,,WEEK 2,4,2025-01-20,14
STUDY001,LB,STUDY001-SUBJ0007,33,L00033,WBC,White Blood Cell Count,HEMATOLOGY,7.37,10^9/L,4.5,11.0,7.37,7.37,10^9/L,4.5,11.0,NORMAL,,WEEK 2,4,2025-01-20,14
STUDY001,LB,STUDY001-SUBJ0007,34,L00034,PLT,Platelet Count,HEMATOLOGY,313.54,10^9/L,150.0,450.0,313.54,313.54,10^9/L,150.0,450.0,NORMAL,,WEEK 2,4,2025-01-20,14
STUDY001,LB,STUDY001-SUBJ0007,35,L00035,GLUC,Glucose,CHEMISTRY,98.25,mg/dL,70.0,100.0,98.25,98.25,mg/dL,70.0,100.0,NORMAL,,WEEK 2,4,2025-01-20,14
STUDY001,LB,STUDY001-SUBJ0007,36,L00036,BUN,Blood Urea Nitrogen,CHEMISTRY,7.97,mg/dL,7.0,20.0,7.97,7.97,mg/dL,7.0,20.0,NORMAL,,WEEK 2,4,2025-01-20,14
STUDY001,LB,STUDY001-SUBJ0007,37,L00037,CREAT,Creatinine,CHEMISTRY,0.89,mg/dL,0.6,1.2,0.89,0.89,mg/dL,0.6,1.2,NORMAL,,WEEK 2,4,2025-01-20,14
STUDY001,LB,STUDY001-SUBJ0007,38,L00038,BILI,Total Bilirubin,CHEMISTRY,0.69,mg/dL,0.1,1.2,0.69,0.69,mg/dL,0.1,1.2,NORMAL,,WEEK 2,4,2025-01-20,14
STUDY001,LB,STUDY001-SUBJ0007,39,L00039,ALP,Alkaline Phosphatase,CHEMISTRY,133.23,U/L,44.0,147.0,133.23,133.23,U/L,44.0,147.0,NORMAL,,WEEK 2,4,2025-01-20,14
STUDY001,LB,STUDY001-SUBJ0007,40,L00040,ALT,Alanine Aminotransferase,CHEMISTRY,19.52,U/L,7.0,56.0,19.52,19.52,U/L,7.0,56.0,NORMAL,,WEEK 2,4,2025-01-20,14
STUDY001,LB,STUDY001-SUBJ0007,41,L00041,HGB,Hemoglobin,HEMATOLOGY,16.05,g/dL,13.5,17.5,16.05,16.05,g/dL,13.5,17.5,NORMAL,,WEEK 4,5,2025-02-03,28
STUDY001,LB,STUDY001-SUBJ0007,42,L00042,HCT,Hematocrit,HEMATOLOGY,45.44,%,41.0,51.0,45.44,45.44,%,41.0,51.0,NORMAL,,WEEK 4,5,2025-02-03,28
STUDY001,LB,STUDY001-SUBJ0007,43,L00043,WBC,White Blood Cell Count,HEMATOLOGY,7.3,10^9/L,4.5,11.0,7.3,7.3,10^9/L,4.5,11.0,NORMAL,,WEEK 4,5,2025-02-03,28
STUDY001,LB,STUDY001-SUBJ0007,44,L00044,PLT,Platelet Count,HEMATOLOGY,316.01,10^9/L,150.0,450.0,316.01,316.01,10^9/L,150.0,450.0,NORMAL,,WEEK 4,5,2025-02-03,28
STUDY001,LB,STUDY001-SUBJ0007,45,L00045,GLUC,Glucose,CHEMISTRY,99.44,mg/dL,70.0,100.0,99.44,99.44,mg/dL,70.0,100.0,NORMAL,,WEEK 4,5,2025-02-03,28
STUDY001,LB,STUDY001-SUBJ0007,46,L00046,BUN,Blood Urea Nitrogen,CHEMISTRY,7.99,mg/dL,7.0,20.0,7.99,7.99,mg/dL,7.0,20.0,NORMAL,,WEEK 4,5,2025-02-03,28
STUDY001,LB,STUDY001-SUBJ0007,47,L00047,CREAT,Creatinine,CHEMISTRY,0.88,mg/dL,0.6,1.2,0.88,0.88,mg/dL,0.6,1.2,NORMAL,,WEEK 4,5,2025-02-03,28
STUDY001,LB,STUDY001-SUBJ0007,48,L00048,BILI,Total Bilirubin,CHEMISTRY,0.7,mg/dL,0.1,1.2,0.7,0.7,mg/dL,0.1,1.2,NORMAL,,WEEK 4,5,2025-02-03,28
STUDY001,LB,STUDY001-SUBJ0007,49,L00049,ALP,Alkaline Phosphatase,CHEMISTRY,131.16,U/L,44.0,147.0,131.16,131.16,U/L,44.0,147.0,NORMAL,,WEEK 4,5,2025-02-03,28
STUDY001,LB,STUDY001-SUBJ0007,50,L00050,ALT,Alanine Aminotransferase,CHEMISTRY,22.68,U/L,7.0,56.0,22.68,22.68,U/L,7.0,56.0,NORMAL,,WEEK 4,5,2025-02-03,28
STUDY001,LB,STUDY001-SUBJ0007,51,L00051,HGB,Hemoglobin,HEMATOLOGY,16.03,g/dL,13.5,17.5,16.03,16.03,g/dL,13.5,17.5,NORMAL,,WEEK 8,6,2025-03-03,56
STUDY001,LB,STUDY001-SUBJ0007,52,L00052,HCT,Hematocrit,HEMATOLOGY,44.99,%,41.0,51.0,44.99,44.99,%,41.0,51.0,NORMAL,,WEEK 8,6,2025-03-03,56
STUDY001,LB,STUDY001-SUBJ0007,53,L00053,WBC,White Blood Cell Count,HEMATOLOGY,7.44,10^9/L,4.5,11.0,7.44,7.44,10^9/L,4.5,11.0,NORMAL,,WEEK 8,6,2025-03-03,56
STUDY001,LB,STUDY001-SUBJ0007,54,L00054,PLT,Platelet Count,HEMATOLOGY,313.67,10^9/L,150.0,450.0,313.67,313.67,10^9/L,150.0,450.0,NORMAL,,WEEK 8,6,2025-03-03,56
STUDY001,LB,STUDY001-SUBJ0007,55,L00055,GLUC,Glucose,CHEMISTRY,97.28,mg/dL,70.0,100.0,97.28,97.28,mg/dL,70.0,100.0,NORMAL,,WEEK 8,6,2025-03-03,56
STUDY001,LB,STUDY001-SUBJ0007,56,L00056,BUN,Blood Urea Nitrogen,CHEMISTRY,8.29,mg/dL,7.0,20.0,8.29,8.29,mg/dL,7.0,20.0,NORMAL,,WEEK 8,6,2025-03-03,56
STUDY001,LB,STUDY001-SUBJ0007,57,L00057,CREAT,Creatinine,CHEMISTRY,0.89,mg/dL,0.6,1.2,0.89,0.89,mg/dL,0.6,1.2,NORMAL,,WEEK 8,6,2025-03-03,56
STUDY001,LB,STUDY001-SUBJ0007,58,L00058,BILI,Total Bilirubin,CHEMISTRY,0.67,mg/dL,0.1,1.2,0.67,0.67,mg/dL,0.1,1.2,NORMAL,,WEEK 8,6,2025-03-03,56
STUDY001,LB,STUDY001-SUBJ0007,59,L00059,ALP,Alkaline Phosphatase,CHEMISTRY,129.62,U/L,44.0,147.0,129.62,129.62,U/L,44.0,147.0,NORMAL,,WEEK 8,6,2025-03-03,56
STUDY001,LB,STUDY001-SUBJ0007,60,L00060,ALT,Alanine Aminotransferase,CHEMISTRY,18.66,U/L,7.0,56.0,18.66,18.66,U/L,7.0,56.0,NORMAL,,WEEK 8,6,2025-03-03,56
STUDY001,LB,STUDY001-SUBJ0007,61,L00061,HGB,Hemoglobin,HEMATOLOGY,15.88,g/dL,13.5,17.5,15.88,15.88,g/dL,13.5,17.5,NORMAL,,WEEK 12,7,2025-03-31,84
STUDY001,LB,STUDY001-SUBJ0007,62,L00062,HCT,Hematocrit,HEMATOLOGY,45.42,%,41.0,51.0,45.42,45.42,%,41.0,51.0,NORMAL,,WEEK 12,7,2025-03-31,84
STUDY001,LB,STUDY001-SUBJ0007,63,L00063,WBC,White Blood Cell Count,HEMATOLOGY,7.36,10^9/L,4.5,11.0,7.36,7.36,10^9/L,4.5,11.0,NORMAL,,WEEK 12,7,2025-03-31,84
STUDY001,LB,STUDY001-SUBJ0007,64,L00064,PLT,Platelet Count,HEMATOLOGY,318.33,10^9/L,150.0,450.0,318.33,318.33,10^9/L,150.0,450.0,NORMAL,,WEEK 12,7,2025-03-31,84
STUDY001,LB,STUDY001-SUBJ0007,65,L00065,GLUC,Glucose,CHEMISTRY,97.55,mg/dL,70.0,100.0,97.55,97.55,mg/dL,70.0,100.0,NORMAL,,WEEK 12,7,2025-03-31,84
STUDY001,LB,STUDY001-SUBJ0007,66,L00066,BUN,Blood Urea Nitrogen,CHEMISTRY,7.78,mg/dL,7.0,20.0,7.78,7.78,mg/dL,7.0,20.0,NORMAL,,WEEK 12,7,2025-03-31,84
STUDY001,LB,STUDY001-SUBJ0007,67,L00067,CREAT,Creatinine,CHEMISTRY,0.87,mg/dL,0.6,1.2,0.87,0.87,mg/dL,0.6,1.2,NORMAL,,WEEK 12,7,2025-03-31,84
STUDY001,LB,STUDY001-SUBJ0007,68,L00068,BILI,Total Bilirubin,CHEMISTRY,0.67,mg/dL,0.1,1.2,0.67,0.67,mg/dL,0.1,1.2,NORMAL,,WEEK 12,7,2025-03-31,84
STUDY001,LB,STUDY001-SUBJ0007,69,L00069,ALP,Alkaline Phosphatase,CHEMISTRY,130.69,U/L,44.0,147.0,130.69,130.69,U/L,44.0,147.0,NORMAL,,WEEK 12,7,2025-03-31,84
STUDY001,LB,STUDY001-SUBJ0007,70,L00070,ALT,Alanine Aminotransferase,CHEMISTRY,22.69,U/L,7.0,56.0,22.69,22.69,U/L,7.0,56.0,NORMAL,,WEEK 12,7,2025-03-31,84
STUDY001,LB,STUDY001-SUBJ0007,71,L00071,HGB,Hemoglobin,HEMATOLOGY,15.88,g/dL,13.5,17.5,15.88,15.88,g/dL,13.5,17.5,NORMAL,,WEEK 16,8,2025-04-28,112
STUDY001,LB,STUDY001-SUBJ0007,72,L00072,HCT,Hematocrit,HEMATOLOGY,45.24,%,41.0,51.0,45.24,45.24,%,41.0,51.0,NORMAL,,WEEK 16,8,2025-04-28,112
STUDY001,LB,STUDY001-SUBJ0007,73,L00073,WBC,White Blood Cell Count,HEMATOLOGY,7.21,10^9/L,4.5,11.0,7.21,7.21,10^9/L,4.5,11.0,NORMAL,,WEEK 16,8,2025-04-28,112
STUDY001,LB,STUDY001-SUBJ0007,74,L00074,PLT,Platelet Count,HEMATOLOGY,324.2,10^9/L,150.0,450.0,324.2,324.2,10^9/L,150.0,450.0,NORMAL,,WEEK 16,8,2025-04-28,112
STUDY001,LB,STUDY001-SUBJ0007,75,L00075,GLUC,Glucose,CHEMISTRY,97.21,mg/dL,70.0,100.0,97.21,97.21,mg/dL,70.0,100.0,NORMAL,,WEEK 16,8,2025-04-28,112
STUDY001,LB,STUDY001-SUBJ0007,76,L00076,BUN,Blood Urea Nitrogen,CHEMISTRY,7.71,mg/dL,7.0,20.0,7.71,7.71,mg/dL,7.0,20.0,NORMAL,,WEEK 16,8,2025-04-28,112
STUDY001,LB,STUDY001-SUBJ0007,77,L00077,CREAT,Creatinine,CHEMISTRY,0.89,mg/dL,0.6,1.2,0.89,0.89,mg/dL,0.6,1.2,NORMAL,,WEEK 16,8,2025-04-28,112
STUDY001,LB,STUDY001-SUBJ0007,78,L00078,BILI,Total Bilirubin,CHEMISTRY,0.71,mg/dL,0.1,1.2,0.71,0.71,mg/dL,0.1,1.2,NORMAL,,WEEK 16,8,2025-04-28,112
STUDY001,LB,STUDY001-SUBJ0007,79,L00079,ALP,Alkaline Phosphatase,CHEMISTRY,133.23,U/L,44.0,147.0,133.23,133.23,U/L,44.0,147.0,NORMAL,,WEEK 16,8,2025-04-28,112
STUDY001,LB,STUDY001-SUBJ0007,80,L00080,ALT,Alanine Aminotransferase,CHEMISTRY,19.7,U/L,7.0,56.0,19.7,19.7,U/L,7.0,56.0,NORMAL,,WEEK 16,8,2025-04-28,112
STUDY001,LB,STUDY001-SUBJ0007,81,L00081,HGB,Hemoglobin,HEMATOLOGY,15.86,g/dL,13.5,17.5,15.86,15.86,g/dL,13.5,17.5,NORMAL,,END OF TREATMENT,9,2025-05-26,140
STUDY001,LB,STUDY001-SUBJ0007,82,L00082,HCT,Hematocrit,HEMATOLOGY,44.98,%,41.0,51.0,44.98,44.98,%,41.0,51.0,NORMAL,,END OF TREATMENT,9,2025-05-26,140
STUDY001,LB,STUDY001-SUBJ0007,83,L00083,WBC,White Blood Cell Count,HEMATOLOGY,7.41,10^9/L,4.5,11.0,7.41,7.41,10^9/L,4.5,11.0,NORMAL,,END OF TREATMENT,9,2025-05-26,140
STUDY001,LB,STUDY001-SUBJ0007,84,L00084,PLT,Platelet Count,HEMATOLOGY,318.2,10^9/L,150.0,450.0,318.2,318.2,10^9/L,150.0,450.0,NORMAL,,END OF TREATMENT,9,2025-05-26,140
STUDY001,LB,STUDY001-SUBJ0007,85,L00085,GLUC,Glucose,CHEMISTRY,98.89,mg/dL,70.0,100.0,98.89,98.89,mg/dL,70.0,100.0,NORMAL,,END OF TREATMENT,9,2025-05-26,140
STUDY001,LB,STUDY001-SUBJ0007,86,L00086,BUN,Blood Urea Nitrogen,CHEMISTRY,8.0,mg/dL,7.0,20.0,8.0,8.0,mg/dL,7.0,20.0,NORMAL,,END OF TREATMENT,9,2025-05-26,140
STUDY001,LB,STUDY001-SUBJ0007,87,L00087,CREAT,Creatinine,CHEMISTRY,0.87,mg/dL,0.6,1.2,0.87,0.87,mg/dL,0.6,1.2,NORMAL,,END OF TREATMENT,9,2025-05-26,140
STUDY001,LB,STUDY001-SUBJ0007,88,L00088,BILI,Total Bilirubin,CHEMISTRY,0.68,mg/dL,0.1,1.2,0.68,0.68,mg/dL,0.1,1.2,NORMAL,,END OF TREATMENT,9,2025-05-26,140
STUDY001,LB,STUDY001-SUBJ0007,89,L00089,ALP,Alkaline Phosphatase,CHEMISTRY,135.62,U/L,44.0,147.0,135.62,135.62,U/L,44.0,147.0,NORMAL,,END OF TREATMENT,9,2025-05-26,140
STUDY001,LB,STUDY001-SUBJ0007,90,L00090,ALT,Alanine Aminotransferase,CHEMISTRY,18.93,U/L,7.0,56.0,18.93,18.93,U/L,7.0,56.0,NORMAL,,END OF TREATMENT,9,2025-05-26,140
STUDY001,LB,STUDY001-SUBJ0008,1,L00001,HGB,Hemoglobin,HEMATOLOGY,11.79,g/dL,13.5,17.5,11.79,11.79,g/dL,13.5,17.5,LOW,,SCREENING,1,2025-01-11,-14
STUDY001,LB,STUDY001-SUBJ0008,2,L00002,HCT,Hematocrit,HEMATOLOGY,43.4,%,41.0,51.0,43.4,43.4,%,41.0,51.0,NORMAL,,SCREENING,1,2025-01-11,-14
STUDY001,LB,STUDY001-SUBJ0008,3,L00003,WBC,White Blood Cell Count,HEMATOLOGY,8.62,10^9/L,4.5,11.0,8.62,8.62,10^9/L,4.5,11.0,NORMAL,,SCREENING,1,2025-01-11,-14
STUDY001,LB,STUDY001-SUBJ0008,4,L00004,PLT,Platelet Count,HEMATOLOGY,215.45,10^9/L,150.0,450.0,215.45,215.45,10^9/L,150.0,450.0,NORMAL,,SCREENING,1,2025-01-11,-14
STUDY001,LB,STUDY001-SUBJ0008,5,L00005,GLUC,Glucose,CHEMISTRY,84.57,mg/dL,70.0,100.0,84.57,84.57,mg/dL,70.0,100.0,NORMAL,,SCREENING,1,2025-01-11,-14
STUDY001,LB,STUDY001-SUBJ0008,6,L00006,BUN,Blood Urea Nitrogen,CHEMISTRY,14.34,mg/dL,7.0,20.0,14.34,14.34,mg/dL,7.0,20.0,NORMAL,,SCREENING,1,2025-01-11,-14
STUDY001,LB,STUDY001-SUBJ0008,7,L00007,CREAT,Creatinine,CHEMISTRY,1.07,mg/dL,0.6,1.2,1.07,1.07,mg/dL,0.6,1.2,NORMAL,,SCREENING,1,2025-01-11,-14
STUDY001,LB,STUDY001-SUBJ0008,8,L00008,BILI,Total Bilirubin,CHEMISTRY,0.87,mg/dL,0.1,1.2,0.87,0.87,mg/dL,0.1,1.2,NORMAL,,SCREENING,1,2025-01-11,-14
STUDY001,LB,STUDY001-SUBJ0008,9,L00009,ALP,Alkaline Phosphatase,CHEMISTRY,93.2,U/L,44.0,147.0,93.2,93.2,U/L,44.0,147.0,NORMAL,,SCREENING,1,2025-01-11,-14
STUDY001,LB,STUDY001-SUBJ0008,10,L00010,ALT,Alanine Aminotransferase,CHEMISTRY,41.39,U/L,7.0,56.0,41.39,41.39,U/L,7.0,56.0,NORMAL,,SCREENING,1,2025-01-11,-14
STUDY001,LB,STUDY001-SUBJ0008,11,L00011,HGB,Hemoglobin,HEMATOLOGY,11.89,g/dL,13.5,17.5,11.89,11.89,g/dL,13.5,17.5,LOW,Y,BASELINE,2,2025-01-25,1
STUDY001,LB,STUDY001-SUBJ0008,12,L00012,HCT,Hematocrit,HEMATOLOGY,43.37,%,41.0,51.0,43.37,43.37,%,41.0,51.0,NORMAL,Y,BASELINE,2,2025-01-25,1
STUDY001,LB,STUDY001-SUBJ0008,13,L00013,WBC,White Blood Cell Count,HEMATOLOGY,8.66,10^9/L,4.5,11.0,8.66,8.66,10^9/L,4.5,11.0,NORMAL,Y,BASELINE,2,2025-01-25,1
STUDY001,LB,STUDY001-SUBJ0008,14,L00014,PLT,Platelet Count,HEMATOLOGY,215.67,10^9/L,150.0,450.0,215.67,215.67,10^9/L,150.0,450.0,NORMAL,Y,BASELINE,2,2025-01-25,1
STUDY001,LB,STUDY001-SUBJ0008,15,L00015,GLUC,Glucose,CHEMISTRY,84.22,mg/dL,70.0,100.0,84.22,84.22,mg/dL,70.0,100.0,NORMAL,Y,BASELINE,2,2025-01-25,1
STUDY001,LB,STUDY001-SUBJ0008,16,L00016,BUN,Blood Urea Nitrogen,CHEMISTRY,14.78,mg/dL,7.0,20.0,14.78,14.78,mg/dL,7.0,20.0,NORMAL,Y,BASELINE,2,2025-01-25,1
STUDY001,LB,STUDY001-SUBJ0008,17,L00017,CREAT,Creatinine,CHEMISTRY,1.09,mg/dL,0.6,1.2,1.09,1.09,mg/dL,0.6,1.2,NORMAL,Y,BASELINE,2,2025-01-25,1
STUDY001,LB,STUDY001-SUBJ0008,18,L00018,BILI,Total Bilirubin,CHEMISTRY,0.87,mg/dL,0.1,1.2,0.87,0.87,mg/dL,0.1,1.2,NORMAL,Y,BASELINE,2,2025-01-25,1
STUDY001,LB,STUDY001-SUBJ0008,19,L00019,ALP,Alkaline Phosphatase,CHEMISTRY,86.83,U/L,44.0,147.0,86.83,86.83,U/L,44.0,147.0,NORMAL,Y,BASELINE,2,2025-01-25,1
STUDY001,LB,STUDY001-SUBJ0008,20,L00020,ALT,Alanine Aminotransferase,CHEMISTRY,40.72,U/L,7.0,56.0,40.72,40.72,U/L,7.0,56.0,NORMAL,Y,BASELINE,2,2025-01-25,1
STUDY001,LB,STUDY001-SUBJ0008,21,L00021,HGB,Hemoglobin,HEMATOLOGY,11.94,g/dL,13.5,17.5,11.94,11.94,g/dL,13.5,17.5,LOW,,WEEK 1,3,2025-01-31,7
STUDY001,LB,STUDY001-SUBJ0008,22,L00022,HCT,Hematocrit,HEMATOLOGY,42.7,%,41.0,51.0,42.7,42.7,%,41.0,51.0,NORMAL,,WEEK 1,3,2025-01-31,7
STUDY001,LB,STUDY001-SUBJ0008,23,L00023,WBC,White Blood Cell Count,HEMATOLOGY,8.57,10^9/L,4.5,11.0,8.57,8.57,10^9/L,4.5,11.0,NORMAL,,WEEK 1,3,2025-01-31,7
STUDY001,LB,STUDY001-SUBJ0008,24,L00024,PLT,Platelet Count,HEMATOLOGY,211.26,10^9/L,150.0,450.0,211.26,211.26,10^9/L,150.0,450.0,NORMAL,,WEEK 1,3,2025-01-31,7
STUDY001,LB,STUDY001-SUBJ0008,25,L00025,GLUC,Glucose,CHEMISTRY,84.57,mg/dL,70.0,100.0,84.57,84.57,mg/dL,70.0,100.0,NORMAL,,WEEK 1,3,2025-01-31,7
STUDY001,LB,STUDY001-SUBJ0008,26,L00026,BUN,Blood Urea Nitrogen,CHEMISTRY,14.54,mg/dL,7.0,20.0,14.54,14.54,mg/dL,7.0,20.0,NORMAL,,WEEK 1,3,2025-01-31,7
STUDY001,LB,STUDY001-SUBJ0008,27,L00027,CREAT,Creatinine,CHEMISTRY,1.08,mg/dL,0.6,1.2,1.08,1.08,mg/dL,0.6,1.2,NORMAL,,WEEK 1,3,2025-01-31,7
STUDY001,LB,STUDY001-SUBJ0008,28,L00028,BILI,Total Bilirubin,CHEMISTRY,0.87,mg/dL,0.1,1.2,0.87,0.87,mg/dL,0.1,1.2,NORMAL,,WEEK 1,3,2025-01-31,7
STUDY001,LB,STUDY001-SUBJ0008,29,L00029,ALP,Alkaline Phosphatase,CHEMISTRY,91.28,U/L,44.0,147.0,91.28,91.28,U/L,44.0,147.0,NORMAL,,WEEK 1,3,2025-01-31,7
STUDY001,LB,STUDY001-SUBJ0008,30,L00030,ALT,Alanine Aminotransferase,CHEMISTRY,42.53,U/L,7.0,56.0,42.53,42.53,U/L,7.0,56.0,NORMAL,,WEEK 1,3,2025-01-31,7
STUDY001,LB,STUDY001-SUBJ0008,31,L00031,HGB,Hemoglobin,HEMATOLOGY,11.53,g/dL,13.5,17.5,11.53,11.53,g/dL,13.5,17.5,LOW,,WEEK 2,4,2025-02-07,14
STUDY001,LB,STUDY001-SUBJ0008,32,L00032,HCT,Hematocrit,HEMATOLOGY,42.69,%,41.0,51.0,42.69,42.69,%,41.0,51.0,NORMAL,,WEEK 2,4,2025-02-07,14
STUDY001,LB,STUDY001-SUBJ0008,33,L00033,WBC,White Blood Cell Count,HEMATOLOGY,8.41,10^9/L,4.5,11.0,8.41,8.41,10^9/L,4.5,11.0,NORMAL,,WEEK 2,4,2025-02-07,14
STUDY001,LB,STUDY001-SUBJ0008,34,L00034,PLT,Platelet Count,HEMATOLOGY,214.53,10^9/L,150.0,450.0,214.53,214.53,10^9/L,150.0,450.0,NORMAL,,WEEK 2,4,2025-02-07,14
STUDY001,LB,STUDY001-SUBJ0008,35,L00035,GLUC,Glucose,CHEMISTRY,83.65,mg/dL,70.0,100.0,83.65,83.65,mg/dL,70.0,100.0,NORMAL,,WEEK 2,4,2025-02-07,14
STUDY001,LB,STUDY001-SUBJ0008,36,L00036,BUN,Blood Urea Nitrogen,CHEMISTRY,14.56,mg/dL,7.0,20.0,14.56,14.56,mg/dL,7.0,20.0,NORMAL,,WEEK 2,4,2025-02-07,14
STUDY001,LB,STUDY001-SUBJ0008,37,L00037,CREAT,Creatinine,CHEMISTRY,1.07,mg/dL,0.6,1.2,1.07,1.07,mg/dL,0.6,1.2,NORMAL,,WEEK 2,4,2025-02-07,14
STUDY001,LB,STUDY001-SUBJ0008,38,L00038,BILI,Total Bilirubin,CHEMISTRY,0.88,mg/dL,0.1,1.2,0.88,0.88,mg/dL,0.1,1.2,NORMAL,,WEEK 2,4,2025-02-07,14
STUDY001,LB,STUDY001-SUBJ0008,39,L00039,ALP,Alkaline Phosphatase,CHEMISTRY,91.12,U/L,44.0,147.0,91.12,91.12,U/L,44.0,147.0,NORMAL,,WEEK 2,4,2025-02-07,14
STUDY001,LB,STUDY001-SUBJ0008,40,L00040,ALT,Alanine Aminotransferase,CHEMISTRY,42.58,U/L,7.0,56.0,42.58,42.58,U/L,7.0,56.0,NORMAL,,WEEK 2,4,2025-02-07,14
STUDY001,LB,STUDY001-SUBJ0008,41,L00041,HGB,Hemoglobin,HEMATOLOGY,11.92,g/dL,13.5,17.5,11.92,11.92,g/dL,13.5,17.5,LOW,,WEEK 4,5,2025-02-21,28
STUDY001,LB,STUDY001-SUBJ0008,42,L00042,HCT,Hematocrit,HEMATOLOGY,42.98,%,41.0,51.0,42.98,42.98,%,41.0,51.0,NORMAL,,WEEK 4,5,2025-02-21,28
STUDY001,LB,STUDY001-SUBJ0008,43,L00043,WBC,White Blood Cell Count,HEMATOLOGY,8.7,10^9/L,4.5,11.0,8.7,8.7,10^9/L,4.5,11.0,NORMAL,,WEEK 4,5,2025-02-21,28
STUDY001,LB,STUDY001-SUBJ0008,44,L00044,PLT,Platelet Count,HEMATOLOGY,214.22,10^9/L,150.0,450.0,214.22,214.22,10^9/L,150.0,450.0,NORMAL,,WEEK 4,5,2025-02-21,28
STUDY001,LB,STUDY001-SUBJ0008,45,L00045,GLUC,Glucose,CHEMISTRY,83.33,mg/dL,70.0,100.0,83.33,83.33,mg/dL,70.0,100.0,NORMAL,,WEEK 4,5,2025-02-21,28
STUDY001,LB,STUDY001-SUBJ0008,46,L00046,BUN,Blood Urea Nitrogen,CHEMISTRY,14.22,mg/dL,7.0,20.0,14.22,14.22,mg/dL,7.0,20.0,NORMAL,,WEEK 4,5,2025-02-21,28
STUDY001,LB,STUDY001-SUBJ0008,47,L00047,CREAT,Creatinine,CHEMISTRY,1.05,mg/dL,0.6,1.2,1.05,1.05,mg/dL,0.6,1.2,NORMAL,,WEEK 4,5,2025-02-21,28
STUDY001,LB,STUDY001-SUBJ0008,48,L00048,BILI,Total Bilirubin,CHEMISTRY,0.91,mg/dL,0.1,1.2,0.91,0.91,mg/dL,0.1,1.2,NORMAL,,WEEK 4,5,2025-02-21,28
STUDY001,LB,STUDY001-SUBJ0008,49,L00049,ALP,Alkaline Phosphatase,CHEMISTRY,89.69,U/L,44.0,147.0,89.69,89.69,U/L,44.0,147.0,NORMAL,,WEEK 4,5,2025-02-21,28
STUDY001,LB,STUDY001-SUBJ0008,50,L00050,ALT,Alanine Aminotransferase,CHEMISTRY,42.65,U/L,7.0,56.0,42.65,42.65,U/L,7.0,56.0,NORMAL,,WEEK 4,5,2025-02-21,28
STUDY001,LB,STUDY001-SUBJ0008,51,L00051,HGB,Hemoglobin,HEMATOLOGY,11.85,g/dL,13.5,17.5,11.85,11.85,g/dL,13.5,17.5,LOW,,WEEK 8,6,2025-03-21,56
STUDY001,LB,STUDY001-SUBJ0008,52,L00052,HCT,Hematocrit,HEMATOLOGY,43.17,%,41.0,51.0,43.17,43.17,%,41.0,51.0,NORMAL,,WEEK 8,6,2025-03-21,56
STUDY001,LB,STUDY001-SUBJ0008,53,L00053,WBC,White Blood Cell Count,HEMATOLOGY,8.73,10^9/L,4.5,11.0,8.73,8.73,10^9/L,4.5,11.0,NORMAL,,WEEK 8,6,2025-03-21,56
STUDY001,LB,STUDY001-SUBJ0008,54,L00054,PLT,Platelet Count,HEMATOLOGY,211.31,10^9/L,150.0,450.0,211.31,211.31,10^9/L,150.0,450.0,NORMAL,,WEEK 8,6,2025-03-21,56
STUDY001,LB,STUDY001-SUBJ0008,55,L00055,GLUC,Glucose,CHEMISTRY,82.88,mg/dL,70.0,100.0,82.88,82.88,mg/dL,70.0,100.0,NORMAL,,WEEK 8,6,2025-03-21,56
STUDY001,LB,STUDY001-SUBJ0008,56,L00056,BUN,Blood Urea Nitrogen,CHEMISTRY,15.14,mg/dL,7.0,20.0,15.14,15.14,mg/dL,7.0,20.0,NORMAL,,WEEK 8,6,2025-03-21,56
STUDY001,LB,STUDY001-SUBJ0008,57,L00057,CREAT,Creatinine,CHEMISTRY,1.09,mg/dL,0.6,1.2,1.09,1.09,mg/dL,0.6,1.2,NORMAL,,WEEK 8,6,2025-03-21,56
STUDY001,LB,STUDY001-SUBJ0008,58,L00058,BILI,Total Bilirubin,CHEMISTRY,0.88,mg/dL,0.1,1.2,0.88,0.88,mg/dL,0.1,1.2,NORMAL,,WEEK 8,6,2025-03-21,56
STUDY001,LB,STUDY001-SUBJ0008,59,L00059,ALP,Alkaline Phosphatase,CHEMISTRY,91.86,U/L,44.0,147.0,91.86,91.86,U/L,44.0,147.0,NORMAL,,WEEK 8,6,2025-03-21,56
STUDY001,LB,STUDY001-SUBJ0008,60,L00060,ALT,Alanine Aminotransferase,CHEMISTRY,40.37,U/L,7.0,56.0,40.37,40.37,U/L,7.0,56.0,NORMAL,,WEEK 8,6,2025-03-21,56
STUDY001,LB,STUDY001-SUBJ0008,61,L00061,HGB,Hemoglobin,HEMATOLOGY,11.74,g/dL,13.5,17.5,11.74,11.74,g/dL,13.5,17.5,LOW,,WEEK 12,7,2025-04-18,84
STUDY001,LB,STUDY001-SUBJ0008,62,L00062,HCT,Hematocrit,HEMATOLOGY,42.69,%,41.0,51.0,42.69,42.69,%,41.0,51.0,NORMAL,,WEEK 12,7,2025-04-18,84
STUDY001,LB,STUDY001-SUBJ0008,63,L00063,WBC,White Blood Cell Count,HEMATOLOGY,8.74,10^9/L,4.5,11.0,8.74,8.74,10^9/L,4.5,11.0,NORMAL,,WEEK 12,7,2025-04-18,84
STUDY001,LB,STUDY001-SUBJ0008,64,L00064,PLT,Platelet Count,HEMATOLOGY,209.52,10^9/L,150.0,450.0,209.52,209.52,10^9/L,150.0,450.0,NORMAL,,WEEK 12,7,2025-04-18,84
STUDY001,LB,STUDY001-SUBJ0008,65,L00065,GLUC,Glucose,CHEMISTRY,83.77,mg/dL,70.0,100.0,83.77,83.77,mg/dL,70.0,100.0,NORMAL,,WEEK 12,7,2025-04-18,84
STUDY001,LB,STUDY001-SUBJ0008,66,L00066,BUN,Blood Urea Nitrogen,CHEMISTRY,14.28,mg/dL,7.0,20.0,14.28,14.28,mg/dL,7.0,20.0,NORMAL,,WEEK 12,7,2025-04-18,84
STUDY001,LB,STUDY001-SUBJ0008,67,L00067,CREAT,Creatinine,CHEMISTRY,1.07,mg/dL,0.6,1.2,1.07,1.07,mg/dL,0.6,1.2,NORMAL,,WEEK 12,7,2025-04-18,84
STUDY001,LB,STUDY001-SUBJ0008,68,L00068,BILI,Total Bilirubin,CHEMISTRY,0.87,mg/dL,0.1,1.2,0.87,0.87,mg/dL,0.1,1.2,NORMAL,,WEEK 12,7,2025-04-18,84
STUDY001,LB,STUDY001-SUBJ0008,69,L00069,ALP,Alkaline Phosphatase,CHEMISTRY,91.5,U/L,44.0,147.0,91.5,91.5,U/L,44.0,147.0,NORMAL,,WEEK 12,7,2025-04-18,84
STUDY001,LB,STUDY001-SUBJ0008,70,L00070,ALT,Alanine Aminotransferase,CHEMISTRY,42.59,U/L,7.0,56.0,42.59,42.59,U/L,7.0,56.0,NORMAL,,WEEK 12,7,2025-04-18,84
STUDY001,LB,STUDY001-SUBJ0008,71,L00071,HGB,Hemoglobin,HEMATOLOGY,11.93,g/dL,13.5,17.5,11.93,11.93,g/dL,13.5,17.5,LOW,,WEEK 16,8,2025-05-16,112
STUDY001,LB,STUDY001-SUBJ0008,72,L00072,HCT,Hematocrit,HEMATOLOGY,42.9,%,41.0,51.0,42.9,42.9,%,41.0,51.0,NORMAL,,WEEK 16,8,2025-05-16,112
STUDY001,LB,STUDY001-SUBJ0008,73,L00073,WBC,White Blood Cell Count,HEMATOLOGY,8.62,10^9/L,4.5,11.0,8.62,8.62,10^9/L,4.5,11.0,NORMAL,,WEEK 16,8,2025-05-16,112
STUDY001,LB,STUDY001-SUBJ0008,74,L00074,PLT,Platelet Count,HEMATOLOGY,218.47,10^9/L,150.0,450.0,218.47,218.47,10^9/L,150.0,450.0,NORMAL,,WEEK 16,8,2025-05-16,112
STUDY001,LB,STUDY001-SUBJ0008,75,L00075,GLUC,Glucose,CHEMISTRY,82.97,mg/dL,70.0,100.0,82.97,82.97,mg/dL,70.0,100.0,NORMAL,,WEEK 16,8,2025-05-16,112
STUDY001,LB,STUDY001-SUBJ0008,76,L00076,BUN,Blood Urea Nitrogen,CHEMISTRY,15.0,mg/dL,7.0,20.0,15.0,15.0,mg/dL,7.0,20.0,NORMAL,,WEEK 16,8,2025-05-16,112
STUDY001,LB,STUDY001-SUBJ0008,77,L00077,CREAT,Creatinine,CHEMISTRY,1.06,mg/dL,0.6,1.2,1.06,1.06,mg/dL,0.6,1.2,NORMAL,,WEEK 16,8,2025-05-16,112
STUDY001,LB,STUDY001-SUBJ0008,78,L00078,BILI,Total Bilirubin,CHEMISTRY,0.88,mg/dL,0.1,1.2,0.88,0.88,mg/dL,0.1,1.2,NORMAL,,WEEK 16,8,2025-05-16,112
STUDY001,LB,STUDY001-SUBJ0008,79,L00079,ALP,Alkaline Phosphatase,CHEMISTRY,93.93,U/L,44.0,147.0,93.93,93.93,U/L,44.0,147.0,NORMAL,,WEEK 16,8,2025-05-16,112
STUDY001,LB,STUDY001-SUBJ0008,80,L00080,ALT,Alanine Aminotransferase,CHEMISTRY,42.81,U/L,7.0,56.0,42.81,42.81,U/L,7.0,56.0,NORMAL,,WEEK 16,8,2025-05-16,112
STUDY001,LB,STUDY001-SUBJ0008,81,L00081,HGB,Hemoglobin,HEMATOLOGY,11.82,g/dL,13.5,17.5,11.82,11.82,g/dL,13.5,17.5,LOW,,END OF TREATMENT,9,2025-06-13,140
STUDY001,LB,STUDY001-SUBJ0008,82,L00082,HCT,Hematocrit,HEMATOLOGY,43.13,%,41.0,51.0,43.13,43.13,%,41.0,51.0,NORMAL,,END OF TREATMENT,9,2025-06-13,140
STUDY001,LB,STUDY001-SUBJ0008,83,L00083,WBC,White Blood Cell Count,HEMATOLOGY,8.72,10^9/L,4.5,11.0,8.72,8.72,10^9/L,4.5,11.0,NORMAL,,END OF TREATMENT,9,2025-06-13,140
STUDY001,LB,STUDY001-SUBJ0008,84,L00084,PLT,Platelet Count,HEMATOLOGY,213.77,10^9/L,150.0,450.0,213.77,213.77,10^9/L,150.0,450.0,NORMAL,,END OF TREATMENT,9,2025-06-13,140
STUDY001,LB,STUDY001-SUBJ0008,85,L00085,GLUC,Glucose,CHEMISTRY,80.9,mg/dL,70.0,100.0,80.9,80.9,mg/dL,70.0,100.0,NORMAL,,END OF TREATMENT,9,2025-06-13,140
STUDY001,LB,STUDY001-SUBJ0008,86,L00086,BUN,Blood Urea Nitrogen,CHEMISTRY,14.5,mg/dL,7.0,20.0,14.5,14.5,mg/dL,7.0,20.0,NORMAL,,END OF TREATMENT,9,2025-06-13,140
STUDY001,LB,STUDY001-SUBJ0008,87,L00087,CREAT,Creatinine,CHEMISTRY,1.07,mg/dL,0.6,1.2,1.07,1.07,mg/dL,0.6,1.2,NORMAL,,END OF TREATMENT,9,2025-06-13,140
STUDY001,LB,STUDY001-SUBJ0008,88,L00088,BILI,Total Bilirubin,CHEMISTRY,0.87,mg/dL,0.1,1.2,0.87,0.87,mg/dL,0.1,1.2,NORMAL,,END OF TREATMENT,9,2025-06-13,140
STUDY001,LB,STUDY001-SUBJ0008,89,L00089,ALP,Alkaline Phosphatase,CHEMISTRY,88.83,U/L,44.0,147.0,88.83,88.83,U/L,44.0,147.0,NORMAL,,END OF TREATMENT,9,2025-06-13,140
STUDY001,LB,STUDY001-SUBJ0008,90,L00090,ALT,Alanine Aminotransferase,CHEMISTRY,40.94,U/L,7.0,56.0,40.94,40.94,U/L,7.0,56.0,NORMAL,,END OF TREATMENT,9,2025-06-13,140
STUDY001,LB,STUDY001-SUBJ0009,1,L00001,HGB,Hemoglobin,HEMATOLOGY,16.04,g/dL,13.5,17.5,16.04,16.04,g/dL,13.5,17.5,NORMAL,,SCREENING,1,2024-09-30,-14
STUDY001,LB,STUDY001-SUBJ0009,2,L00002,HCT,Hematocrit,HEMATOLOGY,45.44,%,41.0,51.0,45.44,45.44,%,41.0,51.0,NORMAL,,SCREENING,1,2024-09-30,-14
STUDY001,LB,STUDY001-SUBJ0009,3,L00003,WBC,White Blood Cell Count,HEMATOLOGY,7.24,10^9/L,4.5,11.0,7.24,7.24,10^9/L,4.5,11.0,NORMAL,,SCREENING,1,2024-09-30,-14
STUDY001,LB,STUDY001-SUBJ0009,4,L00004,PLT,Platelet Count,HEMATOLOGY,301.19,10^9/L,150.0,450.0,301.19,301.19,10^9/L,150.0,450.0,NORMAL,,SCREENING,1,2024-09-30,-14
STUDY001,LB,STUDY001-SUBJ0009,5,L00005,GLUC,Glucose,CHEMISTRY,97.18,mg/dL,70.0,100.0,97.18,97.18,mg/dL,70.0,100.0,NORMAL,,SCREENING,1,2024-09-30,-14
STUDY001,LB,STUDY001-SUBJ0009,6,L00006,BUN,Blood Urea Nitrogen,CHEMISTRY,6.84,mg/dL,7.0,20.0,6.84,6.84,mg/dL,7.0,20.0,LOW,,SCREENING,1,2024-09-30,-14
STUDY001,LB,STUDY001-SUBJ0009,7,L00007,CREAT,Creatinine,CHEMISTRY,0.77,mg/dL,0.6,1.2,0.77,0.77,mg/dL,0.6,1.2,NORMAL,,SCREENING,1,2024-09-30,-14
STUDY001,LB,STUDY001-SUBJ0009,8,L00008,BILI,Total Bilirubin,CHEMISTRY,0.59,mg/dL,0.1,1.2,0.59,0.59,mg/dL,0.1,1.2,NORMAL,,SCREENING,1,2024-09-30,-14
STUDY001,LB,STUDY001-SUBJ0009,9,L00009,ALP,Alkaline Phosphatase,CHEMISTRY,94.16,U/L,44.0,147.0,94.16,94.16,U/L,44.0,147.0,NORMAL,,SCREENING,1,2024-09-30,-14
STUDY001,LB,STUDY001-SUBJ0009,10,L00010,ALT,Alanine Aminotransferase,CHEMISTRY,5.06,U/L,7.0,56.0,5.06,5.06,U/L,7.0,56.0,LOW,,SCREENING,1,2024-09-30,-14
STUDY001,LB,STUDY001-SUBJ0009,11,L00011,HGB,Hemoglobin,HEMATOLOGY,16.14,g/dL,13.5,17.5,16.14,16.14,g/dL,13.5,17.5,NORMAL,Y,BASELINE,2,2024-10-14,1
STUDY001,LB,STUDY001-SUBJ0009,12,L00012,HCT,Hematocrit,HEMATOLOGY,45.78,%,41.0,51.0,45.78,45.78,%,41.0,51.0,NORMAL,Y,BASELINE,2,2024-10-14,1
STUDY001,LB,STUDY001-SUBJ0009,13,L00013,WBC,White Blood Cell Count,HEMATOLOGY,7.07,10^9/L,4.5,11.0,7.07,7.07,10^9/L,4.5,11.0,NORMAL,Y,BASELINE,2,2024-10-14,1
STUDY001,LB,STUDY001-SUBJ0009,14,L00014,PLT,Platelet Count,HEMATOLOGY,297.39,10^9/L,150.0,450.0,297.39,297.39,10^9/L,150.0,450.0,NORMAL,Y,BASELINE,2,2024-10-14,1
STUDY001,LB,STUDY001-SUBJ0009,15,L00015,GLUC,Glucose,CHEMISTRY,97.49,mg/dL,70.0,100.0,97.49,97.49,mg/dL,70.0,100.0,NORMAL,Y,BASELINE,2,2024-10-14,1
STUDY001,LB,STUDY001-SUBJ0009,16,L00016,BUN,Blood Urea Nitrogen,CHEMISTRY,6.85,mg/dL,7.0,20.0,6.85,6.85,mg/dL,7.0,20.0,LOW,Y,BASELINE,2,2024-10-14,1
STUDY001,LB,STUDY001-SUBJ0009,17,L00017,CREAT,Creatinine,CHEMISTRY,0.73,mg/dL,0.6,1.2,0.73,0.73,mg/dL,0.6,1.2,NORMAL,Y,BASELINE,2,2024-10-14,1
STUDY001,LB,STUDY001-SUBJ0009,18,L00018,BILI,Total Bilirubin,CHEMISTRY,0.63,mg/dL,0.1,1.2,0.63,0.63,mg/dL,0.1,1.2,NORMAL,Y,BASELINE,2,2024-10-14,1
STUDY001,LB,STUDY001-SUBJ0009,19,L00019,ALP,Alkaline Phosphatase,CHEMISTRY,94.22,U/L,44.0,147.0,94.22,94.22,U/L,44.0,147.0,NORMAL,Y,BASELINE,2,2024-10-14,1
STUDY001,LB,STUDY001-SUBJ0009,20,L00020,ALT,Alanine Aminotransferase,CHEMISTRY,7.02,U/L,7.0,56.0,7.02,7.02,U/L,7.0,56.0,NORMAL,Y,BASELINE,2,2024-10-14,1
STUDY001,LB,STUDY001-SUBJ0009,21,L00021,HGB,Hemoglobin,HEMATOLOGY,16.04,g/dL,13.5,17.5,16.04,16.04,g/dL,13.5,17.5,NORMAL,,WEEK 1,3,2024-10-20,7
STUDY001,LB,STUDY001-SUBJ0009,22,L00022,HCT,Hematocrit,HEMATOLOGY,45.26,%,41.0,51.0,45.26,45.26,%,41.0,51.0,NORMAL,,WEEK 1,3,2024-10-20,7
STUDY001,LB,STUDY001-SUBJ0009,23,L00023,WBC,White Blood Cell Count,HEMATOLOGY,7.17,10^9/L,4.5,11.0,7.17,7.17,10^9/L,4.5,11.0,NORMAL,,WEEK 1,3,2024-10-20,7
STUDY001,LB,STUDY001-SUBJ0009,24,L00024,PLT,Platelet Count,HEMATOLOGY,302.23,10^9/L,150.0,450.0,302.23,302.23,10^9/L,150.0,450.0,NORMAL,,WEEK 1,3,2024-10-20,7
STUDY001,LB,STUDY001-SUBJ0009,25,L00025,GLUC,Glucose,CHEMISTRY,95.52,mg/dL,70.0,100.0,95.52,95.52,mg/dL,70.0,100.0,NORMAL,,WEEK 1,3,2024-10-20,7
STUDY001,LB,STUDY001-SUBJ0009,26,L00026,BUN,Blood Urea Nitrogen,CHEMISTRY,6.56,mg/dL,7.0,20.0,6.56,6.56,mg/dL,7.0,20.0,LOW,,WEEK 1,3,2024-10-20,7
STUDY001,LB,STUDY001-SUBJ0009,27,L00027,CREAT,Creatinine,CHEMISTRY,0.78,mg/dL,0.6,1.2,0.78,0.78,mg/dL,0.6,1.2,NORMAL,,WEEK 1,3,2024-10-20,7
STUDY001,LB,STUDY001-SUBJ0009,28,L00028,BILI,Total Bilirubin,CHEMISTRY,0.6,mg/dL,0.1,1.2,0.6,0.6,mg/dL,0.1,1.2,NORMAL,,WEEK 1,3,2024-10-20,7
STUDY001,LB,STUDY001-SUBJ0009,29,L00029,ALP,Alkaline Phosphatase,CHEMISTRY,94.4,U/L,44.0,147.0,94.4,94.4,U/L,44.0,147.0,NORMAL,,WEEK 1,3,2024-10-20,7
STUDY001,LB,STUDY001-SUBJ0009,30,L00030,ALT,Alanine Aminotransferase,CHEMISTRY,4.34,U/L,7.0,56.0,4.34,4.34,U/L,7.0,56.0,LOW,,WEEK 1,3,2024-10-20,7
STUDY001,LB,STUDY001-SUBJ0009,31,L00031,HGB,Hemoglobin,HEMATOLOGY,16.05,g/dL,13.5,17.5,16.05,16.05,g/dL,13.5,17.5,NORMAL,,WEEK 2,4,2024-10-27,14
STUDY001,LB,STUDY001-SUBJ0009,32,L00032,HCT,Hematocrit,HEMATOLOGY,45.67,%,41.0,51.0,45.67,45.67,%,41.0,51.0,NORMAL,,WEEK 2,4,2024-10-27,14
STUDY001,LB,STUDY001-SUBJ0009,33,L00033,WBC,White Blood Cell Count,HEMATOLOGY,6.99,10^9/L,4.5,11.0,6.99,6.99,10^9/L,4.5,11.0,NORMAL,,WEEK 2,4,2024-10-27,14
STUDY001,LB,STUDY001-SUBJ0009,34,L00034,PLT,Platelet Count,HEMATOLOGY,305.1,10^9/L,150.0,450.0,305.1,305.1,10^9/L,150.0,450.0,NORMAL,,WEEK 2,4,2024-10-27,14
STUDY001,LB,STUDY001-SUBJ0009,35,L00035,GLUC,Glucose,CHEMISTRY,94.28,mg/dL,70.0,100.0,94.28,94.28,mg/dL,70.0,100.0,NORMAL,,WEEK 2,4,2024-10-27,14
STUDY001,LB,STUDY001-SUBJ0009,36,L00036,BUN,Blood Urea Nitrogen,CHEMISTRY,6.45,mg/dL,7.0,20.0,6.45,6.45,mg/dL,7.0,20.0,LOW,,WEEK 2,4,2024-10-27,14
STUDY001,LB,STUDY001-SUBJ0009,37,L00037,CREAT,Creatinine,CHEMISTRY,0.75,mg/dL,0.6,1.2,0.75,0.75,mg/dL,0.6,1.2,NORMAL,,WEEK 2,4,2024-10-27,14
STUDY001,LB,STUDY001-SUBJ0009,38,L00038,BILI,Total Bilirubin,CHEMISTRY,0.58,mg/dL,0.1,1.2,0.58,0.58,mg/dL,0.1,1.2,NORMAL,,WEEK 2,4,2024-10-27,14
STUDY001,LB,STUDY001-SUBJ0009,39,L00039,ALP,Alkaline Phosphatase,CHEMISTRY,97.06,U/L,44.0,147.0,97.06,97.06,U/L,44.0,147.0,NORMAL,,WEEK 2,4,2024-10-27,14
STUDY001,LB,STUDY001-SUBJ0009,40,L00040,ALT,Alanine Aminotransferase,CHEMISTRY,5.11,U/L,7.0,56.0,5.11,5.11,U/L,7.0,56.0,LOW,,WEEK 2,4,2024-10-27,14
STUDY001,LB,STUDY001-SUBJ0009,41,L00041,HGB,Hemoglobin,HEMATOLOGY,16.07,g/dL,13.5,17.5,16.07,16.07,g/dL,13.5,17.5,NORMAL,,WEEK 4,5,2024-11-10,28
STUDY001,LB,STUDY001-SUBJ0009,42,L00042,HCT,Hematocrit,HEMATOLOGY,45.45,%,41.0,51.0,45.45,45.45,%,41.0,51.0,NORMAL,,WEEK 4,5,2024-11-10,28
STUDY001,LB,STUDY001-SUBJ0009,43,L00043,WBC,White Blood Cell Count,HEMATOLOGY,6.89,10^9/L,4.5,11.0,6.89,6.89,10^9/L,4.5,11.0,NORMAL,,WEEK 4,5,2024-11-10,28
STUDY001,LB,STUDY001-SUBJ0009,44,L00044,PLT,Platelet Count,HEMATOLOGY,298.24,10^9/L,150.0,450.0,298.24,298.24,10^9/L,150.0,450.0,NORMAL,,WEEK 4,5,2024-11-10,28
STUDY001,LB,STUDY001-SUBJ0009,45,L00045,GLUC,Glucose,CHEMISTRY,99.47,mg/dL,70.0,100.0,99.47,99.47,mg/dL,70.0,100.0,NORMAL,,WEEK 4,5,2024-11-10,28
STUDY001,LB,STUDY001-SUBJ0009,46,L00046,BUN,Blood Urea Nitrogen,CHEMISTRY,7.07,mg/dL,7.0,20.0,7.07,7.07,mg/dL,7.0,20.0,NORMAL,,WEEK 4,5,2024-11-10,28
STUDY001,LB,STUDY001-SUBJ0009,47,L00047,CREAT,Creatinine,CHEMISTRY,0.72,mg/dL,0.6,1.2,0.72,0.72,mg/dL,0.6,1.2,NORMAL,,WEEK 4,5,2024-11-10,28
STUDY001,LB,STUDY001-SUBJ0009,48,L00048,BILI,Total Bilirubin,CHEMISTRY,0.59,mg/dL,0.1,1.2,0.59,0.59,mg/dL,0.1,1.2,NORMAL,,WEEK 4,5,2024-11-10,28
STUDY001,LB,STUDY001-SUBJ0009,49,L00049,ALP,Alkaline Phosphatase,CHEMISTRY,96.52,U/L,44.0,147.0,96.52,96.52,U/L,44.0,147.0,NORMAL,,WEEK 4,5,2024-11-10,28
STUDY001,LB,STUDY001-SUBJ0009,50,L00050,ALT,Alanine Aminotransferase,CHEMISTRY,6.25,U/L,7.0,56.0,6.25,6.25,U/L,7.0,56.0,LOW,,WEEK 4,5,2024-11-10,28
STUDY001,LB,STUDY001-SUBJ0009,51,L00051,HGB,Hemoglobin,HEMATOLOGY,16.08,g/dL,13.5,17.5,16.08,16.08,g/dL,13.5,17.5,NORMAL,,WEEK 8,6,2024-12-08,56
STUDY001,LB,STUDY001-SUBJ0009,52,L00052,HCT,Hematocrit,HEMATOLOGY,45.68,%,41.0,51.0,45.68,45.68,%,41.0,51.0,NORMAL,,WEEK 8,6,2024-12-08,56
STUDY001,LB,STUDY001-SUBJ0009,53,L00053,WBC,White Blood Cell Count,HEMATOLOGY,6.96,10^9/L,4.5,11.0,6.96,6.96,10^9/L,4.5,11.0,NORMAL,,WEEK 8,6,2024-12-08,56
STUDY001,LB,STUDY001-SUBJ0009,54,L00054,PLT,Platelet Count,HEMATOLOGY,295.65,10^9/L,150.0,450.0,295.65,295.65,10^9/L,150.0,450.0,NORMAL,,WEEK 8,6,2024-12-08,56
STUDY001,LB,STUDY001-SUBJ0009,55,L00055,GLUC,Glucose,CHEMISTRY,93.84,mg/dL,70.0,100.0,93.84,93.84,mg/dL,70.0,100.0,NORMAL,,WEEK 8,6,2024-12-08,56
STUDY001,LB,STUDY001-SUBJ0009,56,L00056,BUN,Blood Urea Nitrogen,CHEMISTRY,6.59,mg/dL,7.0,20.0,6.59,6.59,mg/dL,7.0,20.0,LOW,,WEEK 8,6,2024-12-08,56
STUDY001,LB,STUDY001-SUBJ0009,57,L00057,CREAT,Creatinine,CHEMISTRY,0.74,mg/dL,0.6,1.2,0.74,0.74,mg/dL,0.6,1.2,NORMAL,,WEEK 8,6,2024-12-08,56
STUDY001,LB,STUDY001-SUBJ0009,58,L00058,BILI,Total Bilirubin,CHEMISTRY,0.6,mg/dL,0.1,1.2,0.6,0.6,mg/dL,0.1,1.2,NORMAL,,WEEK 8,6,2024-12-08,56
STUDY001,LB,STUDY001-SUBJ0009,59,L00059,ALP,Alkaline Phosphatase,CHEMISTRY,92.99,U/L,44.0,147.0,92.99,92.99,U/L,44.0,147.0,NORMAL,,WEEK 8,6,2024-12-08,56
STUDY001,LB,STUDY001-SUBJ0009,60,L00060,ALT,Alanine Aminotransferase,CHEMISTRY,7.55,U/L,7.0,56.0,7.55,7.55,U/L,7.0,56.0,NORMAL,,WEEK 8,6,2024-12-08,56
STUDY001,LB,STUDY001-SUBJ0009,61,L00061,HGB,Hemoglobin,HEMATOLOGY,15.96,g/dL,13.5,17.5,15.96,15.96,g/dL,13.5,17.5,NORMAL,,WEEK 12,7,2025-01-05,84
STUDY001,LB,STUDY001-SUBJ0009,62,L00062,HCT,Hematocrit,HEMATOLOGY,45.41,%,41.0,51.0,45.41,45.41,%,41.0,51.0,NORMAL,,WEEK 12,7,2025-01-05,84
STUDY001,LB,STUDY001-SUBJ0009,63,L00063,WBC,White Blood Cell Count,HEMATOLOGY,6.88,10^9/L,4.5,11.0,6.88,6.88,10^9/L,4.5,11.0,NORMAL,,WEEK 12,7,2025-01-05,84
STUDY001,LB,STUDY001-SUBJ0009,64,L00064,PLT,Platelet Count,HEMATOLOGY,297.49,10^9/L,150.0,450.0,297.49,297.49,10^9/L,150.0,450.0,NORMAL,,WEEK 12,7,2025-01-05,84
STUDY001,LB,STUDY001-SUBJ0009,65,L00065,GLUC,Glucose,CHEMISTRY,95.17,mg/dL,70.0,100.0,95.17,95.17,mg/dL,70.0,100.0,NORMAL,,WEEK 12,7,2025-01-05,84
STUDY001,LB,STUDY001-SUBJ0009,66,L00066,BUN,Blood Urea Nitrogen,CHEMISTRY,6.97,mg/dL,7.0,20.0,6.97,6.97,mg/dL,7.0,20.0,LOW,,WEEK 12,7,2025-01-05,84
STUDY001,LB,STUDY001-SUBJ0009,67,L00067,CREAT,Creatinine,CHEMISTRY,0.76,mg/dL,0.6,1.2,0.76,0.76,mg/dL,0.6,1.2,NORMAL,,WEEK 12,7,2025-01-05,84
STUDY001,LB,STUDY001-SUBJ0009,68,L00068,BILI,Total Bilirubin,CHEMISTRY,0.59,mg/dL,0.1,1.2,0.59,0.59,mg/dL,0.1,1.2,NORMAL,,WEEK 12,7,2025-01-05,84
STUDY001,LB,STUDY001-SUBJ0009,69,L00069,ALP,Alkaline Phosphatase,CHEMISTRY,99.19,U/L,44.0,147.0,99.19,99.19,U/L,44.0,147.0,NORMAL,,WEEK 12,7,2025-01-05,84
STUDY001,LB,STUDY001-SUBJ0009,70,L00070,ALT,Alanine Aminotransferase,CHEMISTRY,6.39,U/L,7.0,56.0,6.39,6.39,U/L,7.0,56.0,LOW,,WEEK 12,7,2025-01-05,84
STUDY001,LB,STUDY001-SUBJ0009,71,L00071,HGB,Hemoglobin,HEMATOLOGY,15.96,g/dL,13.5,17.5,15.96,15.96,g/dL,13.5,17.5,NORMAL,,WEEK 16,8,2025-02-02,112
STUDY001,LB,STUDY001-SUBJ0009,72,L00072,HCT,Hematocrit,HEMATOLOGY,45.75,%,41.0,51.0,45.75,45.75,%,41.0,51.0,NORMAL,,WEEK 16,8,2025-02-02,112
STUDY001,LB,STUDY001-SUBJ0009,73,L00073,WBC,White Blood Cell Count,HEMATOLOGY,6.73,10^9/L,4.5,11.0,6.73,6.73,10^9/L,4.5,11.0,NORMAL,,WEEK 16,8,2025-02-02,112
STUDY001,LB,STUDY001-SUBJ0009,74,L00074,PLT,Platelet Count,HEMATOLOGY,302.71,10^9/L,150.0,450.0,302.71,302.71,10^9/L,150.0,450.0,NORMAL,,WEEK 16,8,2025-02-02,112
STUDY001,LB,STUDY001-SUBJ0009,75,L00075,GLUC,Glucose,CHEMISTRY,95.68,mg/dL,70.0,100.0,95.68,95.68,mg/dL,70.0,100.0,NORMAL,,WEEK 16,8,2025-02-02,112
STUDY001,LB,STUDY001-SUBJ0009,76,L00076,BUN,Blood Urea Nitrogen,CHEMISTRY,6.21,mg/dL,7.0,20.0,6.21,6.21,mg/dL,7.0,20.0,LOW,,WEEK 16,8,2025-02-02,112
STUDY001,LB,STUDY001-SUBJ0009,77,L00077,CREAT,Creatinine,CHEMISTRY,0.77,mg/dL,0.6,1.2,0.77,0.77,mg/dL,0.6,1.2,NORMAL,,WEEK 16,8,2025-02-02,112
STUDY001,LB,STUDY001-SUBJ0009,78,L00078,BILI,Total Bilirubin,CHEMISTRY,0.62,mg/dL,0.1,1.2,0.62,0.62,mg/dL,0.1,1.2,NORMAL,,WEEK 16,8,2025-02-02,112
STUDY001,LB,STUDY001-SUBJ0009,79,L00079,ALP,Alkaline Phosphatase,CHEMISTRY,92.39,U/L,44.0,147.0,92.39,92.39,U/L,44.0,147.0,NORMAL,,WEEK 16,8,2025-02-02,112
STUDY001,LB,STUDY001-SUBJ0009,80,L00080,ALT,Alanine Aminotransferase,CHEMISTRY,4.19,U/L,7.0,56.0,4.19,4.19,U/L,7.0,56.0,LOW,,WEEK 16,8,2025-02-02,112
STUDY001,LB,STUDY001-SUBJ0009,81,L00081,HGB,Hemoglobin,HEMATOLOGY,16.07,g/dL,13.5,17.5,16.07,16.07,g/dL,13.5,17.5,NORMAL,,END OF TREATMENT,9,2025-03-02,140
STUDY001,LB,STUDY001-SUBJ0009,82,L00082,HCT,Hematocrit,HEMATOLOGY,45.82,%,41.0,51.0,45.82,45.82,%,41.0,51.0,NORMAL,,END OF TREATMENT,9,2025-03-02,140
STUDY001,LB,STUDY001-SUBJ0009,83,L00083,WBC,White Blood Cell Count,HEMATOLOGY,7.08,10^9/L,4.5,11.0,7.08,7.08,10^9/L,4.5,11.0,NORMAL,,END OF TREATMENT,9,2025-03-02,140
STUDY001,LB,STUDY001-SUBJ0009,84,L00084,PLT,Platelet Count,HEMATOLOGY,301.56,10^9/L,150.0,450.0,301.56,301.56,10^9/L,150.0,450.0,NORMAL,,END OF TREATMENT,9,2025-03-02,140
STUDY001,LB,STUDY001-SUBJ0009,85,L00085,GLUC,Glucose,CHEMISTRY,98.23,mg/dL,70.0,100.0,98.23,98.23,mg/dL,70.0,100.0,NORMAL,,END OF TREATMENT,9,2025-03-02,140
STUDY001,LB,STUDY001-SUBJ0009,86,L00086,BUN,Blood Urea Nitrogen,CHEMISTRY,7.21,mg/dL,7.0,20.0,7.21,7.21,mg/dL,7.0,20.0,NORMAL,,END OF TREATMENT,9,2025-03-02,140
STUDY001,LB,STUDY001-SUBJ0009,87,L00087,CREAT,Creatinine,CHEMISTRY,0.73,mg/dL,0.6,1.2,0.73,0.73,mg/dL,0.6,1.2,NORMAL,,END OF TREATMENT,9,2025-03-02,140
STUDY001,LB,STUDY001-SUBJ0009,88,L00088,BILI,Total Bilirubin,CHEMISTRY,0.63,mg/dL,0.1,1.2,0.63,0.63,mg/dL,0.1,1.2,NORMAL,,END OF TREATMENT,9,2025-03-02,140
STUDY001,LB,STUDY001-SUBJ0009,89,L00089,ALP,Alkaline Phosphatase,CHEMISTRY,93.16,U/L,44.0,147.0,93.16,93.16,U/L,44.0,147.0,NORMAL,,END OF TREATMENT,9,2025-03-02,140
STUDY001,LB,STUDY001-SUBJ0009,90,L00090,ALT,Alanine Aminotransferase,CHEMISTRY,7.32,U/L,7.0,56.0,7.32,7.32,U/L,7.0,56.0,NORMAL,,END OF TREATMENT,9,2025-03-02,140
STUDY001,LB,STUDY001-SUBJ0010,1,L00001,HGB,Hemoglobin,HEMATOLOGY,17.04,g/dL,13.5,17.5,17.04,17.04,g/dL,13.5,17.5,NORMAL,,SCREENING,1,2024-09-10,-14
STUDY001,LB,STUDY001-SUBJ0010,2,L00002,HCT,Hematocrit,HEMATOLOGY,46.43,%,41.0,51.0,46.43,46.43,%,41.0,51.0,NORMAL,,SCREENING,1,2024-09-10,-14
STUDY001,LB,STUDY001-SUBJ0010,3,L00003,WBC,White Blood Cell Count,HEMATOLOGY,5.49,10^9/L,4.5,11.0,5.49,5.49,10^9/L,4.5,11.0,NORMAL,,SCREENING,1,2024-09-10,-14
STUDY001,LB,STUDY001-SUBJ0010,4,L00004,PLT,Platelet Count,HEMATOLOGY,395.22,10^9/L,150.0,450.0,395.22,395.22,10^9/L,150.0,450.0,NORMAL,,SCREENING,1,2024-09-10,-14
STUDY001,LB,STUDY001-SUBJ0010,5,L00005,GLUC,Glucose,CHEMISTRY,78.19,mg/dL,70.0,100.0,78.19,78.19,mg/dL,70.0,100.0,NORMAL,,SCREENING,1,2024-09-10,-14
STUDY001,LB,STUDY001-SUBJ0010,6,L00006,BUN,Blood Urea Nitrogen,CHEMISTRY,6.06,mg/dL,7.0,20.0,6.06,6.06,mg/dL,7.0,20.0,LOW,,SCREENING,1,2024-09-10,-14
STUDY001,LB,STUDY001-SUBJ0010,7,L00007,CREAT,Creatinine,CHEMISTRY,1.24,mg/dL,0.6,1.2,1.24,1.24,mg/dL,0.6,1.2,HIGH,,SCREENING,1,2024-09-10,-14
STUDY001,LB,STUDY001-SUBJ0010,8,L00008,BILI,Total Bilirubin,CHEMISTRY,0.57,mg/dL,0.1,1.2,0.57,0.57,mg/dL,0.1,1.2,NORMAL,,SCREENING,1,2024-09-10,-14
STUDY001,LB,STUDY001-SUBJ0010,9,L00009,ALP,Alkaline Phosphatase,CHEMISTRY,90.0,U/L,44.0,147.0,90.0,90.0,U/L,44.0,147.0,NORMAL,,SCREENING,1,2024-09-10,-14
STUDY001,LB,STUDY001-SUBJ0010,10,L00010,ALT,Alanine Aminotransferase,CHEMISTRY,28.57,U/L,7.0,56.0,28.57,28.57,U/L,7.0,56.0,NORMAL,,SCREENING,1,2024-09-10,-14
STUDY001,LB,STUDY001-SUBJ0010,11,L00011,HGB,Hemoglobin,HEMATOLOGY,17.31,g/dL,13.5,17.5,17.31,17.31,g/dL,13.5,17.5,NORMAL,Y,BASELINE,2,2024-09-24,1
STUDY001,LB,STUDY001-SUBJ0010,12,L00012,HCT,Hematocrit,HEMATOLOGY,46.46,%,41.0,51.0,46.46,46.46,%,41.0,51.0,NORMAL,Y,BASELINE,2,2024-09-24,1
STUDY001,LB,STUDY001-SUBJ0010,13,L00013,WBC,White Blood Cell Count,HEMATOLOGY,5.45,10^9/L,4.5,11.0,5.45,5.45,10^9/L,4.5,11.0,NORMAL,Y,BASELINE,2,2024-09-24,1
STUDY001,LB,STUDY001-SUBJ0010,14,L00014,PLT,Platelet Count,HEMATOLOGY,385.31,10^9/L,150.0,450.0,385.31,385.31,10^9/L,150.0,450.0,NORMAL,Y,BASELINE,2,2024-09-24,1
STUDY001,LB,STUDY001-SUBJ0010,15,L00015,GLUC,Glucose,CHEMISTRY,77.03,mg/dL,70.0,100.0,77.03,77.03,mg/dL,70.0,100.0,NORMAL,Y,BASELINE,2,2024-09-24,1
STUDY001,LB,STUDY001-SUBJ0010,16,L00016,BUN,Blood Urea Nitrogen,CHEMISTRY,5.57,mg/dL,7.0,20.0,5.57,5.57,mg/dL,7.0,20.0,LOW,Y,BASELINE,2,2024-09-24,1
STUDY001,LB,STUDY001-SUBJ0010,17,L00017,CREAT,Creatinine,CHEMISTRY,1.23,mg/dL,0.6,1.2,1.23,1.23,mg/dL,0.6,1.2,HIGH,Y,BASELINE,2,2024-09-24,1
STUDY001,LB,STUDY001-SUBJ0010,18,L00018,BILI,Total Bilirubin,CHEMISTRY,0.53,mg/dL,0.1,1.2,0.53,0.53,mg/dL,0.1,1.2,NORMAL,Y,BASELINE,2,2024-09-24,1
STUDY001,LB,STUDY001-SUBJ0010,19,L00019,ALP,Alkaline Phosphatase,CHEMISTRY,87.34,U/L,44.0,147.0,87.34,87.34,U/L,44.0,147.0,NORMAL,Y,BASELINE,2,2024-09-24,1
STUDY001,LB,STUDY001-SUBJ0010,20,L00020,ALT,Alanine Aminotransferase,CHEMISTRY,32.35,U/L,7.0,56.0,32.35,32.35,U/L,7.0,56.0,NORMAL,Y,BASELINE,2,2024-09-24,1
STUDY001,LB,STUDY001-SUBJ0010,21,L00021,HGB,Hemoglobin,HEMATOLOGY,17.39,g/dL,13.5,17.5,17.39,17.39,g/dL,13.5,17.5,NORMAL,,WEEK 1,3,2024-09-30,7
STUDY001,LB,STUDY001-SUBJ0010,22,L00022,HCT,Hematocrit,HEMATOLOGY,47.01,%,41.0,51.0,47.01,47.01,%,41.0,51.0,NORMAL,,WEEK 1,3,2024-09-30,7
STUDY001,LB,STUDY001-SUBJ0010,23,L00023,WBC,White Blood Cell Count,HEMATOLOGY,5.53,10^9/L,4.5,11.0,5.53,5.53,10^9/L,4.5,11.0,NORMAL,,WEEK 1,3,2024-09-30,7
STUDY001,LB,STUDY001-SUBJ0010,24,L00024,PLT,Platelet Count,HEMATOLOGY,377.23,10^9/L,150.0,450.0,377.23,377.23,10^9/L,150.0,450.0,NORMAL,,WEEK 1,3,2024-09-30,7
STUDY001,LB,STUDY001-SUBJ0010,25,L00025,GLUC,Glucose,CHEMISTRY,77.94,mg/dL,70.0,100.0,77.94,77.94,mg/dL,70.0,100.0,NORMAL,,WEEK 1,3,2024-09-30,7
STUDY001,LB,STUDY001-SUBJ0010,26,L00026,BUN,Blood Urea Nitrogen,CHEMISTRY,5.48,mg/dL,7.0,20.0,5.48,5.48,mg/dL,7.0,20.0,LOW,,WEEK 1,3,2024-09-30,7
STUDY001,LB,STUDY001-SUBJ0010,27,L00027,CREAT,Creatinine,CHEMISTRY,1.25,mg/dL,0.6,1.2,1.25,1.25,mg/dL,0.6,1.2,HIGH,,WEEK 1,3,2024-09-30,7
STUDY001,LB,STUDY001-SUBJ0010,28,L00028,BILI,Total Bilirubin,CHEMISTRY,0.56,mg/dL,0.1,1.2,0.56,0.56,mg/dL,0.1,1.2,NORMAL,,WEEK 1,3,2024-09-30,7
STUDY001,LB,STUDY001-SUBJ0010,29,L00029,ALP,Alkaline Phosphatase,CHEMISTRY,93.02,U/L,44.0,147.0,93.02,93.02,U/L,44.0,147.0,NORMAL,,WEEK 1,3,2024-09-30,7
STUDY001,LB,STUDY001-SUBJ0010,30,L00030,ALT,Alanine Aminotransferase,CHEMISTRY,29.64,U/L,7.0,56.0,29.64,29.64,U/L,7.0,56.0,NORMAL,,WEEK 1,3,2024-09-30,7
STUDY001,LB,STUDY001-SUBJ0010,31,L00031,HGB,Hemoglobin,HEMATOLOGY,17.37,g/dL,13.5,17.5,17.37,17.37,g/dL,13.5,17.5,NORMAL,,WEEK 2,4,2024-10-07,14
STUDY001,LB,STUDY001-SUBJ0010,32,L00032,HCT,Hematocrit,HEMATOLOGY,46.53,%,41.0,51.0,46.53,46.53,%,41.0,51.0,NORMAL,,WEEK 2,4,2024-10-07,14
STUDY001,LB,STUDY001-SUBJ0010,33,L00033,WBC,White Blood Cell Count,HEMATOLOGY,5.64,10^9/L,4.5,11.0,5.64,5.64,10^9/L,4.5,11.0,NORMAL,,WEEK 2,4,2024-10-07,14
STUDY001,LB,STUDY001-SUBJ0010,34,L00034,PLT,Platelet Count,HEMATOLOGY,386.84,10^9/L,150.0,450.0,386.84,386.84,10^9/L,150.0,450.0,NORMAL,,WEEK 2,4,2024-10-07,14
STUDY001,LB,STUDY001-SUBJ0010,35,L00035,GLUC,Glucose,CHEMISTRY,76.54,mg/dL,70.0,100.0,76.54,76.54,mg/dL,70.0,100.0,NORMAL,,WEEK 2,4,2024-10-07,14
STUDY001,LB,STUDY001-SUBJ0010,36,L00036,BUN,Blood Urea Nitrogen,CHEMISTRY,5.08,mg/dL,7.0,20.0,5.08,5.08,mg/dL,7.0,20.0,LOW,,WEEK 2,4,2024-10-07,14
STUDY001,LB,STUDY001-SUBJ0010,37,L00037,CREAT,Creatinine,CHEMISTRY,1.21,mg/dL,0.6,1.2,1.21,1.21,mg/dL,0.6,1.2,HIGH,,WEEK 2,4,2024-10-07,14
STUDY001,LB,STUDY001-SUBJ0010,38,L00038,BILI,Total Bilirubin,CHEMISTRY,0.54,mg/dL,0.1,1.2,0.54,0.54,mg/dL,0.1,1.2,NORMAL,,WEEK 2,4,2024-10-07,14
STUDY001,LB,STUDY001-SUBJ0010,39,L00039,ALP,Alkaline Phosphatase,CHEMISTRY,88.69,U/L,44.0,147.0,88.69,88.69,U/L,44.0,147.0,NORMAL,,WEEK 2,4,2024-10-07,14
STUDY001,LB,STUDY001-SUBJ0010,40,L00040,ALT,Alanine Aminotransferase,CHEMISTRY,29.83,U/L,7.0,56.0,29.83,29.83,U/L,7.0,56.0,NORMAL,,WEEK 2,4,2024-10-07,14
STUDY001,LB,STUDY001-SUBJ0010,41,L00041,HGB,Hemoglobin,HEMATOLOGY,17.4,g/dL,13.5,17.5,17.4,17.4,g/dL,13.5,17.5,NORMAL,,WEEK 4,5,2024-10-21,28
STUDY001,LB,STUDY001-SUBJ0010,42,L00042,HCT,Hematocrit,HEMATOLOGY,45.86,%,41.0,51.0,45.86,45.86,%,41.0,51.0,NORMAL,,WEEK 4,5,2024-10-21,28
STUDY001,LB,STUDY001-SUBJ0010,43,L00043,WBC,White Blood Cell Count,HEMATOLOGY,5.79,10^9/L,4.5,11.0,5.79,5.79,10^9/L,4.5,11.0,NORMAL,,WEEK 4,5,2024-10-21,28
STUDY001,LB,STUDY001-SUBJ0010,44,L00044,PLT,Platelet Count,HEMATOLOGY,383.34,10^9/L,150.0,450.0,383.34,383.34,10^9/L,150.0,450.0,NORMAL,,WEEK 4,5,2024-10-21,28
STUDY001,LB,STUDY001-SUBJ0010,45,L00045,GLUC,Glucose,CHEMISTRY,77.2,mg/dL,70.0,100.0,77.2,77.2,mg/dL,70.0,100.0,NORMAL,,WEEK 4,5,2024-10-21,28
STUDY001,LB,STUDY001-SUBJ0010,46,L00046,BUN,Blood Urea Nitrogen,CHEMISTRY,5.72,mg/dL,7.0,20.0,5.72,5.72,mg/dL,7.0,20.0,LOW,,WEEK 4,5,2024-10-21,28
STUDY001,LB,STUDY001-SUBJ0010,47,L00047,CREAT,Creatinine,CHEMISTRY,1.23,mg/dL,0.6,1.2,1.23,1.23,mg/dL,0.6,1.2,HIGH,,WEEK 4,5,2024-10-21,28
STUDY001,LB,STUDY001-SUBJ0010,48,L00048,BILI,Total Bilirubin,CHEMISTRY,0.51,mg/dL,0.1,1.2,0.51,0.51,mg/dL,0.1,1.2,NORMAL,,WEEK 4,5,2024-10-21,28
STUDY001,LB,STUDY001-SUBJ0010,49,L00049,ALP,Alkaline Phosphatase,CHEMISTRY,94.38,U/L,44.0,147.0,94.38,94.38,U/L,44.0,147.0,NORMAL,,WEEK 4,5,2024-10-21,28
STUDY001,LB,STUDY001-SUBJ0010,50,L00050,ALT,Alanine Aminotransferase,CHEMISTRY,28.88,U/L,7.0,56.0,28.88,28.88,U/L,7.0,56.0,NORMAL,,WEEK 4,5,2024-10-21,28
STUDY001,LB,STUDY001-SUBJ0010,51,L00051,HGB,Hemoglobin,HEMATOLOGY,17.24,g/dL,13.5,17.5,17.24,17.24,g/dL,13.5,17.5,NORMAL,,WEEK 8,6,2024-11-18,56
STUDY001,LB,STUDY001-SUBJ0010,52,L00052,HCT,Hematocrit,HEMATOLOGY,46.87,%,41.0,51.0,46.87,46.87,%,41.0,51.0,NORMAL,,WEEK 8,6,2024-11-18,56
STUDY001,LB,STUDY001-SUBJ0010,53,L00053,WBC,White Blood Cell Count,HEMATOLOGY,5.58,10^9/L,4.5,11.0,5.58,5.58,10^9/L,4.5,11.0,NORMAL,,WEEK 8,6,2024-11-18,56
STUDY001,LB,STUDY001-SUBJ0010,54,L00054,PLT,Platelet Count,HEMATOLOGY,387.5,10^9/L,150.0,450.0,387.5,387.5,10^9/L,150.0,450.0,NORMAL,,WEEK 8,6,2024-11-18,56
STUDY001,LB,STUDY001-SUBJ0010,55,L00055,GLUC,Glucose,CHEMISTRY,76.71,mg/dL,70.0,100.0,76.71,76.71,mg/dL,70.0,100.0,NORMAL,,WEEK 8,6,2024-11-18,56
STUDY001,LB,STUDY001-SUBJ0010,56,L00056,BUN,Blood Urea Nitrogen,CHEMISTRY,5.44,mg/dL,7.0,20.0,5.44,5.44,mg/dL,7.0,20.0,LOW,,WEEK 8,6,2024-11-18,56
STUDY001,LB,STUDY001-SUBJ0010,57,L00057,CREAT,Creatinine,CHEMISTRY,1.26,mg/dL,0.6,1.2,1.26,1.26,mg/dL,0.6,1.2,HIGH,,WEEK 8,6,2024-11-18,56
STUDY001,LB,STUDY001-SUBJ0010,58,L00058,BILI,Total Bilirubin,CHEMISTRY,0.58,mg/dL,0.1,1.2,0.58,0.58,mg/dL,0.1,1.2,NORMAL,,WEEK 8,6,2024-11-18,56
STUDY001,LB,STUDY001-SUBJ0010,59,L00059,ALP,Alkaline Phosphatase,CHEMISTRY,89.27,U/L,44.0,147.0,89.27,89.27,U/L,44.0,147.0,NORMAL,,WEEK 8,6,2024-11-18,56
STUDY001,LB,STUDY001-SUBJ0010,60,L00060,ALT,Alanine Aminotransferase,CHEMISTRY,29.57,U/L,7.0,56.0,29.57,29.57,U/L,7.0,56.0,NORMAL,,WEEK 8,6,2024-11-18,56
STUDY001,LB,STUDY001-SUBJ0010,61,L00061,HGB,Hemoglobin,HEMATOLOGY,17.19,g/dL,13.5,17.5,17.19,17.19,g/dL,13.5,17.5,NORMAL,,WEEK 12,7,2024-12-16,84
STUDY001,LB,STUDY001-SUBJ0010,62,L00062,HCT,Hematocrit,HEMATOLOGY,46.41,%,41.0,51.0,46.41,46.41,%,41.0,51.0,NORMAL,,WEEK 12,7,2024-12-16,84
STUDY001,LB,STUDY001-SUBJ0010,63,L00063,WBC,White Blood Cell Count,HEMATOLOGY,5.75,10^9/L,4.5,11.0,5.75,5.75,10^9/L,4.5,11.0,NORMAL,,WEEK 12,7,2024-12-16,84
STUDY001,LB,STUDY001-SUBJ0010,64,L00064,PLT,Platelet Count,HEMATOLOGY,383.93,10^9/L,150.0,450.0,383.93,383.93,10^9/L,150.0,450.0,NORMAL,,WEEK 12,7,2024-12-16,84
STUDY001,LB,STUDY001-SUBJ0010,65,L00065,GLUC,Glucose,CHEMISTRY,78.53,mg/dL,70.0,100.0,78.53,78.53,mg/dL,70.0,100.0,NORMAL,,WEEK 12,7,2024-12-16,84
STUDY001,LB,STUDY001-SUBJ0010,66,L00066,BUN,Blood Urea Nitrogen,CHEMISTRY,5.67,mg/dL,7.0,20.0,5.67,5.67,mg/dL,7.0,20.0,LOW,,WEEK 12,7,2024-12-16,84
STUDY001,LB,STUDY001-SUBJ0010,67,L00067,CREAT,Creatinine,CHEMISTRY,1.24,mg/dL,0.6,1.2,1.24,1.24,mg/dL,0.6,1.2,HIGH,,WEEK 12,7,2024-12-16,84
STUDY001,LB,STUDY001-SUBJ0010,68,L00068,BILI,Total Bilirubin,CHEMISTRY,0.55,mg/dL,0.1,1.2,0.55,0.55,mg/dL,0.1,1.2,NORMAL,,WEEK 12,7,2024-12-16,84
STUDY001,LB,STUDY001-SUBJ0010,69,L00069,ALP,Alkaline Phosphatase,CHEMISTRY,89.89,U/L,44.0,147.0,89.89,89.89,U/L,44.0,147.0,NORMAL,,WEEK 12,7,2024-12-16,84
STUDY001,LB,STUDY001-SUBJ0010,70,L00070,ALT,Alanine Aminotransferase,CHEMISTRY,29.49,U/L,7.0,56.0,29.49,29.49,U/L,7.0,56.0,NORMAL,,WEEK 12,7,2024-12-16,84
STUDY001,LB,STUDY001-SUBJ0010,71,L00071,HGB,Hemoglobin,HEMATOLOGY,17.43,g/dL,13.5,17.5,17.43,17.43,g/dL,13.5,17.5,NORMAL,,WEEK 16,8,2025-01-13,112
STUDY001,LB,STUDY001-SUBJ0010,72,L00072,HCT,Hematocrit,HEMATOLOGY,46.74,%,41.0,51.0,46.74,46.74,%,41.0,51.0,NORMAL,,WEEK 16,8,2025-01-13,112
STUDY001,LB,STUDY001-SUBJ0010,73,L00073,WBC,White Blood Cell Count,HEMATOLOGY,5.69,10^9/L,4.5,11.0,5.69,5.69,10^9/L,4.5,11.0,NORMAL,,WEEK 16,8,2025-01-13,112
STUDY001,LB,STUDY001-SUBJ0010,74,L00074,PLT,Platelet Count,HEMATOLOGY,387.71,10^9/L,150.0,450.0,387.71,387.71,10^9/L,150.0,450.0,NORMAL,,WEEK 16,8,2025-01-13,112
STUDY001,LB,STUDY001-SUBJ0010,75,L00075,GLUC,Glucose,CHEMISTRY,77.22,mg/dL,70.0,100.0,77.22,77.22,mg/dL,70.0,100.0,NORMAL,,WEEK 16,8,2025-01-13,112
STUDY001,LB,STUDY001-SUBJ0010,76,L00076,BUN,Blood Urea Nitrogen,CHEMISTRY,5.0,mg/dL,7.0,20.0,5.0,5.0,mg/dL,7.0,20.0,LOW,,WEEK 16,8,2025-01-13,112
STUDY001,LB,STUDY001-SUBJ0010,77,L00077,CREAT,Creatinine,CHEMISTRY,1.23,mg/dL,0.6,1.2,1.23,1.23,mg/dL,0.6,1.2,HIGH,,WEEK 16,8,2025-01-13,112
STUDY001,LB,STUDY001-SUBJ0010,78,L00078,BILI,Total Bilirubin,CHEMISTRY,0.54,mg/dL,0.1,1.2,0.54,0.54,mg/dL,0.1,1.2,NORMAL,,WEEK 16,8,2025-01-13,112
STUDY001,LB,STUDY001-SUBJ0010,79,L00079,ALP,Alkaline Phosphatase,CHEMISTRY,87.88,U/L,44.0,147.0,87.88,87.88,U/L,44.0,147.0,NORMAL,,WEEK 16,8,2025-01-13,112
STUDY001,LB,STUDY001-SUBJ0010,80,L00080,ALT,Alanine Aminotransferase,CHEMISTRY,29.31,U/L,7.0,56.0,29.31,29.31,U/L,7.0,56.0,NORMAL,,WEEK 16,8,2025-01-13,112
STUDY001,LB,STUDY001-SUBJ0010,81,L00081,HGB,Hemoglobin,HEMATOLOGY,17.17,g/dL,13.5,17.5,17.17,17.17,g/dL,13.5,17.5,NORMAL,,END OF TREATMENT,9,2025-02-10,140
STUDY001,LB,STUDY001-SUBJ0010,82,L00082,HCT,Hematocrit,HEMATOLOGY,46.24,%,41.0,51.0,46.24,46.24,%,41.0,51.0,NORMAL,,END OF TREATMENT,9,2025-02-10,140
STUDY001,LB,STUDY001-SUBJ0010,83,L00083,WBC,White Blood Cell Count,HEMATOLOGY,5.36,10^9/L,4.5,11.0,5.36,5.36,10^9/L,4.5,11.0,NORMAL,,END OF TREATMENT,9,2025-02-10,140
STUDY001,LB,STUDY001-SUBJ0010,84,L00084,PLT,Platelet Count,HEMATOLOGY,378.79,10^9/L,150.0,450.0,378.79,378.79,10^9/L,150.0,450.0,NORMAL,,END OF TREATMENT,9,2025-02-10,140
STUDY001,LB,STUDY001-SUBJ0010,85,L00085,GLUC,Glucose,CHEMISTRY,78.34,mg/dL,70.0,100.0,78.34,78.34,mg/dL,70.0,100.0,NORMAL,,END OF TREATMENT,9,2025-02-10,140
STUDY001,LB,STUDY001-SUBJ0010,86,L00086,BUN,Blood Urea Nitrogen,CHEMISTRY,5.69,mg/dL,7.0,20.0,5.69,5.69,mg/dL,7.0,20.0,LOW,,END OF TREATMENT,9,2025-02-10,140
STUDY001,LB,STUDY001-SUBJ0010,87,L00087,CREAT,Creatinine,CHEMISTRY,1.25,mg/dL,0.6,1.2,1.25,1.25,mg/dL,0.6,1.2,HIGH,,END OF TREATMENT,9,2025-02-10,140
STUDY001,LB,STUDY001-SUBJ0010,88,L00088,BILI,Total Bilirubin,CHEMISTRY,0.5,mg/dL,0.1,1.2,0.5,0.5,mg/dL,0.1,1.2,NORMAL,,END OF TREATMENT,9,2025-02-10,140
STUDY001,LB,STUDY001-SUBJ0010,89,L00089,ALP,Alkaline Phosphatase,CHEMISTRY,91.48,U/L,44.0,147.0,91.48,91.48,U/L,44.0,147.0,NORMAL,,END OF TREATMENT,9,2025-02-10,140
STUDY001,LB,STUDY001-SUBJ0010,90,L00090,ALT,Alanine Aminotransferase,CHEMISTRY,30.01,U/L,7.0,56.0,30.01,30.01,U/L,7.0,56.0,NORMAL,,END OF TREATMENT,9,2025-02-10,140
