STUDYID,DOMAIN,USUBJID,VSSEQ,VSTESTCD,VSTEST,VSORRES,VSORRESU,VSSTRESC,VSSTRESN,VSSTRESU,VSBLFL,VISIT,VISITNUM,VSDTC,VSDY
STUDY001,VS,STUDY001-SUBJ0001,1,HEIGHT,Height,154.8,cm,154.8,154.8,cm,,SCREENING,1,2025-07-02,-14
STUDY001,VS,STUDY001-SUBJ0001,2,WEIGHT,Weight,79.7,kg,79.7,79.7,kg,,SCREENING,1,2025-07-02,-14
STUDY001,VS,STUDY001-SUBJ0001,3,TEMP,Temperature,36.5,C,36.5,36.5,C,,SCREENING,1,2025-07-02,-14
STUDY001,VS,STUDY001-SUBJ0001,4,BP,Blood Pressure,132/98,mmHg,132/98,,mmHg,,SCREENING,1,2025-07-02,-14
STUDY001,VS,STUDY001-SUBJ0001,5,HR,Heart Rate,67,beats/min,67,67.0,beats/min,,SCREENING,1,2025-07-02,-14
STUDY001,VS,STUDY001-SUBJ0001,6,HEIGHT,Height,154.7,cm,154.7,154.7,cm,Y,BASELINE,2,2025-07-16,1
STUDY001,VS,STUDY001-SUBJ0001,7,WEIGHT,Weight,78.7,kg,78.7,78.7,kg,Y,BASELINE,2,2025-07-16,1
STUDY001,VS,STUDY001-SUBJ0001,8,TEMP,Temperature,36.5,C,36.5,36.5,C,Y,BASELINE,2,2025-07-16,1
STUDY001,VS,STUDY001-SUBJ0001,9,BP,Blood Pressure,127/101,mmHg,127/101,,mmHg,Y,BASELINE,2,2025-07-16,1
STUDY001,VS,STUDY001-SUBJ0001,10,HR,Heart Rate,69,beats/min,69,69.0,beats/min,Y,BASELINE,2,2025-07-16,1
STUDY001,VS,STUDY001-SUBJ0001,11,HEIGHT,Height,154.6,cm,154.6,154.6,cm,,WEEK 1,3,2025-07-22,7
STUDY001,VS,STUDY001-SUBJ0001,12,WEIGHT,Weight,78.0,kg,78.0,78.0,kg,,WEEK 1,3,2025-07-22,7
STUDY001,VS,STUDY001-SUBJ0001,13,TEMP,Temperature,36.3,C,36.3,36.3,C,,WEEK 1,3,2025-07-22,7
STUDY001,VS,STUDY001-SUBJ0001,14,BP,Blood Pressure,129/96,mmHg,129/96,,mmHg,,WEEK 1,3,2025-07-22,7
STUDY001,VS,STUDY001-SUBJ0001,15,HR,Heart Rate,67,beats/min,67,67.0,beats/min,,WEEK 1,3,2025-07-22,7
STUDY001,VS,STUDY001-SUBJ0001,16,HEIGHT,Height,155.0,cm,155.0,155.0,cm,,WEEK 2,4,2025-07-29,14
STUDY001,VS,STUDY001-SUBJ0001,17,WEIGHT,Weight,78.1,kg,78.1,78.1,kg,,WEEK 2,4,2025-07-29,14
STUDY001,VS,STUDY001-SUBJ0001,18,TEMP,Temperature,36.4,C,36.4,36.4,C,,WEEK 2,4,2025-07-29,14
STUDY001,VS,STUDY001-SUBJ0001,19,BP,Blood Pressure,127/96,mmHg,127/96,,mmHg,,WEEK 2,4,2025-07-29,14
STUDY001,VS,STUDY001-SUBJ0001,20,HR,Heart Rate,66,beats/min,66,66.0,beats/min,,WEEK 2,4,2025-07-29,14
STUDY001,VS,STUDY001-SUBJ0001,21,HEIGHT,Height,154.8,cm,154.8,154.8,cm,,WEEK 4,5,2025-08-12,28
STUDY001,VS,STUDY001-SUBJ0001,22,WEIGHT,Weight,78.3,kg,78.3,78.3,kg,,WEEK 4,5,2025-08-12,28
STUDY001,VS,STUDY001-SUBJ0001,23,TEMP,Temperature,36.0,C,36.0,36.0,C,,WEEK 4,5,2025-08-12,28
STUDY001,VS,STUDY001-SUBJ0001,24,BP,Blood Pressure,128/95,mmHg,128/95,,mmHg,,WEEK 4,5,2025-08-12,28
STUDY001,VS,STUDY001-SUBJ0001,25,HR,Heart Rate,67,beats/min,67,67.0,beats/min,,WEEK 4,5,2025-08-12,28
STUDY001,VS,STUDY001-SUBJ0001,26,HEIGHT,Height,154.8,cm,154.8,154.8,cm,,WEEK 8,6,2025-09-09,56
STUDY001,VS,STUDY001-SUBJ0001,27,WEIGHT,Weight,78.9,kg,78.9,78.9,kg,,WEEK 8,6,2025-09-09,56
STUDY001,VS,STUDY001-SUBJ0001,28,TEMP,Temperature,36.1,C,36.1,36.1,C,,WEEK 8,6,2025-09-09,56
STUDY001,VS,STUDY001-SUBJ0001,29,BP,Blood Pressure,125/103,mmHg,125/103,,mmHg,,WEEK 8,6,2025-09-09,56
STUDY001,VS,STUDY001-SUBJ0001,30,HR,Heart Rate,64,beats/min,64,64.0,beats/min,,WEEK 8,6,2025-09-09,56
STUDY001,VS,STUDY001-SUBJ0001,31,HEIGHT,Height,154.9,cm,154.9,154.9,cm,,WEEK 12,7,2025-10-07,84
STUDY001,VS,STUDY001-SUBJ0001,32,WEIGHT,Weight,79.4,kg,79.4,79.4,kg,,WEEK 12,7,2025-10-07,84
STUDY001,VS,STUDY001-SUBJ0001,33,TEMP,Temperature,36.4,C,36.4,36.4,C,,WEEK 12,7,2025-10-07,84
STUDY001,VS,STUDY001-SUBJ0001,34,BP,Blood Pressure,131/98,mmHg,131/98,,mmHg,,WEEK 12,7,2025-10-07,84
STUDY001,VS,STUDY001-SUBJ0001,35,HR,Heart Rate,72,beats/min,72,72.0,beats/min,,WEEK 12,7,2025-10-07,84
STUDY001,VS,STUDY001-SUBJ0001,36,HEIGHT,Height,154.7,cm,154.7,154.7,cm,,WEEK 16,8,2025-11-04,112
STUDY001,VS,STUDY001-SUBJ0001,37,WEIGHT,Weight,79.6,kg,79.6,79.6,kg,,WEEK 16,8,2025-11-04,112
STUDY001,VS,STUDY001-SUBJ0001,38,TEMP,Temperature,36.0,C,36.0,36.0,C,,WEEK 16,8,2025-11-04,112
STUDY001,VS,STUDY001-SUBJ0001,39,BP,Blood Pressure,127/102,mmHg,127/102,,mmHg,,WEEK 16,8,2025-11-04,112
STUDY001,VS,STUDY001-SUBJ0001,40,HR,Heart Rate,66,beats/min,66,66.0,beats/min,,WEEK 16,8,2025-11-04,112
STUDY001,VS,STUDY001-SUBJ0001,41,HEIGHT,Height,154.6,cm,154.6,154.6,cm,,END OF TREATMENT,9,2025-12-02,140
STUDY001,VS,STUDY001-SUBJ0001,42,WEIGHT,Weight,79.4,kg,79.4,79.4,kg,,END OF TREATMENT,9,2025-12-02,140
STUDY001,VS,STUDY001-SUBJ0001,43,TEMP,Temperature,36.0,C,36.0,36.0,C,,END OF TREATMENT,9,2025-12-02,140
STUDY001,VS,STUDY001-SUBJ0001,44,BP,Blood Pressure,131/103,mmHg,131/103,,mmHg,,END OF TREATMENT,9,2025-12-02,140
STUDY001,VS,STUDY001-SUBJ0001,45,HR,Heart Rate,70,beats/min,70,70.0,beats/min,,END OF TREATMENT,9,2025-12-02,140
STUDY001,VS,STUDY001-SUBJ0002,1,HEIGHT,Height,180.9,cm,180.9,180.9,cm,,SCREENING,1,2024-10-28,-14
STUDY001,VS,STUDY001-SUBJ0002,2,WEIGHT,Weight,74.5,kg,74.5,74.5,kg,,SCREENING,1,2024-10-28,-14
STUDY001,VS,STUDY001-SUBJ0002,3,TEMP,Temperature,37.2,C,37.2,37.2,C,,SCREENING,1,2024-10-28,-14
STUDY001,VS,STUDY001-SUBJ0002,4,BP,Blood Pressure,108/76,mmHg,108/76,,mmHg,,SCREENING,1,2024-10-28,-14
STUDY001,VS,STUDY001-SUBJ0002,5,HR,Heart Rate,75,beats/min,75,75.0,beats/min,,SCREENING,1,2024-10-28,-14
STUDY001,VS,STUDY001-SUBJ0002,6,HEIGHT,Height,180.7,cm,180.7,180.7,cm,Y,BASELINE,2,2024-11-11,1
STUDY001,VS,STUDY001-SUBJ0002,7,WEIGHT,Weight,74.2,kg,74.2,74.2,kg,Y,BASELINE,2,2024-11-11,1
STUDY001,VS,STUDY001-SUBJ0002,8,TEMP,Temperature,37.2,C,37.2,37.2,C,Y,BASELINE,2,2024-11-11,1
STUDY001,VS,STUDY001-SUBJ0002,9,BP,Blood Pressure,104/75,mmHg,104/75,,mmHg,Y,BASELINE,2,2024-11-11,1
STUDY001,VS,STUDY001-SUBJ0002,10,HR,Heart Rate,72,beats/min,72,72.0,beats/min,Y,BASELINE,2,2024-11-11,1
STUDY001,VS,STUDY001-SUBJ0002,11,HEIGHT,Height,181.1,cm,181.1,181.1,cm,,WEEK 1,3,2024-11-17,7
STUDY001,VS,STUDY001-SUBJ0002,12,WEIGHT,Weight,73.6,kg,73.6,73.6,kg,,WEEK 1,3,2024-11-17,7
STUDY001,VS,STUDY001-SUBJ0002,13,TEMP,Temperature,36.9,C,36.9,36.9,C,,WEEK 1,3,2024-11-17,7
STUDY001,VS,STUDY001-SUBJ0002,14,BP,Blood Pressure,106/83,mmHg,106/83,,mmHg,,WEEK 1,3,2024-11-17,7
STUDY001,VS,STUDY001-SUBJ0002,15,HR,Heart Rate,77,beats/min,77,77.0,beats/min,,WEEK 1,3,2024-11-17,7
STUDY001,VS,STUDY001-SUBJ0002,16,HEIGHT,Height,181.0,cm,181.0,181.0,cm,,WEEK 2,4,2024-11-24,14
STUDY001,VS,STUDY001-SUBJ0002,17,WEIGHT,Weight,74.4,kg,74.4,74.4,kg,,WEEK 2,4,2024-11-24,14
STUDY001,VS,STUDY001-SUBJ0002,18,TEMP,Temperature,37.2,C,37.2,37.2,C,,WEEK 2,4,2024-11-24,14
STUDY001,VS,STUDY001-SUBJ0002,19,BP,Blood Pressure,104/79,mmHg,104/79,,mmHg,,WEEK 2,4,2024-11-24,14
STUDY001,VS,STUDY001-SUBJ0002,20,HR,Heart Rate,74,beats/min,74,74.0,beats/min,,WEEK 2,4,2024-11-24,14
STUDY001,VS,STUDY001-SUBJ0002,21,HEIGHT,Height,181.0,cm,181.0,181.0,cm,,WEEK 4,5,2024-12-08,28
STUDY001,VS,STUDY001-SUBJ0002,22,WEIGHT,Weight,74.7,kg,74.7,74.7,kg,,WEEK 4,5,2024-12-08,28
STUDY001,VS,STUDY001-SUBJ0002,23,TEMP,Temperature,37.2,C,37.2,37.2,C,,WEEK 4,5,2024-12-08,28
STUDY001,VS,STUDY001-SUBJ0002,24,BP,Blood Pressure,105/76,mmHg,105/76,,mmHg,,WEEK 4,5,2024-12-08,28
STUDY001,VS,STUDY001-SUBJ0002,25,HR,Heart Rate,75,beats/min,75,75.0,beats/min,,WEEK 4,5,2024-12-08,28
STUDY001,VS,STUDY001-SUBJ0002,26,HEIGHT,Height,180.8,cm,180.8,180.8,cm,,WEEK 8,6,2025-01-05,56
STUDY001,VS,STUDY001-SUBJ0002,27,WEIGHT,Weight,73.9,kg,73.9,73.9,kg,,WEEK 8,6,2025-01-05,56
STUDY001,VS,STUDY001-SUBJ0002,28,TEMP,Temperature,37.2,C,37.2,37.2,C,,WEEK 8,6,2025-01-05,56
STUDY001,VS,STUDY001-SUBJ0002,29,BP,Blood Pressure,111/77,mmHg,111/77,,mmHg,,WEEK 8,6,2025-01-05,56
STUDY001,VS,STUDY001-SUBJ0002,30,HR,Heart Rate,76,beats/min,76,76.0,beats/min,,WEEK 8,6,2025-01-05,56
STUDY001,VS,STUDY001-SUBJ0002,31,HEIGHT,Height,180.8,cm,180.8,180.8,cm,,WEEK 12,7,2025-02-02,84
STUDY001,VS,STUDY001-SUBJ0002,32,WEIGHT,Weight,73.4,kg,73.4,73.4,kg,,WEEK 12,7,2025-02-02,84
STUDY001,VS,STUDY001-SUBJ0002,33,TEMP,Temperature,37.0,C,37.0,37.0,C,,WEEK 12,7,2025-02-02,84
STUDY001,VS,STUDY001-SUBJ0002,34,BP,Blood Pressure,104/81,mmHg,104/81,,mmHg,,WEEK 12,7,2025-02-02,84
STUDY001,VS,STUDY001-SUBJ0002,35,HR,Heart Rate,74,beats/min,74,74.0,beats/min,,WEEK 12,7,2025-02-02,84
STUDY001,VS,STUDY001-SUBJ0002,36,HEIGHT,Height,180.9,cm,180.9,180.9,cm,,WEEK 16,8,2025-03-02,112
STUDY001,VS,STUDY001-SUBJ0002,37,WEIGHT,Weight,74.5,kg,74.5,74.5,kg,,WEEK 16,8,2025-03-02,112
STUDY001,VS,STUDY001-SUBJ0002,38,TEMP,Temperature,37.2,C,37.2,37.2,C,,WEEK 16,8,2025-03-02,112
STUDY001,VS,STUDY001-SUBJ0002,39,BP,Blood Pressure,107/81,mmHg,107/81,,mmHg,,WEEK 16,8,2025-03-02,112
STUDY001,VS,STUDY001-SUBJ0002,40,HR,Heart Rate,73,beats/min,73,73.0,beats/min,,WEEK 16,8,2025-03-02,112
STUDY001,VS,STUDY001-SUBJ0002,41,HEIGHT,Height,180.9,cm,180.9,180.9,cm,,END OF TREATMENT,9,2025-03-30,140
STUDY001,VS,STUDY001-SUBJ0002,42,WEIGHT,Weight,73.4,kg,73.4,73.4,kg,,END OF TREATMENT,9,2025-03-30,140
STUDY001,VS,STUDY001-SUBJ0002,43,TEMP,Temperature,37.1,C,37.1,37.1,C,,END OF TREATMENT,9,2025-03-30,140
STUDY001,VS,STUDY001-SUBJ0002,44,BP,Blood Pressure,111/82,mmHg,111/82,,mmHg,,END OF TREATMENT,9,2025-03-30,140
STUDY001,VS,STUDY001-SUBJ0002,45,HR,Heart Rate,79,beats/min,79,79.0,beats/min,,END OF TREATMENT,9,2025-03-30,140
STUDY001,VS,STUDY001-SUBJ0003,1,HEIGHT,Height,194.6,cm,194.6,194.6,cm,,SCREENING,1,2025-03-15,-14
STUDY001,VS,STUDY001-SUBJ0003,2,WEIGHT,Weight,68.8,kg,68.8,68.8,kg,,SCREENING,1,2025-03-15,-14
STUDY001,VS,STUDY001-SUBJ0003,3,TEMP,Temperature,36.2,C,36.2,36.2,C,,SCREENING,1,2025-03-15,-14
STUDY001,VS,STUDY001-SUBJ0003,4,BP,Blood Pressure,120/100,mmHg,120/100,,mmHg,,SCREENING,1,2025-03-15,-14
STUDY001,VS,STUDY001-SUBJ0003,5,HR,Heart Rate,77,beats/min,77,77.0,beats/min,,SCREENING,1,2025-03-15,-14
STUDY001,VS,STUDY001-SUBJ0003,6,HEIGHT,Height,194.8,cm,194.8,194.8,cm,Y,BASELINE,2,2025-03-29,1
STUDY001,VS,STUDY001-SUBJ0003,7,WEIGHT,Weight,69.1,kg,69.1,69.1,kg,Y,BASELINE,2,2025-03-29,1
STUDY001,VS,STUDY001-SUBJ0003,8,TEMP,Temperature,36.2,C,36.2,36.2,C,Y,BASELINE,2,2025-03-29,1
STUDY001,VS,STUDY001-SUBJ0003,9,BP,Blood Pressure,115/100,mmHg,115/100,,mmHg,Y,BASELINE,2,2025-03-29,1
STUDY001,VS,STUDY001-SUBJ0003,10,HR,Heart Rate,83,beats/min,83,83.0,beats/min,Y,BASELINE,2,2025-03-29,1
STUDY001,VS,STUDY001-SUBJ0003,11,HEIGHT,Height,194.7,cm,194.7,194.7,cm,,WEEK 1,3,2025-04-04,7
STUDY001,VS,STUDY001-SUBJ0003,12,WEIGHT,Weight,70.7,kg,70.7,70.7,kg,,WEEK 1,3,2025-04-04,7
STUDY001,VS,STUDY001-SUBJ0003,13,TEMP,Temperature,36.5,C,36.5,36.5,C,,WEEK 1,3,2025-04-04,7
STUDY001,VS,STUDY001-SUBJ0003,14,BP,Blood Pressure,116/94,mmHg,116/94,,mmHg,,WEEK 1,3,2025-04-04,7
STUDY001,VS,STUDY001-SUBJ0003,15,HR,Heart Rate,79,beats/min,79,79.0,beats/min,,WEEK 1,3,2025-04-04,7
STUDY001,VS,STUDY001-SUBJ0003,16,HEIGHT,Height,194.6,cm,194.6,194.6,cm,,WEEK 2,4,2025-04-11,14
STUDY001,VS,STUDY001-SUBJ0003,17,WEIGHT,Weight,70.5,kg,70.5,70.5,kg,,WEEK 2,4,2025-04-11,14
STUDY001,VS,STUDY001-SUBJ0003,18,TEMP,Temperature,36.6,C,36.6,36.6,C,,WEEK 2,4,2025-04-11,14
STUDY001,VS,STUDY001-SUBJ0003,19,BP,Blood Pressure,115/101,mmHg,115/101,,mmHg,,WEEK 2,4,2025-04-11,14
STUDY001,VS,STUDY001-SUBJ0003,20,HR,Heart Rate,78,beats/min,78,78.0,beats/min,,WEEK 2,4,2025-04-11,14
STUDY001,VS,STUDY001-SUBJ0003,21,HEIGHT,Height,194.7,cm,194.7,194.7,cm,,WEEK 4,5,2025-04-25,28
STUDY001,VS,STUDY001-SUBJ0003,22,WEIGHT,Weight,69.0,kg,69.0,69.0,kg,,WEEK 4,5,2025-04-25,28
STUDY001,VS,STUDY001-SUBJ0003,23,TEMP,Temperature,36.6,C,36.6,36.6,C,,WEEK 4,5,2025-04-25,28
STUDY001,VS,STUDY001-SUBJ0003,24,BP,Blood Pressure,112/97,mmHg,112/97,,mmHg,,WEEK 4,5,2025-04-25,28
STUDY001,VS,STUDY001-SUBJ0003,25,HR,Heart Rate,82,beats/min,82,82.0,beats/min,,WEEK 4,5,2025-04-25,28
STUDY001,VS,STUDY001-SUBJ0003,26,HEIGHT,Height,194.6,cm,194.6,194.6,cm,,WEEK 8,6,2025-05-23,56
STUDY001,VS,STUDY001-SUBJ0003,27,WEIGHT,Weight,69.1,kg,69.1,69.1,kg,,WEEK 8,6,2025-05-23,56
STUDY001,VS,STUDY001-SUBJ0003,28,TEMP,Temperature,36.1,C,36.1,36.1,C,,WEEK 8,6,2025-05-23,56
STUDY001,VS,STUDY001-SUBJ0003,29,BP,Blood Pressure,116/97,mmHg,116/97,,mmHg,,WEEK 8,6,2025-05-23,56
STUDY001,VS,STUDY001-SUBJ0003,30,HR,Heart Rate,78,beats/min,78,78.0,beats/min,,WEEK 8,6,2025-05-23,56
STUDY001,VS,STUDY001-SUBJ0003,31,HEIGHT,Height,194.7,cm,194.7,194.7,cm,,WEEK 12,7,2025-06-20,84
STUDY001,VS,STUDY001-SUBJ0003,32,WEIGHT,Weight,69.2,kg,69.2,69.2,kg,,WEEK 12,7,2025-06-20,84
STUDY001,VS,STUDY001-SUBJ0003,33,TEMP,Temperature,36.5,C,36.5,36.5,C,,WEEK 12,7,2025-06-20,84
STUDY001,VS,STUDY001-SUBJ0003,34,BP,Blood Pressure,110/94,mmHg,110/94,,mmHg,,WEEK 12,7,2025-06-20,84
STUDY001,VS,STUDY001-SUBJ0003,35,HR,Heart Rate,85,beats/min,85,85.0,beats/min,,WEEK 12,7,2025-06-20,84
STUDY001,VS,STUDY001-SUBJ0003,36,HEIGHT,Height,194.5,cm,194.5,194.5,cm,,WEEK 16,8,2025-07-18,112
STUDY001,VS,STUDY001-SUBJ0003,37,WEIGHT,Weight,68.9,kg,68.9,68.9,kg,,WEEK 16,8,2025-07-18,112
STUDY001,VS,STUDY001-SUBJ0003,38,TEMP,Temperature,36.6,C,36.6,36.6,C,,WEEK 16,8,2025-07-18,112
STUDY001,VS,STUDY001-SUBJ0003,39,BP,Blood Pressure,118/93,mmHg,118/93,,mmHg,,WEEK 16,8,2025-07-18,112
STUDY001,VS,STUDY001-SUBJ0003,40,HR,Heart Rate,80,beats/min,80,80.0,beats/min,,WEEK 16,8,2025-07-18,112
STUDY001,VS,STUDY001-SUBJ0003,41,HEIGHT,Height,194.8,cm,194.8,194.8,cm,,END OF TREATMENT,9,2025-08-15,140
STUDY001,VS,STUDY001-SUBJ0003,42,WEIGHT,Weight,70.2,kg,70.2,70.2,kg,,END OF TREATMENT,9,2025-08-15,140
STUDY001,VS,STUDY001-SUBJ0003,43,TEMP,Temperature,36.5,C,36.5,36.5,C,,END OF TREATMENT,9,2025-08-15,140
STUDY001,VS,STUDY001-SUBJ0003,44,BP,Blood Pressure,120/97,mmHg,120/97,,mmHg,,END OF TREATMENT,9,2025-08-15,140
STUDY001,VS,STUDY001-SUBJ0003,45,HR,Heart Rate,79,beats/min,79,79.0,beats/min,,END OF TREATMENT,9,2025-08-15,140
STUDY001,VS,STUDY001-SUBJ0004,1,HEIGHT,Height,152.1,cm,152.1,152.1,cm,,SCREENING,1,2025-02-13,-14
STUDY001,VS,STUDY001-SUBJ0004,2,WEIGHT,Weight,52.1,kg,52.1,52.1,kg,,SCREENING,1,2025-02-13,-14
STUDY001,VS,STUDY001-SUBJ0004,3,TEMP,Temperature,36.3,C,36.3,36.3,C,,SCREENING,1,2025-02-13,-14
STUDY001,VS,STUDY001-SUBJ0004,4,BP,Blood Pressure,140/74,mmHg,140/74,,mmHg,,SCREENING,1,2025-02-13,-14
STUDY001,VS,STUDY001-SUBJ0004,5,HR,Heart Rate,74,beats/min,74,74.0,beats/min,,SCREENING,1,2025-02-13,-14
STUDY001,VS,STUDY001-SUBJ0004,6,HEIGHT,Height,152.2,cm,152.2,152.2,cm,Y,BASELINE,2,2025-02-27,1
STUDY001,VS,STUDY001-SUBJ0004,7,WEIGHT,Weight,53.5,kg,53.5,53.5,kg,Y,BASELINE,2,2025-02-27,1
STUDY001,VS,STUDY001-SUBJ0004,8,TEMP,Temperature,36.1,C,36.1,36.1,C,Y,BASELINE,2,2025-02-27,1
STUDY001,VS,STUDY001-SUBJ0004,9,BP,Blood Pressure,142/77,mmHg,142/77,,mmHg,Y,BASELINE,2,2025-02-27,1
STUDY001,VS,STUDY001-SUBJ0004,10,HR,Heart Rate,82,beats/min,82,82.0,beats/min,Y,BASELINE,2,2025-02-27,1
STUDY001,VS,STUDY001-SUBJ0004,11,HEIGHT,Height,152.1,cm,152.1,152.1,cm,,WEEK 1,3,2025-03-05,7
STUDY001,VS,STUDY001-SUBJ0004,12,WEIGHT,Weight,53.4,kg,53.4,53.4,kg,,WEEK 1,3,2025-03-05,7
STUDY001,VS,STUDY001-SUBJ0004,13,TEMP,Temperature,36.5,C,36.5,36.5,C,,WEEK 1,3,2025-03-05,7
STUDY001,VS,STUDY001-SUBJ0004,14,BP,Blood Pressure,144/78,mmHg,144/78,,mmHg,,WEEK 1,3,2025-03-05,7
STUDY001,VS,STUDY001-SUBJ0004,15,HR,Heart Rate,77,beats/min,77,77.0,beats/min,,WEEK 1,3,2025-03-05,7
STUDY001,VS,STUDY001-SUBJ0004,16,HEIGHT,Height,152.2,cm,152.2,152.2,cm,,WEEK 2,4,2025-03-12,14
STUDY001,VS,STUDY001-SUBJ0004,17,WEIGHT,Weight,53.4,kg,53.4,53.4,kg,,WEEK 2,4,2025-03-12,14
STUDY001,VS,STUDY001-SUBJ0004,18,TEMP,Temperature,36.0,C,36.0,36.0,C,,WEEK 2,4,2025-03-12,14
STUDY001,VS,STUDY001-SUBJ0004,19,BP,Blood Pressure,142/70,mmHg,142/70,,mmHg,,WEEK 2,4,2025-03-12,14
STUDY001,VS,STUDY001-SUBJ0004,20,HR,Heart Rate,75,beats/min,75,75.0,beats/min,,WEEK 2,4,2025-03-12,14
STUDY001,VS,STUDY001-SUBJ0004,21,HEIGHT,Height,152.2,cm,152.2,152.2,cm,,WEEK 4,5,2025-03-26,28
STUDY001,VS,STUDY001-SUBJ0004,22,WEIGHT,Weight,53.8,kg,53.8,53.8,kg,,WEEK 4,5,2025-03-26,28
STUDY001,VS,STUDY001-SUBJ0004,23,TEMP,Temperature,36.2,C,36.2,36.2,C,,WEEK 4,5,2025-03-26,28
STUDY001,VS,STUDY001-SUBJ0004,24,BP,Blood Pressure,145/74,mmHg,145/74,,mmHg,,WEEK 4,5,2025-03-26,28
STUDY001,VS,STUDY001-SUBJ0004,25,HR,Heart Rate,81,beats/min,81,81.0,beats/min,,WEEK 4,5,2025-03-26,28
STUDY001,VS,STUDY001-SUBJ0004,26,HEIGHT,Height,152.2,cm,152.2,152.2,cm,,WEEK 8,6,2025-04-23,56
STUDY001,VS,STUDY001-SUBJ0004,27,WEIGHT,Weight,54.1,kg,54.1,54.1,kg,,WEEK 8,6,2025-04-23,56
STUDY001,VS,STUDY001-SUBJ0004,28,TEMP,Temperature,36.1,C,36.1,36.1,C,,WEEK 8,6,2025-04-23,56
STUDY001,VS,STUDY001-SUBJ0004,29,BP,Blood Pressure,142/71,mmHg,142/71,,mmHg,,WEEK 8,6,2025-04-23,56
STUDY001,VS,STUDY001-SUBJ0004,30,HR,Heart Rate,77,beats/min,77,77.0,beats/min,,WEEK 8,6,2025-04-23,56
STUDY001,VS,STUDY001-SUBJ0004,31,HEIGHT,Height,152.2,cm,152.2,152.2,cm,,WEEK 12,7,2025-05-21,84
STUDY001,VS,STUDY001-SUBJ0004,32,WEIGHT,Weight,53.0,kg,53.0,53.0,kg,,WEEK 12,7,2025-05-21,84
STUDY001,VS,STUDY001-SUBJ0004,33,TEMP,Temperature,36.1,C,36.1,36.1,C,,WEEK 12,7,2025-05-21,84
STUDY001,VS,STUDY001-SUBJ0004,34,BP,Blood Pressure,144/77,mmHg,144/77,,mmHg,,WEEK 12,7,2025-05-21,84
STUDY001,VS,STUDY001-SUBJ0004,35,HR,Heart Rate,80,beats/min,80,80.0,beats/min,,WEEK 12,7,2025-05-21,84
STUDY001,VS,STUDY001-SUBJ0004,36,HEIGHT,Height,152.0,cm,152.0,152.0,cm,,WEEK 16,8,2025-06-18,112
STUDY001,VS,STUDY001-SUBJ0004,37,WEIGHT,Weight,52.2,kg,52.2,52.2,kg,,WEEK 16,8,2025-06-18,112
STUDY001,VS,STUDY001-SUBJ0004,38,TEMP,Temperature,36.2,C,36.2,36.2,C,,WEEK 16,8,2025-06-18,112
STUDY001,VS,STUDY001-SUBJ0004,39,BP,Blood Pressure,143/74,mmHg,143/74,,mmHg,,WEEK 16,8,2025-06-18,112
STUDY001,VS,STUDY001-SUBJ0004,40,HR,Heart Rate,80,beats/min,80,80.0,beats/min,,WEEK 16,8,2025-06-18,112
STUDY001,VS,STUDY001-SUBJ0004,41,HEIGHT,Height,152.2,cm,152.2,152.2,cm,,END OF TREATMENT,9,2025-07-16,140
STUDY001,VS,STUDY001-SUBJ0004,42,WEIGHT,Weight,52.7,kg,52.7,52.7,kg,,END OF TREATMENT,9,2025-07-16,140
STUDY001,VS,STUDY001-SUBJ0004,43,TEMP,Temperature,36.4,C,36.4,36.4,C,,END OF TREATMENT,9,2025-07-16,140
STUDY001,VS,STUDY001-SUBJ0004,44,BP,Blood Pressure,148/78,mmHg,148/78,,mmHg,,END OF TREATMENT,9,2025-07-16,140
STUDY001,VS,STUDY001-SUBJ0004,45,HR,Heart Rate,82,beats/min,82,82.0,beats/min,,END OF TREATMENT,9,2025-07-16,140
STUDY001,VS,STUDY001-SUBJ0005,1,HEIGHT,Height,163.2,cm,163.2,163.2,cm,,SCREENING,1,2025-02-13,-14
STUDY001,VS,STUDY001-SUBJ0005,2,WEIGHT,Weight,68.1,kg,68.1,68.1,kg,,SCREENING,1,2025-02-13,-14
STUDY001,VS,STUDY001-SUBJ0005,3,TEMP,Temperature,36.9,C,36.9,36.9,C,,SCREENING,1,2025-02-13,-14
STUDY001,VS,STUDY001-SUBJ0005,4,BP,Blood Pressure,144/93,mmHg,144/93,,mmHg,,SCREENING,1,2025-02-13,-14
STUDY001,VS,STUDY001-SUBJ0005,5,HR,Heart Rate,75,beats/min,75,75.0,beats/min,,SCREENING,1,2025-02-13,-14
STUDY001,VS,STUDY001-SUBJ0005,6,HEIGHT,Height,163.2,cm,163.2,163.2,cm,Y,BASELINE,2,2025-02-27,1
STUDY001,VS,STUDY001-SUBJ0005,7,WEIGHT,Weight,67.5,kg,67.5,67.5,kg,Y,BASELINE,2,2025-02-27,1
STUDY001,VS,STUDY001-SUBJ0005,8,TEMP,Temperature,36.8,C,36.8,36.8,C,Y,BASELINE,2,2025-02-27,1
STUDY001,VS,STUDY001-SUBJ0005,9,BP,Blood Pressure,149/91,mmHg,149/91,,mmHg,Y,BASELINE,2,2025-02-27,1
STUDY001,VS,STUDY001-SUBJ0005,10,HR,Heart Rate,84,beats/min,84,84.0,beats/min,Y,BASELINE,2,2025-02-27,1
STUDY001,VS,STUDY001-SUBJ0005,11,HEIGHT,Height,163.0,cm,163.0,163.0,cm,,WEEK 1,3,2025-03-05,7
STUDY001,VS,STUDY001-SUBJ0005,12,WEIGHT,Weight,67.2,kg,67.2,67.2,kg,,WEEK 1,3,2025-03-05,7
STUDY001,VS,STUDY001-SUBJ0005,13,TEMP,Temperature,36.6,C,36.6,36.6,C,,WEEK 1,3,2025-03-05,7
STUDY001,VS,STUDY001-SUBJ0005,14,BP,Blood Pressure,146/93,mmHg,146/93,,mmHg,,WEEK 1,3,2025-03-05,7
STUDY001,VS,STUDY001-SUBJ0005,15,HR,Heart Rate,79,beats/min,79,79.0,beats/min,,WEEK 1,3,2025-03-05,7
STUDY001,VS,STUDY001-SUBJ0005,16,HEIGHT,Height,163.2,cm,163.2,163.2,cm,,WEEK 2,4,2025-03-12,14
STUDY001,VS,STUDY001-SUBJ0005,17,WEIGHT,Weight,68.2,kg,68.2,68.2,kg,,WEEK 2,4,2025-03-12,14
STUDY001,VS,STUDY001-SUBJ0005,18,TEMP,Temperature,36.5,C,36.5,36.5,C,,WEEK 2,4,2025-03-12,14
STUDY001,VS,STUDY001-SUBJ0005,19,BP,Blood Pressure,144/90,mmHg,144/90,,mmHg,,WEEK 2,4,2025-03-12,14
STUDY001,VS,STUDY001-SUBJ0005,20,HR,Heart Rate,78,beats/min,78,78.0,beats/min,,WEEK 2,4,2025-03-12,14
STUDY001,VS,STUDY001-SUBJ0005,21,HEIGHT,Height,163.3,cm,163.3,163.3,cm,,WEEK 4,5,2025-03-26,28
STUDY001,VS,STUDY001-SUBJ0005,22,WEIGHT,Weight,67.1,kg,67.1,67.1,kg,,WEEK 4,5,2025-03-26,28
STUDY001,VS,STUDY001-SUBJ0005,23,TEMP,Temperature,36.7,C,36.7,36.7,C,,WEEK 4,5,2025-03-26,28
STUDY001,VS,STUDY001-SUBJ0005,24,BP,Blood Pressure,145/96,mmHg,145/96,,mmHg,,WEEK 4,5,2025-03-26,28
STUDY001,VS,STUDY001-SUBJ0005,25,HR,Heart Rate,75,beats/min,75,75.0,beats/min,,WEEK 4,5,2025-03-26,28
STUDY001,VS,STUDY001-SUBJ0005,26,HEIGHT,Height,163.1,cm,163.1,163.1,cm,,WEEK 8,6,2025-04-23,56
STUDY001,VS,STUDY001-SUBJ0005,27,WEIGHT,Weight,67.9,kg,67.9,67.9,kg,,WEEK 8,6,2025-04-23,56
STUDY001,VS,STUDY001-SUBJ0005,28,TEMP,Temperature,36.7,C,36.7,36.7,C,,WEEK 8,6,2025-04-23,56
STUDY001,VS,STUDY001-SUBJ0005,29,BP,Blood Pressure,149/87,mmHg,149/87,,mmHg,,WEEK 8,6,2025-04-23,56
STUDY001,VS,STUDY001-SUBJ0005,30,HR,Heart Rate,81,beats/min,81,81.0,beats/min,,WEEK 8,6,2025-04-23,56
STUDY001,VS,STUDY001-SUBJ0005,31,HEIGHT,Height,163.1,cm,163.1,163.1,cm,,WEEK 12,7,2025-05-21,84
STUDY001,VS,STUDY001-SUBJ0005,32,WEIGHT,Weight,68.0,kg,68.0,68.0,kg,,WEEK 12,7,2025-05-21,84
STUDY001,VS,STUDY001-SUBJ0005,33,TEMP,Temperature,36.8,C,36.8,36.8,C,,WEEK 12,7,2025-05-21,84
STUDY001,VS,STUDY001-SUBJ0005,34,BP,Blood Pressure,142/90,mmHg,142/90,,mmHg,,WEEK 12,7,2025-05-21,84
STUDY001,VS,STUDY001-SUBJ0005,35,HR,Heart Rate,81,beats/min,81,81.0,beats/min,,WEEK 12,7,2025-05-21,84
STUDY001,VS,STUDY001-SUBJ0005,36,HEIGHT,Height,163.3,cm,163.3,163.3,cm,,WEEK 16,8,2025-06-18,112
STUDY001,VS,STUDY001-SUBJ0005,37,WEIGHT,Weight,66.9,kg,66.9,66.9,kg,,WEEK 16,8,2025-06-18,112
STUDY001,VS,STUDY001-SUBJ0005,38,TEMP,Temperature,36.4,C,36.4,36.4,C,,WEEK 16,8,2025-06-18,112
STUDY001,VS,STUDY001-SUBJ0005,39,BP,Blood Pressure,145/88,mmHg,145/88,,mmHg,,WEEK 16,8,2025-06-18,112
STUDY001,VS,STUDY001-SUBJ0005,40,HR,Heart Rate,78,beats/min,78,78.0,beats/min,,WEEK 16,8,2025-06-18,112
STUDY001,VS,STUDY001-SUBJ0005,41,HEIGHT,Height,163.1,cm,163.1,163.1,cm,,END OF TREATMENT,9,2025-07-16,140
STUDY001,VS,STUDY001-SUBJ0005,42,WEIGHT,Weight,67.1,kg,67.1,67.1,kg,,END OF TREATMENT,9,2025-07-16,140
STUDY001,VS,STUDY001-SUBJ0005,43,TEMP,Temperature,36.8,C,36.8,36.8,C,,END OF TREATMENT,9,2025-07-16,140
STUDY001,VS,STUDY001-SUBJ0005,44,BP,Blood Pressure,142/94,mmHg,142/94,,mmHg,,END OF TREATMENT,9,2025-07-16,140
STUDY001,VS,STUDY001-SUBJ0005,45,HR,Heart Rate,83,beats/min,83,83.0,beats/min,,END OF TREATMENT,9,2025-07-16,140
STUDY001,VS,STUDY001-SUBJ0006,1,HEIGHT,Height,192.0,cm,192.0,192.0,cm,,SCREENING,1,2025-03-28,-14
STUDY001,VS,STUDY001-SUBJ0006,2,WEIGHT,Weight,118.8,kg,118.8,118.8,kg,,SCREENING,1,2025-03-28,-14
STUDY001,VS,STUDY001-SUBJ0006,3,TEMP,Temperature,36.5,C,36.5,36.5,C,,SCREENING,1,2025-03-28,-14
STUDY001,VS,STUDY001-SUBJ0006,4,BP,Blood Pressure,107/93,mmHg,107/93,,mmHg,,SCREENING,1,2025-03-28,-14
STUDY001,VS,STUDY001-SUBJ0006,5,HR,Heart Rate,68,beats/min,68,68.0,beats/min,,SCREENING,1,2025-03-28,-14
STUDY001,VS,STUDY001-SUBJ0006,6,HEIGHT,Height,192.2,cm,192.2,192.2,cm,Y,BASELINE,2,2025-04-11,1
STUDY001,VS,STUDY001-SUBJ0006,7,WEIGHT,Weight,118.2,kg,118.2,118.2,kg,Y,BASELINE,2,2025-04-11,1
STUDY001,VS,STUDY001-SUBJ0006,8,TEMP,Temperature,36.7,C,36.7,36.7,C,Y,BASELINE,2,2025-04-11,1
STUDY001,VS,STUDY001-SUBJ0006,9,BP,Blood Pressure,108/93,mmHg,108/93,,mmHg,Y,BASELINE,2,2025-04-11,1
STUDY001,VS,STUDY001-SUBJ0006,10,HR,Heart Rate,68,beats/min,68,68.0,beats/min,Y,BASELINE,2,2025-04-11,1
STUDY001,VS,STUDY001-SUBJ0006,11,HEIGHT,Height,191.9,cm,191.9,191.9,cm,,WEEK 1,3,2025-04-17,7
STUDY001,VS,STUDY001-SUBJ0006,12,WEIGHT,Weight,117.7,kg,117.7,117.7,kg,,WEEK 1,3,2025-04-17,7
STUDY001,VS,STUDY001-SUBJ0006,13,TEMP,Temperature,36.9,C,36.9,36.9,C,,WEEK 1,3,2025-04-17,7
STUDY001,VS,STUDY001-SUBJ0006,14,BP,Blood Pressure,104/90,mmHg,104/90,,mmHg,,WEEK 1,3,2025-04-17,7
STUDY001,VS,STUDY001-SUBJ0006,15,HR,Heart Rate,69,beats/min,69,69.0,beats/min,,WEEK 1,3,2025-04-17,7
STUDY001,VS,STUDY001-SUBJ0006,16,HEIGHT,Height,191.9,cm,191.9,191.9,cm,,WEEK 2,4,2025-04-24,14
STUDY001,VS,STUDY001-SUBJ0006,17,WEIGHT,Weight,118.0,kg,118.0,118.0,kg,,WEEK 2,4,2025-04-24,14
STUDY001,VS,STUDY001-SUBJ0006,18,TEMP,Temperature,37.0,C,37.0,37.0,C,,WEEK 2,4,2025-04-24,14
STUDY001,VS,STUDY001-SUBJ0006,19,BP,Blood Pressure,107/89,mmHg,107/89,,mmHg,,WEEK 2,4,2025-04-24,14
STUDY001,VS,STUDY001-SUBJ0006,20,HR,Heart Rate,69,beats/min,69,69.0,beats/min,,WEEK 2,4,2025-04-24,14
STUDY001,VS,STUDY001-SUBJ0006,21,HEIGHT,Height,191.8,cm,191.8,191.8,cm,,WEEK 4,5,2025-05-08,28
STUDY001,VS,STUDY001-SUBJ0006,22,WEIGHT,Weight,117.3,kg,117.3,117.3,kg,,WEEK 4,5,2025-05-08,28
STUDY001,VS,STUDY001-SUBJ0006,23,TEMP,Temperature,36.7,C,36.7,36.7,C,,WEEK 4,5,2025-05-08,28
STUDY001,VS,STUDY001-SUBJ0006,24,BP,Blood Pressure,110/89,mmHg,110/89,,mmHg,,WEEK 4,5,2025-05-08,28
STUDY001,VS,STUDY001-SUBJ0006,25,HR,Heart Rate,67,beats/min,67,67.0,beats/min,,WEEK 4,5,2025-05-08,28
STUDY001,VS,STUDY001-SUBJ0006,26,HEIGHT,Height,191.9,cm,191.9,191.9,cm,,WEEK 8,6,2025-06-05,56
STUDY001,VS,STUDY001-SUBJ0006,27,WEIGHT,Weight,118.9,kg,118.9,118.9,kg,,WEEK 8,6,2025-06-05,56
STUDY001,VS,STUDY001-SUBJ0006,28,TEMP,Temperature,36.7,C,36.7,36.7,C,,WEEK 8,6,2025-06-05,56
STUDY001,VS,STUDY001-SUBJ0006,29,BP,Blood Pressure,114/89,mmHg,114/89,,mmHg,,WEEK 8,6,2025-06-05,56
STUDY001,VS,STUDY001-SUBJ0006,30,HR,Heart Rate,63,beats/min,63,63.0,beats/min,,WEEK 8,6,2025-06-05,56
STUDY001,VS,STUDY001-SUBJ0006,31,HEIGHT,Height,192.1,cm,192.1,192.1,cm,,WEEK 12,7,2025-07-03,84
STUDY001,VS,STUDY001-SUBJ0006,32,WEIGHT,Weight,117.7,kg,117.7,117.7,kg,,WEEK 12,7,2025-07-03,84
STUDY001,VS,STUDY001-SUBJ0006,33,TEMP,Temperature,36.5,C,36.5,36.5,C,,WEEK 12,7,2025-07-03,84
STUDY001,VS,STUDY001-SUBJ0006,34,BP,Blood Pressure,112/90,mmHg,112/90,,mmHg,,WEEK 12,7,2025-07-03,84
STUDY001,VS,STUDY001-SUBJ0006,35,HR,Heart Rate,68,beats/min,68,68.0,beats/min,,WEEK 12,7,2025-07-03,84
STUDY001,VS,STUDY001-SUBJ0006,36,HEIGHT,Height,192.1,cm,192.1,192.1,cm,,WEEK 16,8,2025-07-31,112
STUDY001,VS,STUDY001-SUBJ0006,37,WEIGHT,Weight,117.8,kg,117.8,117.8,kg,,WEEK 16,8,2025-07-31,112
STUDY001,VS,STUDY001-SUBJ0006,38,TEMP,Temperature,36.8,C,36.8,36.8,C,,WEEK 16,8,2025-07-31,112
STUDY001,VS,STUDY001-SUBJ0006,39,BP,Blood Pressure,105/91,mmHg,105/91,,mmHg,,WEEK 16,8,2025-07-31,112
STUDY001,VS,STUDY001-SUBJ0006,40,HR,Heart Rate,59,beats/min,59,59.0,beats/min,,WEEK 16,8,2025-07-31,112
STUDY001,VS,STUDY001-SUBJ0006,41,HEIGHT,Height,192.0,cm,192.0,192.0,cm,,END OF TREATMENT,9,2025-08-28,140
STUDY001,VS,STUDY001-SUBJ0006,42,WEIGHT,Weight,117.8,kg,117.8,117.8,kg,,END OF TREATMENT,9,2025-08-28,140
STUDY001,VS,STUDY001-SUBJ0006,43,TEMP,Temperature,36.8,C,36.8,36.8,C,,END OF TREATMENT,9,2025-08-28,140
STUDY001,VS,STUDY001-SUBJ0006,44,BP,Blood Pressure,110/90,mmHg,110/90,,mmHg,,END OF TREATMENT,9,2025-08-28,140
STUDY001,VS,STUDY001-SUBJ0006,45,HR,Heart Rate,69,beats/min,69,69.0,beats/min,,END OF TREATMENT,9,2025-08-28,140
STUDY001,VS,STUDY001-SUBJ0007,1,HEIGHT,Height,190.9,cm,190.9,190.9,cm,,SCREENING,1,2025-04-04,-14
STUDY001,VS,STUDY001-SUBJ0007,2,WEIGHT,Weight,101.9,kg,101.9,101.9,kg,,SCREENING,1,2025-04-04,-14
STUDY001,VS,STUDY001-SUBJ0007,3,TEMP,Temperature,36.5,C,36.5,36.5,C,,SCREENING,1,2025-04-04,-14
STUDY001,VS,STUDY001-SUBJ0007,4,BP,Blood Pressure,96/89,mmHg,96/89,,mmHg,,SCREENING,1,2025-04-04,-14
STUDY001,VS,STUDY001-SUBJ0007,5,HR,Heart Rate,74,beats/min,74,74.0,beats/min,,SCREENING,1,2025-04-04,-14
STUDY001,VS,STUDY001-SUBJ0007,6,HEIGHT,Height,190.8,cm,190.8,190.8,cm,Y,BASELINE,2,2025-04-18,1
STUDY001,VS,STUDY001-SUBJ0007,7,WEIGHT,Weight,101.0,kg,101.0,101.0,kg,Y,BASELINE,2,2025-04-18,1
STUDY001,VS,STUDY001-SUBJ0007,8,TEMP,Temperature,36.5,C,36.5,36.5,C,Y,BASELINE,2,2025-04-18,1
STUDY001,VS,STUDY001-SUBJ0007,9,BP,Blood Pressure,105/93,mmHg,105/93,,mmHg,Y,BASELINE,2,2025-04-18,1
STUDY001,VS,STUDY001-SUBJ0007,10,HR,Heart Rate,72,beats/min,72,72.0,beats/min,Y,BASELINE,2,2025-04-18,1
STUDY001,VS,STUDY001-SUBJ0007,11,HEIGHT,Height,190.8,cm,190.8,190.8,cm,,WEEK 1,3,2025-04-24,7
STUDY001,VS,STUDY001-SUBJ0007,12,WEIGHT,Weight,101.4,kg,101.4,101.4,kg,,WEEK 1,3,2025-04-24,7
STUDY001,VS,STUDY001-SUBJ0007,13,TEMP,Temperature,36.4,C,36.4,36.4,C,,WEEK 1,3,2025-04-24,7
STUDY001,VS,STUDY001-SUBJ0007,14,BP,Blood Pressure,102/90,mmHg,102/90,,mmHg,,WEEK 1,3,2025-04-24,7
STUDY001,VS,STUDY001-SUBJ0007,15,HR,Heart Rate,75,beats/min,75,75.0,beats/min,,WEEK 1,3,2025-04-24,7
STUDY001,VS,STUDY001-SUBJ0007,16,HEIGHT,Height,190.7,cm,190.7,190.7,cm,,WEEK 2,4,2025-05-01,14
STUDY001,VS,STUDY001-SUBJ0007,17,WEIGHT,Weight,102.1,kg,102.1,102.1,kg,,WEEK 2,4,2025-05-01,14
STUDY001,VS,STUDY001-SUBJ0007,18,TEMP,Temperature,36.5,C,36.5,36.5,C,,WEEK 2,4,2025-05-01,14
STUDY001,VS,STUDY001-SUBJ0007,19,BP,Blood Pressure,103/87,mmHg,103/87,,mmHg,,WEEK 2,4,2025-05-01,14
STUDY001,VS,STUDY001-SUBJ0007,20,HR,Heart Rate,76,beats/min,76,76.0,beats/min,,WEEK 2,4,2025-05-01,14
STUDY001,VS,STUDY001-SUBJ0007,21,HEIGHT,Height,190.7,cm,190.7,190.7,cm,,WEEK 4,5,2025-05-15,28
STUDY001,VS,STUDY001-SUBJ0007,22,WEIGHT,Weight,101.2,kg,101.2,101.2,kg,,WEEK 4,5,2025-05-15,28
STUDY001,VS,STUDY001-SUBJ0007,23,TEMP,Temperature,36.6,C,36.6,36.6,C,,WEEK 4,5,2025-05-15,28
STUDY001,VS,STUDY001-SUBJ0007,24,BP,Blood Pressure,104/88,mmHg,104/88,,mmHg,,WEEK 4,5,2025-05-15,28
STUDY001,VS,STUDY001-SUBJ0007,25,HR,Heart Rate,71,beats/min,71,71.0,beats/min,,WEEK 4,5,2025-05-15,28
STUDY001,VS,STUDY001-SUBJ0007,26,HEIGHT,Height,190.7,cm,190.7,190.7,cm,,WEEK 8,6,2025-06-12,56
STUDY001,VS,STUDY001-SUBJ0007,27,WEIGHT,Weight,102.6,kg,102.6,102.6,kg,,WEEK 8,6,2025-06-12,56
STUDY001,VS,STUDY001-SUBJ0007,28,TEMP,Temperature,36.3,C,36.3,36.3,C,,WEEK 8,6,2025-06-12,56
STUDY001,VS,STUDY001-SUBJ0007,29,BP,Blood Pressure,97/86,mmHg,97/86,,mmHg,,WEEK 8,6,2025-06-12,56
STUDY001,VS,STUDY001-SUBJ0007,30,HR,Heart Rate,71,beats/min,71,71.0,beats/min,,WEEK 8,6,2025-06-12,56
STUDY001,VS,STUDY001-SUBJ0007,31,HEIGHT,Height,190.7,cm,190.7,190.7,cm,,WEEK 12,7,2025-07-10,84
STUDY001,VS,STUDY001-SUBJ0007,32,WEIGHT,Weight,102.4,kg,102.4,102.4,kg,,WEEK 12,7,2025-07-10,84
STUDY001,VS,STUDY001-SUBJ0007,33,TEMP,Temperature,36.2,C,36.2,36.2,C,,WEEK 12,7,2025-07-10,84
STUDY001,VS,STUDY001-SUBJ0007,34,BP,Blood Pressure,104/91,mmHg,104/91,,mmHg,,WEEK 12,7,2025-07-10,84
STUDY001,VS,STUDY001-SUBJ0007,35,HR,Heart Rate,72,beats/min,72,72.0,beats/min,,WEEK 12,7,2025-07-10,84
STUDY001,VS,STUDY001-SUBJ0007,36,HEIGHT,Height,191.0,cm,191.0,191.0,cm,,WEEK 16,8,2025-08-07,112
STUDY001,VS,STUDY001-SUBJ0007,37,WEIGHT,Weight,102.6,kg,102.6,102.6,kg,,WEEK 16,8,2025-08-07,112
STUDY001,VS,STUDY001-SUBJ0007,38,TEMP,Temperature,36.5,C,36.5,36.5,C,,WEEK 16,8,2025-08-07,112
STUDY001,VS,STUDY001-SUBJ0007,39,BP,Blood Pressure,98/89,mmHg,98/89,,mmHg,,WEEK 16,8,2025-08-07,112
STUDY001,VS,STUDY001-SUBJ0007,40,HR,Heart Rate,78,beats/min,78,78.0,beats/min,,WEEK 16,8,2025-08-07,112
STUDY001,VS,STUDY001-SUBJ0007,41,HEIGHT,Height,190.7,cm,190.7,190.7,cm,,END OF TREATMENT,9,2025-09-04,140
STUDY001,VS,STUDY001-SUBJ0007,42,WEIGHT,Weight,101.5,kg,101.5,101.5,kg,,END OF TREATMENT,9,2025-09-04,140
STUDY001,VS,STUDY001-SUBJ0007,43,TEMP,Temperature,36.5,C,36.5,36.5,C,,END OF TREATMENT,9,2025-09-04,140
STUDY001,VS,STUDY001-SUBJ0007,44,BP,Blood Pressure,97/88,mmHg,97/88,,mmHg,,END OF TREATMENT,9,2025-09-04,140
STUDY001,VS,STUDY001-SUBJ0007,45,HR,Heart Rate,71,beats/min,71,71.0,beats/min,,END OF TREATMENT,9,2025-09-04,140
STUDY001,VS,STUDY001-SUBJ0008,1,HEIGHT,Height,192.3,cm,192.3,192.3,cm,,SCREENING,1,2024-11-08,-14
STUDY001,VS,STUDY001-SUBJ0008,2,WEIGHT,Weight,58.7,kg,58.7,58.7,kg,,SCREENING,1,2024-11-08,-14
STUDY001,VS,STUDY001-SUBJ0008,3,TEMP,Temperature,36.6,C,36.6,36.6,C,,SCREENING,1,2024-11-08,-14
STUDY001,VS,STUDY001-SUBJ0008,4,BP,Blood Pressure,146/95,mmHg,146/95,,mmHg,,SCREENING,1,2024-11-08,-14
STUDY001,VS,STUDY001-SUBJ0008,5,HR,Heart Rate,57,beats/min,57,57.0,beats/min,,SCREENING,1,2024-11-08,-14
STUDY001,VS,STUDY001-SUBJ0008,6,HEIGHT,Height,192.4,cm,192.4,192.4,cm,Y,BASELINE,2,2024-11-22,1
STUDY001,VS,STUDY001-SUBJ0008,7,WEIGHT,Weight,59.0,kg,59.0,59.0,kg,Y,BASELINE,2,2024-11-22,1
STUDY001,VS,STUDY001-SUBJ0008,8,TEMP,Temperature,37.0,C,37.0,37.0,C,Y,BASELINE,2,2024-11-22,1
STUDY001,VS,STUDY001-SUBJ0008,9,BP,Blood Pressure,148/95,mmHg,148/95,,mmHg,Y,BASELINE,2,2024-11-22,1
STUDY001,VS,STUDY001-SUBJ0008,10,HR,Heart Rate,58,beats/min,58,58.0,beats/min,Y,BASELINE,2,2024-11-22,1
STUDY001,VS,STUDY001-SUBJ0008,11,HEIGHT,Height,192.3,cm,192.3,192.3,cm,,WEEK 1,3,2024-11-28,7
STUDY001,VS,STUDY001-SUBJ0008,12,WEIGHT,Weight,58.4,kg,58.4,58.4,kg,,WEEK 1,3,2024-11-28,7
STUDY001,VS,STUDY001-SUBJ0008,13,TEMP,Temperature,37.1,C,37.1,37.1,C,,WEEK 1,3,2024-11-28,7
STUDY001,VS,STUDY001-SUBJ0008,14,BP,Blood Pressure,141/94,mmHg,141/94,,mmHg,,WEEK 1,3,2024-11-28,7
STUDY001,VS,STUDY001-SUBJ0008,15,HR,Heart Rate,56,beats/min,56,56.0,beats/min,,WEEK 1,3,2024-11-28,7
STUDY001,VS,STUDY001-SUBJ0008,16,HEIGHT,Height,192.1,cm,192.1,192.1,cm,,WEEK 2,4,2024-12-05,14
STUDY001,VS,STUDY001-SUBJ0008,17,WEIGHT,Weight,58.4,kg,58.4,58.4,kg,,WEEK 2,4,2024-12-05,14
STUDY001,VS,STUDY001-SUBJ0008,18,TEMP,Temperature,37.1,C,37.1,37.1,C,,WEEK 2,4,2024-12-05,14
STUDY001,VS,STUDY001-SUBJ0008,19,BP,Blood Pressure,149/94,mmHg,149/94,,mmHg,,WEEK 2,4,2024-12-05,14
STUDY001,VS,STUDY001-SUBJ0008,20,HR,Heart Rate,60,beats/min,60,60.0,beats/min,,WEEK 2,4,2024-12-05,14
STUDY001,VS,STUDY001-SUBJ0008,21,HEIGHT,Height,192.4,cm,192.4,192.4,cm,,WEEK 4,5,2024-12-19,28
STUDY001,VS,STUDY001-SUBJ0008,22,WEIGHT,Weight,58.8,kg,58.8,58.8,kg,,WEEK 4,5,2024-12-19,28
STUDY001,VS,STUDY001-SUBJ0008,23,TEMP,Temperature,37.2,C,37.2,37.2,C,,WEEK 4,5,2024-12-19,28
STUDY001,VS,STUDY001-SUBJ0008,24,BP,Blood Pressure,145/90,mmHg,145/90,,mmHg,,WEEK 4,5,2024-12-19,28
STUDY001,VS,STUDY001-SUBJ0008,25,HR,Heart Rate,61,beats/min,61,61.0,beats/min,,WEEK 4,5,2024-12-19,28
STUDY001,VS,STUDY001-SUBJ0008,26,HEIGHT,Height,192.5,cm,192.5,192.5,cm,,WEEK 8,6,2025-01-16,56
STUDY001,VS,STUDY001-SUBJ0008,27,WEIGHT,Weight,58.0,kg,58.0,58.0,kg,,WEEK 8,6,2025-01-16,56
STUDY001,VS,STUDY001-SUBJ0008,28,TEMP,Temperature,37.0,C,37.0,37.0,C,,WEEK 8,6,2025-01-16,56
STUDY001,VS,STUDY001-SUBJ0008,29,BP,Blood Pressure,141/100,mmHg,141/100,,mmHg,,WEEK 8,6,2025-01-16,56
STUDY001,VS,STUDY001-SUBJ0008,30,HR,Heart Rate,56,beats/min,56,56.0,beats/min,,WEEK 8,6,2025-01-16,56
STUDY001,VS,STUDY001-SUBJ0008,31,HEIGHT,Height,192.2,cm,192.2,192.2,cm,,WEEK 12,7,2025-02-13,84
STUDY001,VS,STUDY001-SUBJ0008,32,WEIGHT,Weight,59.0,kg,59.0,59.0,kg,,WEEK 12,7,2025-02-13,84
STUDY001,VS,STUDY001-SUBJ0008,33,TEMP,Temperature,36.7,C,36.7,36.7,C,,WEEK 12,7,2025-02-13,84
STUDY001,VS,STUDY001-SUBJ0008,34,BP,Blood Pressure,148/93,mmHg,148/93,,mmHg,,WEEK 12,7,2025-02-13,84
STUDY001,VS,STUDY001-SUBJ0008,35,HR,Heart Rate,60,beats/min,60,60.0,beats/min,,WEEK 12,7,2025-02-13,84
STUDY001,VS,STUDY001-SUBJ0008,36,HEIGHT,Height,192.2,cm,192.2,192.2,cm,,WEEK 16,8,2025-03-13,112
STUDY001,VS,STUDY001-SUBJ0008,37,WEIGHT,Weight,57.5,kg,57.5,57.5,kg,,WEEK 16,8,2025-03-13,112
STUDY001,VS,STUDY001-SUBJ0008,38,TEMP,Temperature,37.0,C,37.0,37.0,C,,WEEK 16,8,2025-03-13,112
STUDY001,VS,STUDY001-SUBJ0008,39,BP,Blood Pressure,145/96,mmHg,145/96,,mmHg,,WEEK 16,8,2025-03-13,112
STUDY001,VS,STUDY001-SUBJ0008,40,HR,Heart Rate,57,beats/min,57,57.0,beats/min,,WEEK 16,8,2025-03-13,112
STUDY001,VS,STUDY001-SUBJ0008,41,HEIGHT,Height,192.2,cm,192.2,192.2,cm,,END OF TREATMENT,9,2025-04-10,140
STUDY001,VS,STUDY001-SUBJ0008,42,WEIGHT,Weight,59.1,kg,59.1,59.1,kg,,END OF TREATMENT,9,2025-04-10,140
STUDY001,VS,STUDY001-SUBJ0008,43,TEMP,Temperature,36.8,C,36.8,36.8,C,,END OF TREATMENT,9,2025-04-10,140
STUDY001,VS,STUDY001-SUBJ0008,44,BP,Blood Pressure,149/93,mmHg,149/93,,mmHg,,END OF TREATMENT,9,2025-04-10,140
STUDY001,VS,STUDY001-SUBJ0008,45,HR,Heart Rate,56,beats/min,56,56.0,beats/min,,END OF TREATMENT,9,2025-04-10,140
STUDY001,VS,STUDY001-SUBJ0009,1,HEIGHT,Height,187.1,cm,187.1,187.1,cm,,SCREENING,1,2025-01-12,-14
STUDY001,VS,STUDY001-SUBJ0009,2,WEIGHT,Weight,92.1,kg,92.1,92.1,kg,,SCREENING,1,2025-01-12,-14
STUDY001,VS,STUDY001-SUBJ0009,3,TEMP,Temperature,36.8,C,36.8,36.8,C,,SCREENING,1,2025-01-12,-14
STUDY001,VS,STUDY001-SUBJ0009,4,BP,Blood Pressure,149/82,mmHg,149/82,,mmHg,,SCREENING,1,2025-01-12,-14
STUDY001,VS,STUDY001-SUBJ0009,5,HR,Heart Rate,80,beats/min,80,80.0,beats/min,,SCREENING,1,2025-01-12,-14
STUDY001,VS,STUDY001-SUBJ0009,6,HEIGHT,Height,187.1,cm,187.1,187.1,cm,Y,BASELINE,2,2025-01-26,1
STUDY001,VS,STUDY001-SUBJ0009,7,WEIGHT,Weight,92.5,kg,92.5,92.5,kg,Y,BASELINE,2,2025-01-26,1
STUDY001,VS,STUDY001-SUBJ0009,8,TEMP,Temperature,36.9,C,36.9,36.9,C,Y,BASELINE,2,2025-01-26,1
STUDY001,VS,STUDY001-SUBJ0009,9,BP,Blood Pressure,146/90,mmHg,146/90,,mmHg,Y,BASELINE,2,2025-01-26,1
STUDY001,VS,STUDY001-SUBJ0009,10,HR,Heart Rate,87,beats/min,87,87.0,beats/min,Y,BASELINE,2,2025-01-26,1
STUDY001,VS,STUDY001-SUBJ0009,11,HEIGHT,Height,187.0,cm,187.0,187.0,cm,,WEEK 1,3,2025-02-01,7
STUDY001,VS,STUDY001-SUBJ0009,12,WEIGHT,Weight,91.3,kg,91.3,91.3,kg,,WEEK 1,3,2025-02-01,7
STUDY001,VS,STUDY001-SUBJ0009,13,TEMP,Temperature,37.1,C,37.1,37.1,C,,WEEK 1,3,2025-02-01,7
STUDY001,VS,STUDY001-SUBJ0009,14,BP,Blood Pressure,141/82,mmHg,141/82,,mmHg,,WEEK 1,3,2025-02-01,7
STUDY001,VS,STUDY001-SUBJ0009,15,HR,Heart Rate,89,beats/min,89,89.0,beats/min,,WEEK 1,3,2025-02-01,7
STUDY001,VS,STUDY001-SUBJ0009,16,HEIGHT,Height,186.9,cm,186.9,186.9,cm,,WEEK 2,4,2025-02-08,14
STUDY001,VS,STUDY001-SUBJ0009,17,WEIGHT,Weight,92.0,kg,92.0,92.0,kg,,WEEK 2,4,2025-02-08,14
STUDY001,VS,STUDY001-SUBJ0009,18,TEMP,Temperature,36.9,C,36.9,36.9,C,,WEEK 2,4,2025-02-08,14
STUDY001,VS,STUDY001-SUBJ0009,19,BP,Blood Pressure,140/89,mmHg,140/89,,mmHg,,WEEK 2,4,2025-02-08,14
STUDY001,VS,STUDY001-SUBJ0009,20,HR,Heart Rate,81,beats/min,81,81.0,beats/min,,WEEK 2,4,2025-02-08,14
STUDY001,VS,STUDY001-SUBJ0009,21,HEIGHT,Height,187.2,cm,187.2,187.2,cm,,WEEK 4,5,2025-02-22,28
STUDY001,VS,STUDY001-SUBJ0009,22,WEIGHT,Weight,91.8,kg,91.8,91.8,kg,,WEEK 4,5,2025-02-22,28
STUDY001,VS,STUDY001-SUBJ0009,23,TEMP,Temperature,37.1,C,37.1,37.1,C,,WEEK 4,5,2025-02-22,28
STUDY001,VS,STUDY001-SUBJ0009,24,BP,Blood Pressure,146/85,mmHg,146/85,,mmHg,,WEEK 4,5,2025-02-22,28
STUDY001,VS,STUDY001-SUBJ0009,25,HR,Heart Rate,88,beats/min,88,88.0,beats/min,,WEEK 4,5,2025-02-22,28
STUDY001,VS,STUDY001-SUBJ0009,26,HEIGHT,Height,187.1,cm,187.1,187.1,cm,,WEEK 8,6,2025-03-22,56
STUDY001,VS,STUDY001-SUBJ0009,27,WEIGHT,Weight,93.0,kg,93.0,93.0,kg,,WEEK 8,6,2025-03-22,56
STUDY001,VS,STUDY001-SUBJ0009,28,TEMP,Temperature,36.9,C,36.9,36.9,C,,WEEK 8,6,2025-03-22,56
STUDY001,VS,STUDY001-SUBJ0009,29,BP,Blood Pressure,149/89,mmHg,149/89,,mmHg,,WEEK 8,6,2025-03-22,56
STUDY001,VS,STUDY001-SUBJ0009,30,HR,Heart Rate,81,beats/min,81,81.0,beats/min,,WEEK 8,6,2025-03-22,56
STUDY001,VS,STUDY001-SUBJ0009,31,HEIGHT,Height,187.2,cm,187.2,187.2,cm,,WEEK 12,7,2025-04-19,84
STUDY001,VS,STUDY001-SUBJ0009,32,WEIGHT,Weight,92.1,kg,92.1,92.1,kg,,WEEK 12,7,2025-04-19,84
STUDY001,VS,STUDY001-SUBJ0009,33,TEMP,Temperature,37.2,C,37.2,37.2,C,,WEEK 12,7,2025-04-19,84
STUDY001,VS,STUDY001-SUBJ0009,34,BP,Blood Pressure,146/86,mmHg,146/86,,mmHg,,WEEK 12,7,2025-04-19,84
STUDY001,VS,STUDY001-SUBJ0009,35,HR,Heart Rate,81,beats/min,81,81.0,beats/min,,WEEK 12,7,2025-04-19,84
STUDY001,VS,STUDY001-SUBJ0009,36,HEIGHT,Height,187.0,cm,187.0,187.0,cm,,WEEK 16,8,2025-05-17,112
STUDY001,VS,STUDY001-SUBJ0009,37,WEIGHT,Weight,92.5,kg,92.5,92.5,kg,,WEEK 16,8,2025-05-17,112
STUDY001,VS,STUDY001-SUBJ0009,38,TEMP,Temperature,37.1,C,37.1,37.1,C,,WEEK 16,8,2025-05-17,112
STUDY001,VS,STUDY001-SUBJ0009,39,BP,Blood Pressure,148/84,mmHg,148/84,,mmHg,,WEEK 16,8,2025-05-17,112
STUDY001,VS,STUDY001-SUBJ0009,40,HR,Heart Rate,89,beats/min,89,89.0,beats/min,,WEEK 16,8,2025-05-17,112
STUDY001,VS,STUDY001-SUBJ0009,41,HEIGHT,Height,187.1,cm,187.1,187.1,cm,,END OF TREATMENT,9,2025-06-14,140
STUDY001,VS,STUDY001-SUBJ0009,42,WEIGHT,Weight,92.9,kg,92.9,92.9,kg,,END OF TREATMENT,9,2025-06-14,140
STUDY001,VS,STUDY001-SUBJ0009,43,TEMP,Temperature,36.7,C,36.7,36.7,C,,END OF TREATMENT,9,2025-06-14,140
STUDY001,VS,STUDY001-SUBJ0009,44,BP,Blood Pressure,144/82,mmHg,144/82,,mmHg,,END OF TREATMENT,9,2025-06-14,140
STUDY001,VS,STUDY001-SUBJ0009,45,HR,Heart Rate,82,beats/min,82,82.0,beats/min,,END OF TREATMENT,9,2025-06-14,140
STUDY001,VS,STUDY001-SUBJ0010,1,HEIGHT,Height,187.9,cm,187.9,187.9,cm,,SCREENING,1,2025-01-18,-14
STUDY001,VS,STUDY001-SUBJ0010,2,WEIGHT,Weight,55.6,kg,55.6,55.6,kg,,SCREENING,1,2025-01-18,-14
STUDY001,VS,STUDY001-SUBJ0010,3,TEMP,Temperature,37.3,C,37.3,37.3,C,,SCREENING,1,2025-01-18,-14
STUDY001,VS,STUDY001-SUBJ0010,4,BP,Blood Pressure,140/67,mmHg,140/67,,mmHg,,SCREENING,1,2025-01-18,-14
STUDY001,VS,STUDY001-SUBJ0010,5,HR,Heart Rate,62,beats/min,62,62.0,beats/min,,SCREENING,1,2025-01-18,-14
STUDY001,VS,STUDY001-SUBJ0010,6,HEIGHT,Height,187.9,cm,187.9,187.9,cm,Y,BASELINE,2,2025-02-01,1
STUDY001,VS,STUDY001-SUBJ0010,7,WEIGHT,Weight,55.5,kg,55.5,55.5,kg,Y,BASELINE,2,2025-02-01,1
STUDY001,VS,STUDY001-SUBJ0010,8,TEMP,Temperature,37.1,C,37.1,37.1,C,Y,BASELINE,2,2025-02-01,1
STUDY001,VS,STUDY001-SUBJ0010,9,BP,Blood Pressure,147/66,mmHg,147/66,,mmHg,Y,BASELINE,2,2025-02-01,1
STUDY001,VS,STUDY001-SUBJ0010,10,HR,Heart Rate,67,beats/min,67,67.0,beats/min,Y,BASELINE,2,2025-02-01,1
STUDY001,VS,STUDY001-SUBJ0010,11,HEIGHT,Height,187.7,cm,187.7,187.7,cm,,WEEK 1,3,2025-02-07,7
STUDY001,VS,STUDY001-SUBJ0010,12,WEIGHT,Weight,55.5,kg,55.5,55.5,kg,,WEEK 1,3,2025-02-07,7
STUDY001,VS,STUDY001-SUBJ0010,13,TEMP,Temperature,37.0,C,37.0,37.0,C,,WEEK 1,3,2025-02-07,7
STUDY001,VS,STUDY001-SUBJ0010,14,BP,Blood Pressure,138/71,mmHg,138/71,,mmHg,,WEEK 1,3,2025-02-07,7
STUDY001,VS,STUDY001-SUBJ0010,15,HR,Heart Rate,64,beats/min,64,64.0,beats/min,,WEEK 1,3,2025-02-07,7
STUDY001,VS,STUDY001-SUBJ0010,16,HEIGHT,Height,188.0,cm,188.0,188.0,cm,,WEEK 2,4,2025-02-14,14
STUDY001,VS,STUDY001-SUBJ0010,17,WEIGHT,Weight,55.7,kg,55.7,55.7,kg,,WEEK 2,4,2025-02-14,14
STUDY001,VS,STUDY001-SUBJ0010,18,TEMP,Temperature,37.3,C,37.3,37.3,C,,WEEK 2,4,2025-02-14,14
STUDY001,VS,STUDY001-SUBJ0010,19,BP,Blood Pressure,146/75,mmHg,146/75,,mmHg,,WEEK 2,4,2025-02-14,14
STUDY001,VS,STUDY001-SUBJ0010,20,HR,Heart Rate,63,beats/min,63,63.0,beats/min,,WEEK 2,4,2025-02-14,14
STUDY001,VS,STUDY001-SUBJ0010,21,HEIGHT,Height,187.8,cm,187.8,187.8,cm,,WEEK 4,5,2025-02-28,28
STUDY001,VS,STUDY001-SUBJ0010,22,WEIGHT,Weight,54.4,kg,54.4,54.4,kg,,WEEK 4,5,2025-02-28,28
STUDY001,VS,STUDY001-SUBJ0010,23,TEMP,Temperature,37.2,C,37.2,37.2,C,,WEEK 4,5,2025-02-28,28
STUDY001,VS,STUDY001-SUBJ0010,24,BP,Blood Pressure,144/71,mmHg,144/71,,mmHg,,WEEK 4,5,2025-02-28,28
STUDY001,VS,STUDY001-SUBJ0010,25,HR,Heart Rate,66,beats/min,66,66.0,beats/min,,WEEK 4,5,2025-02-28,28
STUDY001,VS,STUDY001-SUBJ0010,26,HEIGHT,Height,187.9,cm,187.9,187.9,cm,,WEEK 8,6,2025-03-28,56
STUDY001,VS,STUDY001-SUBJ0010,27,WEIGHT,Weight,54.0,kg,54.0,54.0,kg,,WEEK 8,6,2025-03-28,56
STUDY001,VS,STUDY001-SUBJ0010,28,TEMP,Temperature,36.8,C,36.8,36.8,C,,WEEK 8,6,2025-03-28,56
STUDY001,VS,STUDY001-SUBJ0010,29,BP,Blood Pressure,139/70,mmHg,139/70,,mmHg,,WEEK 8,6,2025-03-28,56
STUDY001,VS,STUDY001-SUBJ0010,30,HR,Heart Rate,71,beats/min,71,71.0,beats/min,,WEEK 8,6,2025-03-28,56
STUDY001,VS,STUDY001-SUBJ0010,31,HEIGHT,Height,187.9,cm,187.9,187.9,cm,,WEEK 12,7,2025-04-25,84
STUDY001,VS,STUDY001-SUBJ0010,32,WEIGHT,Weight,53.8,kg,53.8,53.8,kg,,WEEK 12,7,2025-04-25,84
STUDY001,VS,STUDY001-SUBJ0010,33,TEMP,Temperature,37.1,C,37.1,37.1,C,,WEEK 12,7,2025-04-25,84
STUDY001,VS,STUDY001-SUBJ0010,34,BP,Blood Pressure,140/73,mmHg,140/73,,mmHg,,WEEK 12,7,2025-04-25,84
STUDY001,VS,STUDY001-SUBJ0010,35,HR,Heart Rate,68,beats/min,68,68.0,beats/min,,WEEK 12,7,2025-04-25,84
STUDY001,VS,STUDY001-SUBJ0010,36,HEIGHT,Height,187.9,cm,187.9,187.9,cm,,WEEK 16,8,2025-05-23,112
STUDY001,VS,STUDY001-SUBJ0010,37,WEIGHT,Weight,54.4,kg,54.4,54.4,kg,,WEEK 16,8,2025-05-23,112
STUDY001,VS,STUDY001-SUBJ0010,38,TEMP,Temperature,37.0,C,37.0,37.0,C,,WEEK 16,8,2025-05-23,112
STUDY001,VS,STUDY001-SUBJ0010,39,BP,Blood Pressure,140/73,mmHg,140/73,,mmHg,,WEEK 16,8,2025-05-23,112
STUDY001,VS,STUDY001-SUBJ0010,40,HR,Heart Rate,69,beats/min,69,69.0,beats/min,,WEEK 16,8,2025-05-23,112
STUDY001,VS,STUDY001-SUBJ0010,41,HEIGHT,Height,188.0,cm,188.0,188.0,cm,,END OF TREATMENT,9,2025-06-20,140
STUDY001,VS,STUDY001-SUBJ0010,42,WEIGHT,Weight,54.8,kg,54.8,54.8,kg,,END OF TREATMENT,9,2025-06-20,140
STUDY001,VS,STUDY001-SUBJ0010,43,TEMP,Temperature,36.9,C,36.9,36.9,C,,END OF TREATMENT,9,2025-06-20,140
STUDY001,VS,STUDY001-SUBJ0010,44,BP,Blood Pressure,141/72,mmHg,141/72,,mmHg,,END OF TREATMENT,9,2025-06-20,140
STUDY001,VS,STUDY001-SUBJ0010,45,HR,Heart Rate,68,beats/min,68,68.0,beats/min,,END OF TREATMENT,9,2025-06-20,140
