STUDYID,DOMAIN,USUBJID,SUBJID,RFSTDTC,RFENDTC,RFXSTDTC,RFXENDTC,RFICDTC,RFPENDTC,DTHDTC,DTHFL,SITEID,AGE,AGEU,SEX,RACE,ETHNIC,ARMCD,ARM,ACTARMCD,ACTARM,COUNTRY,DMDTC,DMDY
STUDY001,DM,STUDY001-SUBJ0001,SUBJ0001,2025-03-19,2025-08-08,2024-10-20,2025-07-28,2025-03-19,2025-08-08,,,9,55,YEARS,F,AMERICAN INDIAN OR ALASKA NATIVE,HISPANIC OR LATINO,ARM1,Treatment 3,ARM1,Treatment 3,UY,2024-11-03,7
STUDY001,DM,STUDY001-SUBJ0002,SUBJ0002,2025-03-12,2025-08-06,2025-02-26,2025-08-16,2025-01-11,2025-08-06,,,47,70,YEARS,M,AMERICAN INDIAN OR ALASKA NATIVE,HISPANIC OR LATINO,ARM2,Treatment 3,ARM2,Treatment 3,EE,2024-09-17,15
STUDY001,DM,STUDY001-SUBJ0003,SUBJ0003,2025-05-31,2025-08-15,2025-07-08,2025-08-12,2024-08-28,2025-08-15,,,20,26,YEARS,M,AMERICAN INDIAN OR ALASKA NATIVE,NOT HISPANIC OR LATINO,ARM3,Treatment 2,ARM3,Treatment 2,GN,2025-03-23,28
STUDY001,DM,STUDY001-SUBJ0004,SUBJ0004,2024-09-12,2025-07-24,2025-01-06,2025-08-05,2025-06-02,2025-07-24,,,34,75,YEARS,F,AMERICAN INDIAN OR ALASKA NATIVE,HISPANIC OR LATINO,ARM1,Treatment 1,ARM1,Treatment 1,PE,2025-05-10,30
STUDY001,DM,STUDY001-SUBJ0005,SUBJ0005,2025-05-24,2025-08-11,2025-02-06,2025-08-19,2025-06-27,2025-08-11,,,46,53,YEARS,M,ASIAN,HISPANIC OR LATINO,ARM2,Treatment 1,ARM2,Treatment 1,ZW,2025-02-04,26
STUDY001,DM,STUDY001-SUBJ0006,SUBJ0006,2025-02-24,2025-08-12,2024-11-06,2025-08-03,2025-02-09,2025-08-12,,,17,21,YEARS,F,OTHER,NOT HISPANIC OR LATINO,ARM3,Treatment 2,ARM3,Treatment 2,MR,2024-10-24,9
STUDY001,DM,STUDY001-SUBJ0007,SUBJ0007,2025-05-03,2025-08-21,2025-02-05,2025-07-26,2025-02-05,2025-08-21,,,49,20,YEARS,M,BLACK OR AFRICAN AMERICAN,HISPANIC OR LATINO,ARM1,Treatment 2,ARM1,Treatment 2,SL,2024-11-23,21
STUDY001,DM,STUDY001-SUBJ0008,SUBJ0008,2025-07-04,2025-08-16,2025-05-17,2025-07-25,2024-10-22,2025-08-16,,,35,67,YEARS,M,BLACK OR AFRICAN AMERICAN,HISPANIC OR LATINO,ARM2,Treatment 3,ARM2,Treatment 3,CZ,2025-04-30,4
STUDY001,DM,STUDY001-SUBJ0009,SUBJ0009,2024-10-25,2025-08-06,2024-12-03,2025-07-28,2024-11-24,2025-08-06,,,32,36,YEARS,M,BLACK OR AFRICAN AMERICAN,NOT HISPANIC OR LATINO,ARM3,Treatment 1,ARM3,Treatment 1,KP,2025-05-16,25
STUDY001,DM,STUDY001-SUBJ0010,SUBJ0010,2025-02-09,2025-07-28,2025-04-12,2025-08-20,2025-05-15,2025-07-28,,,42,61,YEARS,M,ASIAN,NOT HISPANIC OR LATINO,ARM1,Treatment 1,ARM1,Treatment 1,MN,2024-11-06,4
