STUDYID,DOMAIN,USUBJID,LBSEQ,LBREFID,LBTESTCD,LBTEST,LBCAT,LBORRES,LBORRESU,LBORNRLO,LBORNRHI,LBSTRESC,LBSTRESN,LBSTRESU,LBSTNRLO,LBSTNRHI,LBNRIND,LBBLFL,VISIT,VISITNUM,LBDTC,LBDY
STUDY001,LB,STUDY001-SUBJ0001,1,L00001,HGB,Hemoglobin,HEMATOLOGY,14.18,g/dL,13.5,17.5,14.18,14.18,g/dL,13.5,17.5,NORMAL,,SCREENING,1,2024-09-01,-14
STUDY001,LB,STUDY001-SUBJ0001,2,L00002,HCT,Hematocrit,HEMATOLOGY,47.68,%,41.0,51.0,47.68,47.68,%,41.0,51.0,NORMAL,,SCREENING,1,2024-09-01,-14
STUDY001,LB,STUDY001-SUBJ0001,3,L00003,WBC,White Blood Cell Count,HEMATOLOGY,6.25,10^9/L,4.5,11.0,6.25,6.25,10^9/L,4.5,11.0,NORMAL,,SCREENING,1,2024-09-01,-14
STUDY001,LB,STUDY001-SUBJ0001,4,L00004,PLT,Platelet Count,HEMATOLOGY,201.32,10^9/L,150.0,450.0,201.32,201.32,10^9/L,150.0,450.0,NORMAL,,SCREENING,1,2024-09-01,-14
STUDY001,LB,STUDY001-SUBJ0001,5,L00005,GLUC,Glucose,CHEMISTRY,100.12,mg/dL,70.0,100.0,100.12,100.12,mg/dL,70.0,100.0,HIGH,,SCREENING,1,2024-09-01,-14
STUDY001,LB,STUDY001-SUBJ0001,6,L00006,BUN,Blood Urea Nitrogen,CHEMISTRY,13.55,mg/dL,7.0,20.0,13.55,13.55,mg/dL,7.0,20.0,NORMAL,,SCREENING,1,2024-09-01,-14
STUDY001,LB,STUDY001-SUBJ0001,7,L00007,CREAT,Creatinine,CHEMISTRY,1.29,mg/dL,0.6,1.2,1.29,1.29,mg/dL,0.6,1.2,HIGH,,SCREENING,1,2024-09-01,-14
STUDY001,LB,STUDY001-SUBJ0001,8,L00008,BILI,Total Bilirubin,CHEMISTRY,0.82,mg/dL,0.1,1.2,0.82,0.82,mg/dL,0.1,1.2,NORMAL,,SCREENING,1,2024-09-01,-14
STUDY001,LB,STUDY001-SUBJ0001,9,L00009,ALP,Alkaline Phosphatase,CHEMISTRY,113.52,U/L,44.0,147.0,113.52,113.52,U/L,44.0,147.0,NORMAL,,SCREENING,1,2024-09-01,-14
STUDY001,LB,STUDY001-SUBJ0001,10,L00010,ALT,Alanine Aminotransferase,CHEMISTRY,12.58,U/L,7.0,56.0,12.58,12.58,U/L,7.0,56.0,NORMAL,,SCREENING,1,2024-09-01,-14
STUDY001,LB,STUDY001-SUBJ0001,11,L00011,HGB,Hemoglobin,HEMATOLOGY,14.24,g/dL,13.5,17.5,14.24,14.24,g/dL,13.5,17.5,NORMAL,Y,BASELINE,2,2024-09-15,1
STUDY001,LB,STUDY001-SUBJ0001,12,L00012,HCT,Hematocrit,HEMATOLOGY,47.75,%,41.0,51.0,47.75,47.75,%,41.0,51.0,NORMAL,Y,BASELINE,2,2024-09-15,1
STUDY001,LB,STUDY001-SUBJ0001,13,L00013,WBC,White Blood Cell Count,HEMATOLOGY,6.31,10^9/L,4.5,11.0,6.31,6.31,10^9/L,4.5,11.0,NORMAL,Y,BASELINE,2,2024-09-15,1
STUDY001,LB,STUDY001-SUBJ0001,14,L00014,PLT,Platelet Count,HEMATOLOGY,181.32,10^9/L,150.0,450.0,181.32,181.32,10^9/L,150.0,450.0,NORMAL,Y,BASELINE,2,2024-09-15,1
STUDY001,LB,STUDY001-SUBJ0001,15,L00015,GLUC,Glucose,CHEMISTRY,99.93,mg/dL,70.0,100.0,99.93,99.93,mg/dL,70.0,100.0,NORMAL,Y,BASELINE,2,2024-09-15,1
STUDY001,LB,STUDY001-SUBJ0001,16,L00016,BUN,Blood Urea Nitrogen,CHEMISTRY,13.83,mg/dL,7.0,20.0,13.83,13.83,mg/dL,7.0,20.0,NORMAL,Y,BASELINE,2,2024-09-15,1
STUDY001,LB,STUDY001-SUBJ0001,17,L00017,CREAT,Creatinine,CHEMISTRY,1.25,mg/dL,0.6,1.2,1.25,1.25,mg/dL,0.6,1.2,HIGH,Y,BASELINE,2,2024-09-15,1
STUDY001,LB,STUDY001-SUBJ0001,18,L00018,BILI,Total Bilirubin,CHEMISTRY,0.8,mg/dL,0.1,1.2,0.8,0.8,mg/dL,0.1,1.2,NORMAL,Y,BASELINE,2,2024-09-15,1
STUDY001,LB,STUDY001-SUBJ0001,19,L00019,ALP,Alkaline Phosphatase,CHEMISTRY,106.34,U/L,44.0,147.0,106.34,106.34,U/L,44.0,147.0,NORMAL,Y,BASELINE,2,2024-09-15,1
STUDY001,LB,STUDY001-SUBJ0001,20,L00020,ALT,Alanine Aminotransferase,CHEMISTRY,11.74,U/L,7.0,56.0,11.74,11.74,U/L,7.0,56.0,NORMAL,Y,BASELINE,2,2024-09-15,1
STUDY001,LB,STUDY001-SUBJ0001,21,L00021,HGB,Hemoglobin,HEMATOLOGY,14.31,g/dL,13.5,17.5,14.31,14.31,g/dL,13.5,17.5,NORMAL,,WEEK 1,3,2024-09-21,7
STUDY001,LB,STUDY001-SUBJ0001,22,L00022,HCT,Hematocrit,HEMATOLOGY,47.56,%,41.0,51.0,47.56,47.56,%,41.0,51.0,NORMAL,,WEEK 1,3,2024-09-21,7
STUDY001,LB,STUDY001-SUBJ0001,23,L00023,WBC,White Blood Cell Count,HEMATOLOGY,6.33,10^9/L,4.5,11.0,6.33,6.33,10^9/L,4.5,11.0,NORMAL,,WEEK 1,3,2024-09-21,7
STUDY001,LB,STUDY001-SUBJ0001,24,L00024,PLT,Platelet Count,HEMATOLOGY,194.36,10^9/L,150.0,450.0,194.36,194.36,10^9/L,150.0,450.0,NORMAL,,WEEK 1,3,2024-09-21,7
STUDY001,LB,STUDY001-SUBJ0001,25,L00025,GLUC,Glucose,CHEMISTRY,101.07,mg/dL,70.0,100.0,101.07,101.07,mg/dL,70.0,100.0,HIGH,,WEEK 1,3,2024-09-21,7
STUDY001,LB,STUDY001-SUBJ0001,26,L00026,BUN,Blood Urea Nitrogen,CHEMISTRY,12.89,mg/dL,7.0,20.0,12.89,12.89,mg/dL,7.0,20.0,NORMAL,,WEEK 1,3,2024-09-21,7
STUDY001,LB,STUDY001-SUBJ0001,27,L00027,CREAT,Creatinine,CHEMISTRY,1.24,mg/dL,0.6,1.2,1.24,1.24,mg/dL,0.6,1.2,HIGH,,WEEK 1,3,2024-09-21,7
STUDY001,LB,STUDY001-SUBJ0001,28,L00028,BILI,Total Bilirubin,CHEMISTRY,0.8,mg/dL,0.1,1.2,0.8,0.8,mg/dL,0.1,1.2,NORMAL,,WEEK 1,3,2024-09-21,7
STUDY001,LB,STUDY001-SUBJ0001,29,L00029,ALP,Alkaline Phosphatase,CHEMISTRY,112.27,U/L,44.0,147.0,112.27,112.27,U/L,44.0,147.0,NORMAL,,WEEK 1,3,2024-09-21,7
STUDY001,LB,STUDY001-SUBJ0001,30,L00030,ALT,Alanine Aminotransferase,CHEMISTRY,14.04,U/L,7.0,56.0,14.04,14.04,U/L,7.0,56.0,NORMAL,,WEEK 1,3,2024-09-21,7
STUDY001,LB,STUDY001-SUBJ0001,31,L00031,HGB,Hemoglobin,HEMATOLOGY,14.38,g/dL,13.5,17.5,14.38,14.38,g/dL,13.5,17.5,NORMAL,,WEEK 2,4,2024-09-28,14
STUDY001,LB,STUDY001-SUBJ0001,32,L00032,HCT,Hematocrit,HEMATOLOGY,47.46,%,41.0,51.0,47.46,47.46,%,41.0,51.0,NORMAL,,WEEK 2,4,2024-09-28,14
STUDY001,LB,STUDY001-SUBJ0001,33,L00033,WBC,White Blood Cell Count,HEMATOLOGY,6.47,10^9/L,4.5,11.0,6.47,6.47,10^9/L,4.5,11.0,NORMAL,,WEEK 2,4,2024-09-28,14
STUDY001,LB,STUDY001-SUBJ0001,34,L00034,PLT,Platelet Count,HEMATOLOGY,181.39,10^9/L,150.0,450.0,181.39,181.39,10^9/L,150.0,450.0,NORMAL,,WEEK 2,4,2024-09-28,14
STUDY001,LB,STUDY001-SUBJ0001,35,L00035,GLUC,Glucose,CHEMISTRY,101.13,mg/dL,70.0,100.0,101.13,101.13,mg/dL,70.0,100.0,HIGH,,WEEK 2,4,2024-09-28,14
STUDY001,LB,STUDY001-SUBJ0001,36,L00036,BUN,Blood Urea Nitrogen,CHEMISTRY,13.63,mg/dL,7.0,20.0,13.63,13.63,mg/dL,7.0,20.0,NORMAL,,WEEK 2,4,2024-09-28,14
STUDY001,LB,STUDY001-SUBJ0001,37,L00037,CREAT,Creatinine,CHEMISTRY,1.26,mg/dL,0.6,1.2,1.26,1.26,mg/dL,0.6,1.2,HIGH,,WEEK 2,4,2024-09-28,14
STUDY001,LB,STUDY001-SUBJ0001,38,L00038,BILI,Total Bilirubin,CHEMISTRY,0.8,mg/dL,0.1,1.2,0.8,0.8,mg/dL,0.1,1.2,NORMAL,,WEEK 2,4,2024-09-28,14
STUDY001,LB,STUDY001-SUBJ0001,39,L00039,ALP,Alkaline Phosphatase,CHEMISTRY,111.98,U/L,44.0,147.0,111.98,111.98,U/L,44.0,147.0,NORMAL,,WEEK 2,4,2024-09-28,14
STUDY001,LB,STUDY001-SUBJ0001,40,L00040,ALT,Alanine Aminotransferase,CHEMISTRY,13.86,U/L,7.0,56.0,13.86,13.86,U/L,7.0,56.0,NORMAL,,WEEK 2,4,2024-09-28,14
STUDY001,LB,STUDY001-SUBJ0001,41,L00041,HGB,Hemoglobin,HEMATOLOGY,14.33,g/dL,13.5,17.5,14.33,14.33,g/dL,13.5,17.5,NORMAL,,WEEK 4,5,2024-10-12,28
STUDY001,LB,STUDY001-SUBJ0001,42,L00042,HCT,Hematocrit,HEMATOLOGY,47.5,%,41.0,51.0,47.5,47.5,%,41.0,51.0,NORMAL,,WEEK 4,5,2024-10-12,28
STUDY001,LB,STUDY001-SUBJ0001,43,L00043,WBC,White Blood Cell Count,HEMATOLOGY,6.46,10^9/L,4.5,11.0,6.46,6.46,10^9/L,4.5,11.0,NORMAL,,WEEK 4,5,2024-10-12,28
STUDY001,LB,STUDY001-SUBJ0001,44,L00044,PLT,Platelet Count,HEMATOLOGY,186.94,10^9/L,150.0,450.0,186.94,186.94,10^9/L,150.0,450.0,NORMAL,,WEEK 4,5,2024-10-12,28
STUDY001,LB,STUDY001-SUBJ0001,45,L00045,GLUC,Glucose,CHEMISTRY,100.44,mg/dL,70.0,100.0,100.44,100.44,mg/dL,70.0,100.0,HIGH,,WEEK 4,5,2024-10-12,28
STUDY001,LB,STUDY001-SUBJ0001,46,L00046,BUN,Blood Urea Nitrogen,CHEMISTRY,13.4,mg/dL,7.0,20.0,13.4,13.4,mg/dL,7.0,20.0,NORMAL,,WEEK 4,5,2024-10-12,28
STUDY001,LB,STUDY001-SUBJ0001,47,L00047,CREAT,Creatinine,CHEMISTRY,1.26,mg/dL,0.6,1.2,1.26,1.26,mg/dL,0.6,1.2,HIGH,,WEEK 4,5,2024-10-12,28
STUDY001,LB,STUDY001-SUBJ0001,48,L00048,BILI,Total Bilirubin,CHEMISTRY,0.79,mg/dL,0.1,1.2,0.79,0.79,mg/dL,0.1,1.2,NORMAL,,WEEK 4,5,2024-10-12,28
STUDY001,LB,STUDY001-SUBJ0001,49,L00049,ALP,Alkaline Phosphatase,CHEMISTRY,111.4,U/L,44.0,147.0,111.4,111.4,U/L,44.0,147.0,NORMAL,,WEEK 4,5,2024-10-12,28
STUDY001,LB,STUDY001-SUBJ0001,50,L00050,ALT,Alanine Aminotransferase,CHEMISTRY,13.16,U/L,7.0,56.0,13.16,13.16,U/L,7.0,56.0,NORMAL,,WEEK 4,5,2024-10-12,28
STUDY001,LB,STUDY001-SUBJ0001,51,L00051,HGB,Hemoglobin,HEMATOLOGY,14.2,g/dL,13.5,17.5,14.2,14.2,g/dL,13.5,17.5,NORMAL,,WEEK 8,6,2024-11-09,56
STUDY001,LB,STUDY001-SUBJ0001,52,L00052,HCT,Hematocrit,HEMATOLOGY,47.78,%,41.0,51.0,47.78,47.78,%,41.0,51.0,NORMAL,,WEEK 8,6,2024-11-09,56
STUDY001,LB,STUDY001-SUBJ0001,53,L00053,WBC,White Blood Cell Count,HEMATOLOGY,6.49,10^9/L,4.5,11.0,6.49,6.49,10^9/L,4.5,11.0,NORMAL,,WEEK 8,6,2024-11-09,56
STUDY001,LB,STUDY001-SUBJ0001,54,L00054,PLT,Platelet Count,HEMATOLOGY,196.11,10^9/L,150.0,450.0,196.11,196.11,10^9/L,150.0,450.0,NORMAL,,WEEK 8,6,2024-11-09,56
STUDY001,LB,STUDY001-SUBJ0001,55,L00055,GLUC,Glucose,CHEMISTRY,103.29,mg/dL,70.0,100.0,103.29,103.29,mg/dL,70.0,100.0,HIGH,,WEEK 8,6,2024-11-09,56
STUDY001,LB,STUDY001-SUBJ0001,56,L00056,BUN,Blood Urea Nitrogen,CHEMISTRY,13.51,mg/dL,7.0,20.0,13.51,13.51,mg/dL,7.0,20.0,NORMAL,,WEEK 8,6,2024-11-09,56
STUDY001,LB,STUDY001-SUBJ0001,57,L00057,CREAT,Creatinine,CHEMISTRY,1.27,mg/dL,0.6,1.2,1.27,1.27,mg/dL,0.6,1.2,HIGH,,WEEK 8,6,2024-11-09,56
STUDY001,LB,STUDY001-SUBJ0001,58,L00058,BILI,Total Bilirubin,CHEMISTRY,0.76,mg/dL,0.1,1.2,0.76,0.76,mg/dL,0.1,1.2,NORMAL,,WEEK 8,6,2024-11-09,56
STUDY001,LB,STUDY001-SUBJ0001,59,L00059,ALP,Alkaline Phosphatase,CHEMISTRY,113.33,U/L,44.0,147.0,113.33,113.33,U/L,44.0,147.0,NORMAL,,WEEK 8,6,2024-11-09,56
STUDY001,LB,STUDY001-SUBJ0001,60,L00060,ALT,Alanine Aminotransferase,CHEMISTRY,13.72,U/L,7.0,56.0,13.72,13.72,U/L,7.0,56.0,NORMAL,,WEEK 8,6,2024-11-09,56
STUDY001,LB,STUDY001-SUBJ0001,61,L00061,HGB,Hemoglobin,HEMATOLOGY,14.36,g/dL,13.5,17.5,14.36,14.36,g/dL,13.5,17.5,NORMAL,,WEEK 12,7,2024-12-07,84
STUDY001,LB,STUDY001-SUBJ0001,62,L00062,HCT,Hematocrit,HEMATOLOGY,47.57,%,41.0,51.0,47.57,47.57,%,41.0,51.0,NORMAL,,WEEK 12,7,2024-12-07,84
STUDY001,LB,STUDY001-SUBJ0001,63,L00063,WBC,White Blood Cell Count,HEMATOLOGY,6.32,10^9/L,4.5,11.0,6.32,6.32,10^9/L,4.5,11.0,NORMAL,,WEEK 12,7,2024-12-07,84
STUDY001,LB,STUDY001-SUBJ0001,64,L00064,PLT,Platelet Count,HEMATOLOGY,194.56,10^9/L,150.0,450.0,194.56,194.56,10^9/L,150.0,450.0,NORMAL,,WEEK 12,7,2024-12-07,84
STUDY001,LB,STUDY001-SUBJ0001,65,L00065,GLUC,Glucose,CHEMISTRY,101.26,mg/dL,70.0,100.0,101.26,101.26,mg/dL,70.0,100.0,HIGH,,WEEK 12,7,2024-12-07,84
STUDY001,LB,STUDY001-SUBJ0001,66,L00066,BUN,Blood Urea Nitrogen,CHEMISTRY,13.32,mg/dL,7.0,20.0,13.32,13.32,mg/dL,7.0,20.0,NORMAL,,WEEK 12,7,2024-12-07,84
STUDY001,LB,STUDY001-SUBJ0001,67,L00067,CREAT,Creatinine,CHEMISTRY,1.29,mg/dL,0.6,1.2,1.29,1.29,mg/dL,0.6,1.2,HIGH,,WEEK 12,7,2024-12-07,84
STUDY001,LB,STUDY001-SUBJ0001,68,L00068,BILI,Total Bilirubin,CHEMISTRY,0.77,mg/dL,0.1,1.2,0.77,0.77,mg/dL,0.1,1.2,NORMAL,,WEEK 12,7,2024-12-07,84
STUDY001,LB,STUDY001-SUBJ0001,69,L00069,ALP,Alkaline Phosphatase,CHEMISTRY,112.09,U/L,44.0,147.0,112.09,112.09,U/L,44.0,147.0,NORMAL,,WEEK 12,7,2024-12-07,84
STUDY001,LB,STUDY001-SUBJ0001,70,L00070,ALT,Alanine Aminotransferase,CHEMISTRY,13.69,U/L,7.0,56.0,13.69,13.69,U/L,7.0,56.0,NORMAL,,WEEK 12,7,2024-12-07,84
STUDY001,LB,STUDY001-SUBJ0001,71,L00071,HGB,Hemoglobin,HEMATOLOGY,14.3,g/dL,13.5,17.5,14.3,14.3,g/dL,13.5,17.5,NORMAL,,WEEK 16,8,2025-01-04,112
STUDY001,LB,STUDY001-SUBJ0001,72,L00072,HCT,Hematocrit,HEMATOLOGY,47.66,%,41.0,51.0,47.66,47.66,%,41.0,51.0,NORMAL,,WEEK 16,8,2025-01-04,112
STUDY001,LB,STUDY001-SUBJ0001,73,L00073,WBC,White Blood Cell Count,HEMATOLOGY,6.33,10^9/L,4.5,11.0,6.33,6.33,10^9/L,4.5,11.0,NORMAL,,WEEK 16,8,2025-01-04,112
STUDY001,LB,STUDY001-SUBJ0001,74,L00074,PLT,Platelet Count,HEMATOLOGY,195.97,10^9/L,150.0,450.0,195.97,195.97,10^9/L,150.0,450.0,NORMAL,,WEEK 16,8,2025-01-04,112
STUDY001,LB,STUDY001-SUBJ0001,75,L00075,GLUC,Glucose,CHEMISTRY,98.44,mg/dL,70.0,100.0,98.44,98.44,mg/dL,70.0,100.0,NORMAL,,WEEK 16,8,2025-01-04,112
STUDY001,LB,STUDY001-SUBJ0001,76,L00076,BUN,Blood Urea Nitrogen,CHEMISTRY,13.61,mg/dL,7.0,20.0,13.61,13.61,mg/dL,7.0,20.0,NORMAL,,WEEK 16,8,2025-01-04,112
STUDY001,LB,STUDY001-SUBJ0001,77,L00077,CREAT,Creatinine,CHEMISTRY,1.28,mg/dL,0.6,1.2,1.28,1.28,mg/dL,0.6,1.2,HIGH,,WEEK 16,8,2025-01-04,112
STUDY001,LB,STUDY001-SUBJ0001,78,L00078,BILI,Total Bilirubin,CHEMISTRY,0.77,mg/dL,0.1,1.2,0.77,0.77,mg/dL,0.1,1.2,NORMAL,,WEEK 16,8,2025-01-04,112
STUDY001,LB,STUDY001-SUBJ0001,79,L00079,ALP,Alkaline Phosphatase,CHEMISTRY,113.33,U/L,44.0,147.0,113.33,113.33,U/L,44.0,147.0,NORMAL,,WEEK 16,8,2025-01-04,112
STUDY001,LB,STUDY001-SUBJ0001,80,L00080,ALT,Alanine Aminotransferase,CHEMISTRY,13.04,U/L,7.0,56.0,13.04,13.04,U/L,7.0,56.0,NORMAL,,WEEK 16,8,2025-01-04,112
STUDY001,LB,STUDY001-SUBJ0001,81,L00081,HGB,Hemoglobin,HEMATOLOGY,14.24,g/dL,13.5,17.5,14.24,14.24,g/dL,13.5,17.5,NORMAL,,END OF TREATMENT,9,2025-02-01,140
STUDY001,LB,STUDY001-SUBJ0001,82,L00082,HCT,Hematocrit,HEMATOLOGY,47.8,%,41.0,51.0,47.8,47.8,%,41.0,51.0,NORMAL,,END OF TREATMENT,9,2025-02-01,140
STUDY001,LB,STUDY001-SUBJ0001,83,L00083,WBC,White Blood Cell Count,HEMATOLOGY,6.33,10^9/L,4.5,11.0,6.33,6.33,10^9/L,4.5,11.0,NORMAL,,END OF TREATMENT,9,2025-02-01,140
STUDY001,LB,STUDY001-SUBJ0001,84,L00084,PLT,Platelet Count,HEMATOLOGY,194.16,10^9/L,150.0,450.0,194.16,194.16,10^9/L,150.0,450.0,NORMAL,,END OF TREATMENT,9,2025-02-01,140
STUDY001,LB,STUDY001-SUBJ0001,85,L00085,GLUC,Glucose,CHEMISTRY,100.28,mg/dL,70.0,100.0,100.28,100.28,mg/dL,70.0,100.0,HIGH,,END OF TREATMENT,9,2025-02-01,140
STUDY001,LB,STUDY001-SUBJ0001,86,L00086,BUN,Blood Urea Nitrogen,CHEMISTRY,13.59,mg/dL,7.0,20.0,13.59,13.59,mg/dL,7.0,20.0,NORMAL,,END OF TREATMENT,9,2025-02-01,140
STUDY001,LB,STUDY001-SUBJ0001,87,L00087,CREAT,Creatinine,CHEMISTRY,1.25,mg/dL,0.6,1.2,1.25,1.25,mg/dL,0.6,1.2,HIGH,,END OF TREATMENT,9,2025-02-01,140
STUDY001,LB,STUDY001-SUBJ0001,88,L00088,BILI,Total Bilirubin,CHEMISTRY,0.75,mg/dL,0.1,1.2,0.75,0.75,mg/dL,0.1,1.2,NORMAL,,END OF TREATMENT,9,2025-02-01,140
STUDY001,LB,STUDY001-SUBJ0001,89,L00089,ALP,Alkaline Phosphatase,CHEMISTRY,111.09,U/L,44.0,147.0,111.09,111.09,U/L,44.0,147.0,NORMAL,,END OF TREATMENT,9,2025-02-01,140
STUDY001,LB,STUDY001-SUBJ0001,90,L00090,ALT,Alanine Aminotransferase,CHEMISTRY,12.83,U/L,7.0,56.0,12.83,12.83,U/L,7.0,56.0,NORMAL,,END OF TREATMENT,9,2025-02-01,140
STUDY001,LB,STUDY001-SUBJ0002,1,L00001,HGB,Hemoglobin,HEMATOLOGY,14.04,g/dL,13.5,17.5,14.04,14.04,g/dL,13.5,17.5,NORMAL,,SCREENING,1,2024-09-21,-14
STUDY001,LB,STUDY001-SUBJ0002,2,L00002,HCT,Hematocrit,HEMATOLOGY,47.88,%,41.0,51.0,47.88,47.88,%,41.0,51.0,NORMAL,,SCREENING,1,2024-09-21,-14
STUDY001,LB,STUDY001-SUBJ0002,3,L00003,WBC,White Blood Cell Count,HEMATOLOGY,8.42,10^9/L,4.5,11.0,8.42,8.42,10^9/L,4.5,11.0,NORMAL,,SCREENING,1,2024-09-21,-14
STUDY001,LB,STUDY001-SUBJ0002,4,L00004,PLT,Platelet Count,HEMATOLOGY,264.49,10^9/L,150.0,450.0,264.49,264.49,10^9/L,150.0,450.0,NORMAL,,SCREENING,1,2024-09-21,-14
STUDY001,LB,STUDY001-SUBJ0002,5,L00005,GLUC,Glucose,CHEMISTRY,82.75,mg/dL,70.0,100.0,82.75,82.75,mg/dL,70.0,100.0,NORMAL,,SCREENING,1,2024-09-21,-14
STUDY001,LB,STUDY001-SUBJ0002,6,L00006,BUN,Blood Urea Nitrogen,CHEMISTRY,12.35,mg/dL,7.0,20.0,12.35,12.35,mg/dL,7.0,20.0,NORMAL,,SCREENING,1,2024-09-21,-14
STUDY001,LB,STUDY001-SUBJ0002,7,L00007,CREAT,Creatinine,CHEMISTRY,0.95,mg/dL,0.6,1.2,0.95,0.95,mg/dL,0.6,1.2,NORMAL,,SCREENING,1,2024-09-21,-14
STUDY001,LB,STUDY001-SUBJ0002,8,L00008,BILI,Total Bilirubin,CHEMISTRY,0.53,mg/dL,0.1,1.2,0.53,0.53,mg/dL,0.1,1.2,NORMAL,,SCREENING,1,2024-09-21,-14
STUDY001,LB,STUDY001-SUBJ0002,9,L00009,ALP,Alkaline Phosphatase,CHEMISTRY,73.61,U/L,44.0,147.0,73.61,73.61,U/L,44.0,147.0,NORMAL,,SCREENING,1,2024-09-21,-14
STUDY001,LB,STUDY001-SUBJ0002,10,L00010,ALT,Alanine Aminotransferase,CHEMISTRY,24.84,U/L,7.0,56.0,24.84,24.84,U/L,7.0,56.0,NORMAL,,SCREENING,1,2024-09-21,-14
STUDY001,LB,STUDY001-SUBJ0002,11,L00011,HGB,Hemoglobin,HEMATOLOGY,13.84,g/dL,13.5,17.5,13.84,13.84,g/dL,13.5,17.5,NORMAL,Y,BASELINE,2,2024-10-05,1
STUDY001,LB,STUDY001-SUBJ0002,12,L00012,HCT,Hematocrit,HEMATOLOGY,47.84,%,41.0,51.0,47.84,47.84,%,41.0,51.0,NORMAL,Y,BASELINE,2,2024-10-05,1
STUDY001,LB,STUDY001-SUBJ0002,13,L00013,WBC,White Blood Cell Count,HEMATOLOGY,8.64,10^9/L,4.5,11.0,8.64,8.64,10^9/L,4.5,11.0,NORMAL,Y,BASELINE,2,2024-10-05,1
STUDY001,LB,STUDY001-SUBJ0002,14,L00014,PLT,Platelet Count,HEMATOLOGY,258.82,10^9/L,150.0,450.0,258.82,258.82,10^9/L,150.0,450.0,NORMAL,Y,BASELINE,2,2024-10-05,1
STUDY001,LB,STUDY001-SUBJ0002,15,L00015,GLUC,Glucose,CHEMISTRY,86.17,mg/dL,70.0,100.0,86.17,86.17,mg/dL,70.0,100.0,NORMAL,Y,BASELINE,2,2024-10-05,1
STUDY001,LB,STUDY001-SUBJ0002,16,L00016,BUN,Blood Urea Nitrogen,CHEMISTRY,12.51,mg/dL,7.0,20.0,12.51,12.51,mg/dL,7.0,20.0,NORMAL,Y,BASELINE,2,2024-10-05,1
STUDY001,LB,STUDY001-SUBJ0002,17,L00017,CREAT,Creatinine,CHEMISTRY,0.99,mg/dL,0.6,1.2,0.99,0.99,mg/dL,0.6,1.2,NORMAL,Y,BASELINE,2,2024-10-05,1
STUDY001,LB,STUDY001-SUBJ0002,18,L00018,BILI,Total Bilirubin,CHEMISTRY,0.53,mg/dL,0.1,1.2,0.53,0.53,mg/dL,0.1,1.2,NORMAL,Y,BASELINE,2,2024-10-05,1
STUDY001,LB,STUDY001-SUBJ0002,19,L00019,ALP,Alkaline Phosphatase,CHEMISTRY,75.36,U/L,44.0,147.0,75.36,75.36,U/L,44.0,147.0,NORMAL,Y,BASELINE,2,2024-10-05,1
STUDY001,LB,STUDY001-SUBJ0002,20,L00020,ALT,Alanine Aminotransferase,CHEMISTRY,25.61,U/L,7.0,56.0,25.61,25.61,U/L,7.0,56.0,NORMAL,Y,BASELINE,2,2024-10-05,1
STUDY001,LB,STUDY001-SUBJ0002,21,L00021,HGB,Hemoglobin,HEMATOLOGY,13.91,g/dL,13.5,17.5,13.91,13.91,g/dL,13.5,17.5,NORMAL,,WEEK 1,3,2024-10-11,7
STUDY001,LB,STUDY001-SUBJ0002,22,L00022,HCT,Hematocrit,HEMATOLOGY,47.67,%,41.0,51.0,47.67,47.67,%,41.0,51.0,NORMAL,,WEEK 1,3,2024-10-11,7
STUDY001,LB,STUDY001-SUBJ0002,23,L00023,WBC,White Blood Cell Count,HEMATOLOGY,8.72,10^9/L,4.5,11.0,8.72,8.72,10^9/L,4.5,11.0,NORMAL,,WEEK 1,3,2024-10-11,7
STUDY001,LB,STUDY001-SUBJ0002,24,L00024,PLT,Platelet Count,HEMATOLOGY,263.17,10^9/L,150.0,450.0,263.17,263.17,10^9/L,150.0,450.0,NORMAL,,WEEK 1,3,2024-10-11,7
STUDY001,LB,STUDY001-SUBJ0002,25,L00025,GLUC,Glucose,CHEMISTRY,86.33,mg/dL,70.0,100.0,86.33,86.33,mg/dL,70.0,100.0,NORMAL,,WEEK 1,3,2024-10-11,7
STUDY001,LB,STUDY001-SUBJ0002,26,L00026,BUN,Blood Urea Nitrogen,CHEMISTRY,12.53,mg/dL,7.0,20.0,12.53,12.53,mg/dL,7.0,20.0,NORMAL,,WEEK 1,3,2024-10-11,7
STUDY001,LB,STUDY001-SUBJ0002,27,L00027,CREAT,Creatinine,CHEMISTRY,0.96,mg/dL,0.6,1.2,0.96,0.96,mg/dL,0.6,1.2,NORMAL,,WEEK 1,3,2024-10-11,7
STUDY001,LB,STUDY001-SUBJ0002,28,L00028,BILI,Total Bilirubin,CHEMISTRY,0.57,mg/dL,0.1,1.2,0.57,0.57,mg/dL,0.1,1.2,NORMAL,,WEEK 1,3,2024-10-11,7
STUDY001,LB,STUDY001-SUBJ0002,29,L00029,ALP,Alkaline Phosphatase,CHEMISTRY,75.4,U/L,44.0,147.0,75.4,75.4,U/L,44.0,147.0,NORMAL,,WEEK 1,3,2024-10-11,7
STUDY001,LB,STUDY001-SUBJ0002,30,L00030,ALT,Alanine Aminotransferase,CHEMISTRY,27.78,U/L,7.0,56.0,27.78,27.78,U/L,7.0,56.0,NORMAL,,WEEK 1,3,2024-10-11,7
STUDY001,LB,STUDY001-SUBJ0002,31,L00031,HGB,Hemoglobin,HEMATOLOGY,13.85,g/dL,13.5,17.5,13.85,13.85,g/dL,13.5,17.5,NORMAL,,WEEK 2,4,2024-10-18,14
STUDY001,LB,STUDY001-SUBJ0002,32,L00032,HCT,Hematocrit,HEMATOLOGY,47.7,%,41.0,51.0,47.7,47.7,%,41.0,51.0,NORMAL,,WEEK 2,4,2024-10-18,14
STUDY001,LB,STUDY001-SUBJ0002,33,L00033,WBC,White Blood Cell Count,HEMATOLOGY,8.64,10^9/L,4.5,11.0,8.64,8.64,10^9/L,4.5,11.0,NORMAL,,WEEK 2,4,2024-10-18,14
STUDY001,LB,STUDY001-SUBJ0002,34,L00034,PLT,Platelet Count,HEMATOLOGY,273.23,10^9/L,150.0,450.0,273.23,273.23,10^9/L,150.0,450.0,NORMAL,,WEEK 2,4,2024-10-18,14
STUDY001,LB,STUDY001-SUBJ0002,35,L00035,GLUC,Glucose,CHEMISTRY,86.01,mg/dL,70.0,100.0,86.01,86.01,mg/dL,70.0,100.0,NORMAL,,WEEK 2,4,2024-10-18,14
STUDY001,LB,STUDY001-SUBJ0002,36,L00036,BUN,Blood Urea Nitrogen,CHEMISTRY,12.62,mg/dL,7.0,20.0,12.62,12.62,mg/dL,7.0,20.0,NORMAL,,WEEK 2,4,2024-10-18,14
STUDY001,LB,STUDY001-SUBJ0002,37,L00037,CREAT,Creatinine,CHEMISTRY,0.99,mg/dL,0.6,1.2,0.99,0.99,mg/dL,0.6,1.2,NORMAL,,WEEK 2,4,2024-10-18,14
STUDY001,LB,STUDY001-SUBJ0002,38,L00038,BILI,Total Bilirubin,CHEMISTRY,0.51,mg/dL,0.1,1.2,0.51,0.51,mg/dL,0.1,1.2,NORMAL,,WEEK 2,4,2024-10-18,14
STUDY001,LB,STUDY001-SUBJ0002,39,L00039,ALP,Alkaline Phosphatase,CHEMISTRY,77.04,U/L,44.0,147.0,77.04,77.04,U/L,44.0,147.0,NORMAL,,WEEK 2,4,2024-10-18,14
STUDY001,LB,STUDY001-SUBJ0002,40,L00040,ALT,Alanine Aminotransferase,CHEMISTRY,26.72,U/L,7.0,56.0,26.72,26.72,U/L,7.0,56.0,NORMAL,,WEEK 2,4,2024-10-18,14
STUDY001,LB,STUDY001-SUBJ0002,41,L00041,HGB,Hemoglobin,HEMATOLOGY,13.93,g/dL,13.5,17.5,13.93,13.93,g/dL,13.5,17.5,NORMAL,,WEEK 4,5,2024-11-01,28
STUDY001,LB,STUDY001-SUBJ0002,42,L00042,HCT,Hematocrit,HEMATOLOGY,47.95,%,41.0,51.0,47.95,47.95,%,41.0,51.0,NORMAL,,WEEK 4,5,2024-11-01,28
STUDY001,LB,STUDY001-SUBJ0002,43,L00043,WBC,White Blood Cell Count,HEMATOLOGY,8.53,10^9/L,4.5,11.0,8.53,8.53,10^9/L,4.5,11.0,NORMAL,,WEEK 4,5,2024-11-01,28
STUDY001,LB,STUDY001-SUBJ0002,44,L00044,PLT,Platelet Count,HEMATOLOGY,259.03,10^9/L,150.0,450.0,259.03,259.03,10^9/L,150.0,450.0,NORMAL,,WEEK 4,5,2024-11-01,28
STUDY001,LB,STUDY001-SUBJ0002,45,L00045,GLUC,Glucose,CHEMISTRY,85.09,mg/dL,70.0,100.0,85.09,85.09,mg/dL,70.0,100.0,NORMAL,,WEEK 4,5,2024-11-01,28
STUDY001,LB,STUDY001-SUBJ0002,46,L00046,BUN,Blood Urea Nitrogen,CHEMISTRY,13.01,mg/dL,7.0,20.0,13.01,13.01,mg/dL,7.0,20.0,NORMAL,,WEEK 4,5,2024-11-01,28
STUDY001,LB,STUDY001-SUBJ0002,47,L00047,CREAT,Creatinine,CHEMISTRY,0.98,mg/dL,0.6,1.2,0.98,0.98,mg/dL,0.6,1.2,NORMAL,,WEEK 4,5,2024-11-01,28
STUDY001,LB,STUDY001-SUBJ0002,48,L00048,BILI,Total Bilirubin,CHEMISTRY,0.53,mg/dL,0.1,1.2,0.53,0.53,mg/dL,0.1,1.2,NORMAL,,WEEK 4,5,2024-11-01,28
STUDY001,LB,STUDY001-SUBJ0002,49,L00049,ALP,Alkaline Phosphatase,CHEMISTRY,75.77,U/L,44.0,147.0,75.77,75.77,U/L,44.0,147.0,NORMAL,,WEEK 4,5,2024-11-01,28
STUDY001,LB,STUDY001-SUBJ0002,50,L00050,ALT,Alanine Aminotransferase,CHEMISTRY,24.33,U/L,7.0,56.0,24.33,24.33,U/L,7.0,56.0,NORMAL,,WEEK 4,5,2024-11-01,28
STUDY001,LB,STUDY001-SUBJ0002,51,L00051,HGB,Hemoglobin,HEMATOLOGY,14.03,g/dL,13.5,17.5,14.03,14.03,g/dL,13.5,17.5,NORMAL,,WEEK 8,6,2024-11-29,56
STUDY001,LB,STUDY001-SUBJ0002,52,L00052,HCT,Hematocrit,HEMATOLOGY,47.94,%,41.0,51.0,47.94,47.94,%,41.0,51.0,NORMAL,,WEEK 8,6,2024-11-29,56
STUDY001,LB,STUDY001-SUBJ0002,53,L00053,WBC,White Blood Cell Count,HEMATOLOGY,8.77,10^9/L,4.5,11.0,8.77,8.77,10^9/L,4.5,11.0,NORMAL,,WEEK 8,6,2024-11-29,56
STUDY001,LB,STUDY001-SUBJ0002,54,L00054,PLT,Platelet Count,HEMATOLOGY,256.99,10^9/L,150.0,450.0,256.99,256.99,10^9/L,150.0,450.0,NORMAL,,WEEK 8,6,2024-11-29,56
STUDY001,LB,STUDY001-SUBJ0002,55,L00055,GLUC,Glucose,CHEMISTRY,85.75,mg/dL,70.0,100.0,85.75,85.75,mg/dL,70.0,100.0,NORMAL,,WEEK 8,6,2024-11-29,56
STUDY001,LB,STUDY001-SUBJ0002,56,L00056,BUN,Blood Urea Nitrogen,CHEMISTRY,12.63,mg/dL,7.0,20.0,12.63,12.63,mg/dL,7.0,20.0,NORMAL,,WEEK 8,6,2024-11-29,56
STUDY001,LB,STUDY001-SUBJ0002,57,L00057,CREAT,Creatinine,CHEMISTRY,1.0,mg/dL,0.6,1.2,1.0,1.0,mg/dL,0.6,1.2,NORMAL,,WEEK 8,6,2024-11-29,56
STUDY001,LB,STUDY001-SUBJ0002,58,L00058,BILI,Total Bilirubin,CHEMISTRY,0.5,mg/dL,0.1,1.2,0.5,0.5,mg/dL,0.1,1.2,NORMAL,,WEEK 8,6,2024-11-29,56
STUDY001,LB,STUDY001-SUBJ0002,59,L00059,ALP,Alkaline Phosphatase,CHEMISTRY,72.19,U/L,44.0,147.0,72.19,72.19,U/L,44.0,147.0,NORMAL,,WEEK 8,6,2024-11-29,56
STUDY001,LB,STUDY001-SUBJ0002,60,L00060,ALT,Alanine Aminotransferase,CHEMISTRY,26.94,U/L,7.0,56.0,26.94,26.94,U/L,7.0,56.0,NORMAL,,WEEK 8,6,2024-11-29,56
STUDY001,LB,STUDY001-SUBJ0002,61,L00061,HGB,Hemoglobin,HEMATOLOGY,13.9,g/dL,13.5,17.5,13.9,13.9,g/dL,13.5,17.5,NORMAL,,WEEK 12,7,2024-12-27,84
STUDY001,LB,STUDY001-SUBJ0002,62,L00062,HCT,Hematocrit,HEMATOLOGY,47.88,%,41.0,51.0,47.88,47.88,%,41.0,51.0,NORMAL,,WEEK 12,7,2024-12-27,84
STUDY001,LB,STUDY001-SUBJ0002,63,L00063,WBC,White Blood Cell Count,HEMATOLOGY,8.46,10^9/L,4.5,11.0,8.46,8.46,10^9/L,4.5,11.0,NORMAL,,WEEK 12,7,2024-12-27,84
STUDY001,LB,STUDY001-SUBJ0002,64,L00064,PLT,Platelet Count,HEMATOLOGY,274.99,10^9/L,150.0,450.0,274.99,274.99,10^9/L,150.0,450.0,NORMAL,,WEEK 12,7,2024-12-27,84
STUDY001,LB,STUDY001-SUBJ0002,65,L00065,GLUC,Glucose,CHEMISTRY,85.02,mg/dL,70.0,100.0,85.02,85.02,mg/dL,70.0,100.0,NORMAL,,WEEK 12,7,2024-12-27,84
STUDY001,LB,STUDY001-SUBJ0002,66,L00066,BUN,Blood Urea Nitrogen,CHEMISTRY,12.7,mg/dL,7.0,20.0,12.7,12.7,mg/dL,7.0,20.0,NORMAL,,WEEK 12,7,2024-12-27,84
STUDY001,LB,STUDY001-SUBJ0002,67,L00067,CREAT,Creatinine,CHEMISTRY,0.97,mg/dL,0.6,1.2,0.97,0.97,mg/dL,0.6,1.2,NORMAL,,WEEK 12,7,2024-12-27,84
STUDY001,LB,STUDY001-SUBJ0002,68,L00068,BILI,Total Bilirubin,CHEMISTRY,0.54,mg/dL,0.1,1.2,0.54,0.54,mg/dL,0.1,1.2,NORMAL,,WEEK 12,7,2024-12-27,84
STUDY001,LB,STUDY001-SUBJ0002,69,L00069,ALP,Alkaline Phosphatase,CHEMISTRY,74.84,U/L,44.0,147.0,74.84,74.84,U/L,44.0,147.0,NORMAL,,WEEK 12,7,2024-12-27,84
STUDY001,LB,STUDY001-SUBJ0002,70,L00070,ALT,Alanine Aminotransferase,CHEMISTRY,26.77,U/L,7.0,56.0,26.77,26.77,U/L,7.0,56.0,NORMAL,,WEEK 12,7,2024-12-27,84
STUDY001,LB,STUDY001-SUBJ0002,71,L00071,HGB,Hemoglobin,HEMATOLOGY,14.06,g/dL,13.5,17.5,14.06,14.06,g/dL,13.5,17.5,NORMAL,,WEEK 16,8,2025-01-24,112
STUDY001,LB,STUDY001-SUBJ0002,72,L00072,HCT,Hematocrit,HEMATOLOGY,48.16,%,41.0,51.0,48.16,48.16,%,41.0,51.0,NORMAL,,WEEK 16,8,2025-01-24,112
STUDY001,LB,STUDY001-SUBJ0002,73,L00073,WBC,White Blood Cell Count,HEMATOLOGY,8.52,10^9/L,4.5,11.0,8.52,8.52,10^9/L,4.5,11.0,NORMAL,,WEEK 16,8,2025-01-24,112
STUDY001,LB,STUDY001-SUBJ0002,74,L00074,PLT,Platelet Count,HEMATOLOGY,258.69,10^9/L,150.0,450.0,258.69,258.69,10^9/L,150.0,450.0,NORMAL,,WEEK 16,8,2025-01-24,112
STUDY001,LB,STUDY001-SUBJ0002,75,L00075,GLUC,Glucose,CHEMISTRY,85.2,mg/dL,70.0,100.0,85.2,85.2,mg/dL,70.0,100.0,NORMAL,,WEEK 16,8,2025-01-24,112
STUDY001,LB,STUDY001-SUBJ0002,76,L00076,BUN,Blood Urea Nitrogen,CHEMISTRY,12.62,mg/dL,7.0,20.0,12.62,12.62,mg/dL,7.0,20.0,NORMAL,,WEEK 16,8,2025-01-24,112
STUDY001,LB,STUDY001-SUBJ0002,77,L00077,CREAT,Creatinine,CHEMISTRY,0.97,mg/dL,0.6,1.2,0.97,0.97,mg/dL,0.6,1.2,NORMAL,,WEEK 16,8,2025-01-24,112
STUDY001,LB,STUDY001-SUBJ0002,78,L00078,BILI,Total Bilirubin,CHEMISTRY,0.55,mg/dL,0.1,1.2,0.55,0.55,mg/dL,0.1,1.2,NORMAL,,WEEK 16,8,2025-01-24,112
STUDY001,LB,STUDY001-SUBJ0002,79,L00079,ALP,Alkaline Phosphatase,CHEMISTRY,71.71,U/L,44.0,147.0,71.71,71.71,U/L,44.0,147.0,NORMAL,,WEEK 16,8,2025-01-24,112
STUDY001,LB,STUDY001-SUBJ0002,80,L00080,ALT,Alanine Aminotransferase,CHEMISTRY,25.05,U/L,7.0,56.0,25.05,25.05,U/L,7.0,56.0,NORMAL,,WEEK 16,8,2025-01-24,112
STUDY001,LB,STUDY001-SUBJ0002,81,L00081,HGB,Hemoglobin,HEMATOLOGY,13.98,g/dL,13.5,17.5,13.98,13.98,g/dL,13.5,17.5,NORMAL,,END OF TREATMENT,9,2025-02-21,140
STUDY001,LB,STUDY001-SUBJ0002,82,L00082,HCT,Hematocrit,HEMATOLOGY,48.27,%,41.0,51.0,48.27,48.27,%,41.0,51.0,NORMAL,,END OF TREATMENT,9,2025-02-21,140
STUDY001,LB,STUDY001-SUBJ0002,83,L00083,WBC,White Blood Cell Count,HEMATOLOGY,8.28,10^9/L,4.5,11.0,8.28,8.28,10^9/L,4.5,11.0,NORMAL,,END OF TREATMENT,9,2025-02-21,140
STUDY001,LB,STUDY001-SUBJ0002,84,L00084,PLT,Platelet Count,HEMATOLOGY,262.28,10^9/L,150.0,450.0,262.28,262.28,10^9/L,150.0,450.0,NORMAL,,END OF TREATMENT,9,2025-02-21,140
STUDY001,LB,STUDY001-SUBJ0002,85,L00085,GLUC,Glucose,CHEMISTRY,84.34,mg/dL,70.0,100.0,84.34,84.34,mg/dL,70.0,100.0,NORMAL,,END OF TREATMENT,9,2025-02-21,140
STUDY001,LB,STUDY001-SUBJ0002,86,L00086,BUN,Blood Urea Nitrogen,CHEMISTRY,12.58,mg/dL,7.0,20.0,12.58,12.58,mg/dL,7.0,20.0,NORMAL,,END OF TREATMENT,9,2025-02-21,140
STUDY001,LB,STUDY001-SUBJ0002,87,L00087,CREAT,Creatinine,CHEMISTRY,0.97,mg/dL,0.6,1.2,0.97,0.97,mg/dL,0.6,1.2,NORMAL,,END OF TREATMENT,9,2025-02-21,140
STUDY001,LB,STUDY001-SUBJ0002,88,L00088,BILI,Total Bilirubin,CHEMISTRY,0.53,mg/dL,0.1,1.2,0.53,0.53,mg/dL,0.1,1.2,NORMAL,,END OF TREATMENT,9,2025-02-21,140
STUDY001,LB,STUDY001-SUBJ0002,89,L00089,ALP,Alkaline Phosphatase,CHEMISTRY,74.93,U/L,44.0,147.0,74.93,74.93,U/L,44.0,147.0,NORMAL,,END OF TREATMENT,9,2025-02-21,140
STUDY001,LB,STUDY001-SUBJ0002,90,L00090,ALT,Alanine Aminotransferase,CHEMISTRY,25.99,U/L,7.0,56.0,25.99,25.99,U/L,7.0,56.0,NORMAL,,END OF TREATMENT,9,2025-02-21,140
STUDY001,LB,STUDY001-SUBJ0003,1,L00001,HGB,Hemoglobin,HEMATOLOGY,14.92,g/dL,13.5,17.5,14.92,14.92,g/dL,13.5,17.5,NORMAL,,SCREENING,1,2024-11-18,-14
STUDY001,LB,STUDY001-SUBJ0003,2,L00002,HCT,Hematocrit,HEMATOLOGY,41.17,%,41.0,51.0,41.17,41.17,%,41.0,51.0,NORMAL,,SCREENING,1,2024-11-18,-14
STUDY001,LB,STUDY001-SUBJ0003,3,L00003,WBC,White Blood Cell Count,HEMATOLOGY,6.77,10^9/L,4.5,11.0,6.77,6.77,10^9/L,4.5,11.0,NORMAL,,SCREENING,1,2024-11-18,-14
STUDY001,LB,STUDY001-SUBJ0003,4,L00004,PLT,Platelet Count,HEMATOLOGY,201.19,10^9/L,150.0,450.0,201.19,201.19,10^9/L,150.0,450.0,NORMAL,,SCREENING,1,2024-11-18,-14
STUDY001,LB,STUDY001-SUBJ0003,5,L00005,GLUC,Glucose,CHEMISTRY,89.03,mg/dL,70.0,100.0,89.03,89.03,mg/dL,70.0,100.0,NORMAL,,SCREENING,1,2024-11-18,-14
STUDY001,LB,STUDY001-SUBJ0003,6,L00006,BUN,Blood Urea Nitrogen,CHEMISTRY,6.73,mg/dL,7.0,20.0,6.73,6.73,mg/dL,7.0,20.0,LOW,,SCREENING,1,2024-11-18,-14
STUDY001,LB,STUDY001-SUBJ0003,7,L00007,CREAT,Creatinine,CHEMISTRY,0.97,mg/dL,0.6,1.2,0.97,0.97,mg/dL,0.6,1.2,NORMAL,,SCREENING,1,2024-11-18,-14
STUDY001,LB,STUDY001-SUBJ0003,8,L00008,BILI,Total Bilirubin,CHEMISTRY,0.4,mg/dL,0.1,1.2,0.4,0.4,mg/dL,0.1,1.2,NORMAL,,SCREENING,1,2024-11-18,-14
STUDY001,LB,STUDY001-SUBJ0003,9,L00009,ALP,Alkaline Phosphatase,CHEMISTRY,67.61,U/L,44.0,147.0,67.61,67.61,U/L,44.0,147.0,NORMAL,,SCREENING,1,2024-11-18,-14
STUDY001,LB,STUDY001-SUBJ0003,10,L00010,ALT,Alanine Aminotransferase,CHEMISTRY,24.93,U/L,7.0,56.0,24.93,24.93,U/L,7.0,56.0,NORMAL,,SCREENING,1,2024-11-18,-14
STUDY001,LB,STUDY001-SUBJ0003,11,L00011,HGB,Hemoglobin,HEMATOLOGY,14.91,g/dL,13.5,17.5,14.91,14.91,g/dL,13.5,17.5,NORMAL,Y,BASELINE,2,2024-12-02,1
STUDY001,LB,STUDY001-SUBJ0003,12,L00012,HCT,Hematocrit,HEMATOLOGY,41.18,%,41.0,51.0,41.18,41.18,%,41.0,51.0,NORMAL,Y,BASELINE,2,2024-12-02,1
STUDY001,LB,STUDY001-SUBJ0003,13,L00013,WBC,White Blood Cell Count,HEMATOLOGY,6.98,10^9/L,4.5,11.0,6.98,6.98,10^9/L,4.5,11.0,NORMAL,Y,BASELINE,2,2024-12-02,1
STUDY001,LB,STUDY001-SUBJ0003,14,L00014,PLT,Platelet Count,HEMATOLOGY,203.64,10^9/L,150.0,450.0,203.64,203.64,10^9/L,150.0,450.0,NORMAL,Y,BASELINE,2,2024-12-02,1
STUDY001,LB,STUDY001-SUBJ0003,15,L00015,GLUC,Glucose,CHEMISTRY,90.33,mg/dL,70.0,100.0,90.33,90.33,mg/dL,70.0,100.0,NORMAL,Y,BASELINE,2,2024-12-02,1
STUDY001,LB,STUDY001-SUBJ0003,16,L00016,BUN,Blood Urea Nitrogen,CHEMISTRY,7.51,mg/dL,7.0,20.0,7.51,7.51,mg/dL,7.0,20.0,NORMAL,Y,BASELINE,2,2024-12-02,1
STUDY001,LB,STUDY001-SUBJ0003,17,L00017,CREAT,Creatinine,CHEMISTRY,1.0,mg/dL,0.6,1.2,1.0,1.0,mg/dL,0.6,1.2,NORMAL,Y,BASELINE,2,2024-12-02,1
STUDY001,LB,STUDY001-SUBJ0003,18,L00018,BILI,Total Bilirubin,CHEMISTRY,0.4,mg/dL,0.1,1.2,0.4,0.4,mg/dL,0.1,1.2,NORMAL,Y,BASELINE,2,2024-12-02,1
STUDY001,LB,STUDY001-SUBJ0003,19,L00019,ALP,Alkaline Phosphatase,CHEMISTRY,72.33,U/L,44.0,147.0,72.33,72.33,U/L,44.0,147.0,NORMAL,Y,BASELINE,2,2024-12-02,1
STUDY001,LB,STUDY001-SUBJ0003,20,L00020,ALT,Alanine Aminotransferase,CHEMISTRY,27.45,U/L,7.0,56.0,27.45,27.45,U/L,7.0,56.0,NORMAL,Y,BASELINE,2,2024-12-02,1
STUDY001,LB,STUDY001-SUBJ0003,21,L00021,HGB,Hemoglobin,HEMATOLOGY,14.91,g/dL,13.5,17.5,14.91,14.91,g/dL,13.5,17.5,NORMAL,,WEEK 1,3,2024-12-08,7
STUDY001,LB,STUDY001-SUBJ0003,22,L00022,HCT,Hematocrit,HEMATOLOGY,40.99,%,41.0,51.0,40.99,40.99,%,41.0,51.0,LOW,,WEEK 1,3,2024-12-08,7
STUDY001,LB,STUDY001-SUBJ0003,23,L00023,WBC,White Blood Cell Count,HEMATOLOGY,6.7,10^9/L,4.5,11.0,6.7,6.7,10^9/L,4.5,11.0,NORMAL,,WEEK 1,3,2024-12-08,7
STUDY001,LB,STUDY001-SUBJ0003,24,L00024,PLT,Platelet Count,HEMATOLOGY,206.65,10^9/L,150.0,450.0,206.65,206.65,10^9/L,150.0,450.0,NORMAL,,WEEK 1,3,2024-12-08,7
STUDY001,LB,STUDY001-SUBJ0003,25,L00025,GLUC,Glucose,CHEMISTRY,89.2,mg/dL,70.0,100.0,89.2,89.2,mg/dL,70.0,100.0,NORMAL,,WEEK 1,3,2024-12-08,7
STUDY001,LB,STUDY001-SUBJ0003,26,L00026,BUN,Blood Urea Nitrogen,CHEMISTRY,7.15,mg/dL,7.0,20.0,7.15,7.15,mg/dL,7.0,20.0,NORMAL,,WEEK 1,3,2024-12-08,7
STUDY001,LB,STUDY001-SUBJ0003,27,L00027,CREAT,Creatinine,CHEMISTRY,1.01,mg/dL,0.6,1.2,1.01,1.01,mg/dL,0.6,1.2,NORMAL,,WEEK 1,3,2024-12-08,7
STUDY001,LB,STUDY001-SUBJ0003,28,L00028,BILI,Total Bilirubin,CHEMISTRY,0.4,mg/dL,0.1,1.2,0.4,0.4,mg/dL,0.1,1.2,NORMAL,,WEEK 1,3,2024-12-08,7
STUDY001,LB,STUDY001-SUBJ0003,29,L00029,ALP,Alkaline Phosphatase,CHEMISTRY,70.16,U/L,44.0,147.0,70.16,70.16,U/L,44.0,147.0,NORMAL,,WEEK 1,3,2024-12-08,7
STUDY001,LB,STUDY001-SUBJ0003,30,L00030,ALT,Alanine Aminotransferase,CHEMISTRY,28.12,U/L,7.0,56.0,28.12,28.12,U/L,7.0,56.0,NORMAL,,WEEK 1,3,2024-12-08,7
STUDY001,LB,STUDY001-SUBJ0003,31,L00031,HGB,Hemoglobin,HEMATOLOGY,15.02,g/dL,13.5,17.5,15.02,15.02,g/dL,13.5,17.5,NORMAL,,WEEK 2,4,2024-12-15,14
STUDY001,LB,STUDY001-SUBJ0003,32,L00032,HCT,Hematocrit,HEMATOLOGY,40.91,%,41.0,51.0,40.91,40.91,%,41.0,51.0,LOW,,WEEK 2,4,2024-12-15,14
STUDY001,LB,STUDY001-SUBJ0003,33,L00033,WBC,White Blood Cell Count,HEMATOLOGY,6.55,10^9/L,4.5,11.0,6.55,6.55,10^9/L,4.5,11.0,NORMAL,,WEEK 2,4,2024-12-15,14
STUDY001,LB,STUDY001-SUBJ0003,34,L00034,PLT,Platelet Count,HEMATOLOGY,211.13,10^9/L,150.0,450.0,211.13,211.13,10^9/L,150.0,450.0,NORMAL,,WEEK 2,4,2024-12-15,14
STUDY001,LB,STUDY001-SUBJ0003,35,L00035,GLUC,Glucose,CHEMISTRY,89.41,mg/dL,70.0,100.0,89.41,89.41,mg/dL,70.0,100.0,NORMAL,,WEEK 2,4,2024-12-15,14
STUDY001,LB,STUDY001-SUBJ0003,36,L00036,BUN,Blood Urea Nitrogen,CHEMISTRY,7.51,mg/dL,7.0,20.0,7.51,7.51,mg/dL,7.0,20.0,NORMAL,,WEEK 2,4,2024-12-15,14
STUDY001,LB,STUDY001-SUBJ0003,37,L00037,CREAT,Creatinine,CHEMISTRY,0.97,mg/dL,0.6,1.2,0.97,0.97,mg/dL,0.6,1.2,NORMAL,,WEEK 2,4,2024-12-15,14
STUDY001,LB,STUDY001-SUBJ0003,38,L00038,BILI,Total Bilirubin,CHEMISTRY,0.43,mg/dL,0.1,1.2,0.43,0.43,mg/dL,0.1,1.2,NORMAL,,WEEK 2,4,2024-12-15,14
STUDY001,LB,STUDY001-SUBJ0003,39,L00039,ALP,Alkaline Phosphatase,CHEMISTRY,67.51,U/L,44.0,147.0,67.51,67.51,U/L,44.0,147.0,NORMAL,,WEEK 2,4,2024-12-15,14
STUDY001,LB,STUDY001-SUBJ0003,40,L00040,ALT,Alanine Aminotransferase,CHEMISTRY,26.94,U/L,7.0,56.0,26.94,26.94,U/L,7.0,56.0,NORMAL,,WEEK 2,4,2024-12-15,14
STUDY001,LB,STUDY001-SUBJ0003,41,L00041,HGB,Hemoglobin,HEMATOLOGY,15.07,g/dL,13.5,17.5,15.07,15.07,g/dL,13.5,17.5,NORMAL,,WEEK 4,5,2024-12-29,28
STUDY001,LB,STUDY001-SUBJ0003,42,L00042,HCT,Hematocrit,HEMATOLOGY,41.49,%,41.0,51.0,41.49,41.49,%,41.0,51.0,NORMAL,,WEEK 4,5,2024-12-29,28
STUDY001,LB,STUDY001-SUBJ0003,43,L00043,WBC,White Blood Cell Count,HEMATOLOGY,6.75,10^9/L,4.5,11.0,6.75,6.75,10^9/L,4.5,11.0,NORMAL,,WEEK 4,5,2024-12-29,28
STUDY001,LB,STUDY001-SUBJ0003,44,L00044,PLT,Platelet Count,HEMATOLOGY,203.77,10^9/L,150.0,450.0,203.77,203.77,10^9/L,150.0,450.0,NORMAL,,WEEK 4,5,2024-12-29,28
STUDY001,LB,STUDY001-SUBJ0003,45,L00045,GLUC,Glucose,CHEMISTRY,89.37,mg/dL,70.0,100.0,89.37,89.37,mg/dL,70.0,100.0,NORMAL,,WEEK 4,5,2024-12-29,28
STUDY001,LB,STUDY001-SUBJ0003,46,L00046,BUN,Blood Urea Nitrogen,CHEMISTRY,6.88,mg/dL,7.0,20.0,6.88,6.88,mg/dL,7.0,20.0,LOW,,WEEK 4,5,2024-12-29,28
STUDY001,LB,STUDY001-SUBJ0003,47,L00047,CREAT,Creatinine,CHEMISTRY,0.96,mg/dL,0.6,1.2,0.96,0.96,mg/dL,0.6,1.2,NORMAL,,WEEK 4,5,2024-12-29,28
STUDY001,LB,STUDY001-SUBJ0003,48,L00048,BILI,Total Bilirubin,CHEMISTRY,0.41,mg/dL,0.1,1.2,0.41,0.41,mg/dL,0.1,1.2,NORMAL,,WEEK 4,5,2024-12-29,28
STUDY001,LB,STUDY001-SUBJ0003,49,L00049,ALP,Alkaline Phosphatase,CHEMISTRY,66.82,U/L,44.0,147.0,66.82,66.82,U/L,44.0,147.0,NORMAL,,WEEK 4,5,2024-12-29,28
STUDY001,LB,STUDY001-SUBJ0003,50,L00050,ALT,Alanine Aminotransferase,CHEMISTRY,27.9,U/L,7.0,56.0,27.9,27.9,U/L,7.0,56.0,NORMAL,,WEEK 4,5,2024-12-29,28
STUDY001,LB,STUDY001-SUBJ0003,51,L00051,HGB,Hemoglobin,HEMATOLOGY,14.9,g/dL,13.5,17.5,14.9,14.9,g/dL,13.5,17.5,NORMAL,,WEEK 8,6,2025-01-26,56
STUDY001,LB,STUDY001-SUBJ0003,52,L00052,HCT,Hematocrit,HEMATOLOGY,40.84,%,41.0,51.0,40.84,40.84,%,41.0,51.0,LOW,,WEEK 8,6,2025-01-26,56
STUDY001,LB,STUDY001-SUBJ0003,53,L00053,WBC,White Blood Cell Count,HEMATOLOGY,6.9,10^9/L,4.5,11.0,6.9,6.9,10^9/L,4.5,11.0,NORMAL,,WEEK 8,6,2025-01-26,56
STUDY001,LB,STUDY001-SUBJ0003,54,L00054,PLT,Platelet Count,HEMATOLOGY,206.59,10^9/L,150.0,450.0,206.59,206.59,10^9/L,150.0,450.0,NORMAL,,WEEK 8,6,2025-01-26,56
STUDY001,LB,STUDY001-SUBJ0003,55,L00055,GLUC,Glucose,CHEMISTRY,88.96,mg/dL,70.0,100.0,88.96,88.96,mg/dL,70.0,100.0,NORMAL,,WEEK 8,6,2025-01-26,56
STUDY001,LB,STUDY001-SUBJ0003,56,L00056,BUN,Blood Urea Nitrogen,CHEMISTRY,7.17,mg/dL,7.0,20.0,7.17,7.17,mg/dL,7.0,20.0,NORMAL,,WEEK 8,6,2025-01-26,56
STUDY001,LB,STUDY001-SUBJ0003,57,L00057,CREAT,Creatinine,CHEMISTRY,0.98,mg/dL,0.6,1.2,0.98,0.98,mg/dL,0.6,1.2,NORMAL,,WEEK 8,6,2025-01-26,56
STUDY001,LB,STUDY001-SUBJ0003,58,L00058,BILI,Total Bilirubin,CHEMISTRY,0.46,mg/dL,0.1,1.2,0.46,0.46,mg/dL,0.1,1.2,NORMAL,,WEEK 8,6,2025-01-26,56
STUDY001,LB,STUDY001-SUBJ0003,59,L00059,ALP,Alkaline Phosphatase,CHEMISTRY,69.54,U/L,44.0,147.0,69.54,69.54,U/L,44.0,147.0,NORMAL,,WEEK 8,6,2025-01-26,56
STUDY001,LB,STUDY001-SUBJ0003,60,L00060,ALT,Alanine Aminotransferase,CHEMISTRY,27.82,U/L,7.0,56.0,27.82,27.82,U/L,7.0,56.0,NORMAL,,WEEK 8,6,2025-01-26,56
STUDY001,LB,STUDY001-SUBJ0003,61,L00061,HGB,Hemoglobin,HEMATOLOGY,14.9,g/dL,13.5,17.5,14.9,14.9,g/dL,13.5,17.5,NORMAL,,WEEK 12,7,2025-02-23,84
STUDY001,LB,STUDY001-SUBJ0003,62,L00062,HCT,Hematocrit,HEMATOLOGY,40.92,%,41.0,51.0,40.92,40.92,%,41.0,51.0,LOW,,WEEK 12,7,2025-02-23,84
STUDY001,LB,STUDY001-SUBJ0003,63,L00063,WBC,White Blood Cell Count,HEMATOLOGY,6.88,10^9/L,4.5,11.0,6.88,6.88,10^9/L,4.5,11.0,NORMAL,,WEEK 12,7,2025-02-23,84
STUDY001,LB,STUDY001-SUBJ0003,64,L00064,PLT,Platelet Count,HEMATOLOGY,216.64,10^9/L,150.0,450.0,216.64,216.64,10^9/L,150.0,450.0,NORMAL,,WEEK 12,7,2025-02-23,84
STUDY001,LB,STUDY001-SUBJ0003,65,L00065,GLUC,Glucose,CHEMISTRY,88.97,mg/dL,70.0,100.0,88.97,88.97,mg/dL,70.0,100.0,NORMAL,,WEEK 12,7,2025-02-23,84
STUDY001,LB,STUDY001-SUBJ0003,66,L00066,BUN,Blood Urea Nitrogen,CHEMISTRY,7.2,mg/dL,7.0,20.0,7.2,7.2,mg/dL,7.0,20.0,NORMAL,,WEEK 12,7,2025-02-23,84
STUDY001,LB,STUDY001-SUBJ0003,67,L00067,CREAT,Creatinine,CHEMISTRY,0.96,mg/dL,0.6,1.2,0.96,0.96,mg/dL,0.6,1.2,NORMAL,,WEEK 12,7,2025-02-23,84
STUDY001,LB,STUDY001-SUBJ0003,68,L00068,BILI,Total Bilirubin,CHEMISTRY,0.41,mg/dL,0.1,1.2,0.41,0.41,mg/dL,0.1,1.2,NORMAL,,WEEK 12,7,2025-02-23,84
STUDY001,LB,STUDY001-SUBJ0003,69,L00069,ALP,Alkaline Phosphatase,CHEMISTRY,70.38,U/L,44.0,147.0,70.38,70.38,U/L,44.0,147.0,NORMAL,,WEEK 12,7,2025-02-23,84
STUDY001,LB,STUDY001-SUBJ0003,70,L00070,ALT,Alanine Aminotransferase,CHEMISTRY,27.1,U/L,7.0,56.0,27.1,27.1,U/L,7.0,56.0,NORMAL,,WEEK 12,7,2025-02-23,84
STUDY001,LB,STUDY001-SUBJ0003,71,L00071,HGB,Hemoglobin,HEMATOLOGY,14.96,g/dL,13.5,17.5,14.96,14.96,g/dL,13.5,17.5,NORMAL,,WEEK 16,8,2025-03-23,112
STUDY001,LB,STUDY001-SUBJ0003,72,L00072,HCT,Hematocrit,HEMATOLOGY,40.8,%,41.0,51.0,40.8,40.8,%,41.0,51.0,LOW,,WEEK 16,8,2025-03-23,112
STUDY001,LB,STUDY001-SUBJ0003,73,L00073,WBC,White Blood Cell Count,HEMATOLOGY,6.89,10^9/L,4.5,11.0,6.89,6.89,10^9/L,4.5,11.0,NORMAL,,WEEK 16,8,2025-03-23,112
STUDY001,LB,STUDY001-SUBJ0003,74,L00074,PLT,Platelet Count,HEMATOLOGY,192.3,10^9/L,150.0,450.0,192.3,192.3,10^9/L,150.0,450.0,NORMAL,,WEEK 16,8,2025-03-23,112
STUDY001,LB,STUDY001-SUBJ0003,75,L00075,GLUC,Glucose,CHEMISTRY,90.75,mg/dL,70.0,100.0,90.75,90.75,mg/dL,70.0,100.0,NORMAL,,WEEK 16,8,2025-03-23,112
STUDY001,LB,STUDY001-SUBJ0003,76,L00076,BUN,Blood Urea Nitrogen,CHEMISTRY,6.67,mg/dL,7.0,20.0,6.67,6.67,mg/dL,7.0,20.0,LOW,,WEEK 16,8,2025-03-23,112
STUDY001,LB,STUDY001-SUBJ0003,77,L00077,CREAT,Creatinine,CHEMISTRY,0.98,mg/dL,0.6,1.2,0.98,0.98,mg/dL,0.6,1.2,NORMAL,,WEEK 16,8,2025-03-23,112
STUDY001,LB,STUDY001-SUBJ0003,78,L00078,BILI,Total Bilirubin,CHEMISTRY,0.41,mg/dL,0.1,1.2,0.41,0.41,mg/dL,0.1,1.2,NORMAL,,WEEK 16,8,2025-03-23,112
STUDY001,LB,STUDY001-SUBJ0003,79,L00079,ALP,Alkaline Phosphatase,CHEMISTRY,70.15,U/L,44.0,147.0,70.15,70.15,U/L,44.0,147.0,NORMAL,,WEEK 16,8,2025-03-23,112
STUDY001,LB,STUDY001-SUBJ0003,80,L00080,ALT,Alanine Aminotransferase,CHEMISTRY,27.24,U/L,7.0,56.0,27.24,27.24,U/L,7.0,56.0,NORMAL,,WEEK 16,8,2025-03-23,112
STUDY001,LB,STUDY001-SUBJ0003,81,L00081,HGB,Hemoglobin,HEMATOLOGY,15.09,g/dL,13.5,17.5,15.09,15.09,g/dL,13.5,17.5,NORMAL,,END OF TREATMENT,9,2025-04-20,140
STUDY001,LB,STUDY001-SUBJ0003,82,L00082,HCT,Hematocrit,HEMATOLOGY,41.0,%,41.0,51.0,41.0,41.0,%,41.0,51.0,NORMAL,,END OF TREATMENT,9,2025-04-20,140
STUDY001,LB,STUDY001-SUBJ0003,83,L00083,WBC,White Blood Cell Count,HEMATOLOGY,6.97,10^9/L,4.5,11.0,6.97,6.97,10^9/L,4.5,11.0,NORMAL,,END OF TREATMENT,9,2025-04-20,140
STUDY001,LB,STUDY001-SUBJ0003,84,L00084,PLT,Platelet Count,HEMATOLOGY,193.54,10^9/L,150.0,450.0,193.54,193.54,10^9/L,150.0,450.0,NORMAL,,END OF TREATMENT,9,2025-04-20,140
STUDY001,LB,STUDY001-SUBJ0003,85,L00085,GLUC,Glucose,CHEMISTRY,90.93,mg/dL,70.0,100.0,90.93,90.93,mg/dL,70.0,100.0,NORMAL,,END OF TREATMENT,9,2025-04-20,140
STUDY001,LB,STUDY001-SUBJ0003,86,L00086,BUN,Blood Urea Nitrogen,CHEMISTRY,7.1,mg/dL,7.0,20.0,7.1,7.1,mg/dL,7.0,20.0,NORMAL,,END OF TREATMENT,9,2025-04-20,140
STUDY001,LB,STUDY001-SUBJ0003,87,L00087,CREAT,Creatinine,CHEMISTRY,0.98,mg/dL,0.6,1.2,0.98,0.98,mg/dL,0.6,1.2,NORMAL,,END OF TREATMENT,9,2025-04-20,140
STUDY001,LB,STUDY001-SUBJ0003,88,L00088,BILI,Total Bilirubin,CHEMISTRY,0.41,mg/dL,0.1,1.2,0.41,0.41,mg/dL,0.1,1.2,NORMAL,,END OF TREATMENT,9,2025-04-20,140
STUDY001,LB,STUDY001-SUBJ0003,89,L00089,ALP,Alkaline Phosphatase,CHEMISTRY,69.2,U/L,44.0,147.0,69.2,69.2,U/L,44.0,147.0,NORMAL,,END OF TREATMENT,9,2025-04-20,140
STUDY001,LB,STUDY001-SUBJ0003,90,L00090,ALT,Alanine Aminotransferase,CHEMISTRY,26.85,U/L,7.0,56.0,26.85,26.85,U/L,7.0,56.0,NORMAL,,END OF TREATMENT,9,2025-04-20,140
STUDY001,LB,STUDY001-SUBJ0004,1,L00001,HGB,Hemoglobin,HEMATOLOGY,14.03,g/dL,13.5,17.5,14.03,14.03,g/dL,13.5,17.5,NORMAL,,SCREENING,1,2024-12-01,-14
STUDY001,LB,STUDY001-SUBJ0004,2,L00002,HCT,Hematocrit,HEMATOLOGY,47.37,%,41.0,51.0,47.37,47.37,%,41.0,51.0,NORMAL,,SCREENING,1,2024-12-01,-14
STUDY001,LB,STUDY001-SUBJ0004,3,L00003,WBC,White Blood Cell Count,HEMATOLOGY,8.09,10^9/L,4.5,11.0,8.09,8.09,10^9/L,4.5,11.0,NORMAL,,SCREENING,1,2024-12-01,-14
STUDY001,LB,STUDY001-SUBJ0004,4,L00004,PLT,Platelet Count,HEMATOLOGY,244.98,10^9/L,150.0,450.0,244.98,244.98,10^9/L,150.0,450.0,NORMAL,,SCREENING,1,2024-12-01,-14
STUDY001,LB,STUDY001-SUBJ0004,5,L00005,GLUC,Glucose,CHEMISTRY,80.01,mg/dL,70.0,100.0,80.01,80.01,mg/dL,70.0,100.0,NORMAL,,SCREENING,1,2024-12-01,-14
STUDY001,LB,STUDY001-SUBJ0004,6,L00006,BUN,Blood Urea Nitrogen,CHEMISTRY,20.46,mg/dL,7.0,20.0,20.46,20.46,mg/dL,7.0,20.0,HIGH,,SCREENING,1,2024-12-01,-14
STUDY001,LB,STUDY001-SUBJ0004,7,L00007,CREAT,Creatinine,CHEMISTRY,0.83,mg/dL,0.6,1.2,0.83,0.83,mg/dL,0.6,1.2,NORMAL,,SCREENING,1,2024-12-01,-14
STUDY001,LB,STUDY001-SUBJ0004,8,L00008,BILI,Total Bilirubin,CHEMISTRY,0.89,mg/dL,0.1,1.2,0.89,0.89,mg/dL,0.1,1.2,NORMAL,,SCREENING,1,2024-12-01,-14
STUDY001,LB,STUDY001-SUBJ0004,9,L00009,ALP,Alkaline Phosphatase,CHEMISTRY,96.12,U/L,44.0,147.0,96.12,96.12,U/L,44.0,147.0,NORMAL,,SCREENING,1,2024-12-01,-14
STUDY001,LB,STUDY001-SUBJ0004,10,L00010,ALT,Alanine Aminotransferase,CHEMISTRY,36.56,U/L,7.0,56.0,36.56,36.56,U/L,7.0,56.0,NORMAL,,SCREENING,1,2024-12-01,-14
STUDY001,LB,STUDY001-SUBJ0004,11,L00011,HGB,Hemoglobin,HEMATOLOGY,14.11,g/dL,13.5,17.5,14.11,14.11,g/dL,13.5,17.5,NORMAL,Y,BASELINE,2,2024-12-15,1
STUDY001,LB,STUDY001-SUBJ0004,12,L00012,HCT,Hematocrit,HEMATOLOGY,47.07,%,41.0,51.0,47.07,47.07,%,41.0,51.0,NORMAL,Y,BASELINE,2,2024-12-15,1
STUDY001,LB,STUDY001-SUBJ0004,13,L00013,WBC,White Blood Cell Count,HEMATOLOGY,8.05,10^9/L,4.5,11.0,8.05,8.05,10^9/L,4.5,11.0,NORMAL,Y,BASELINE,2,2024-12-15,1
STUDY001,LB,STUDY001-SUBJ0004,14,L00014,PLT,Platelet Count,HEMATOLOGY,249.93,10^9/L,150.0,450.0,249.93,249.93,10^9/L,150.0,450.0,NORMAL,Y,BASELINE,2,2024-12-15,1
STUDY001,LB,STUDY001-SUBJ0004,15,L00015,GLUC,Glucose,CHEMISTRY,78.23,mg/dL,70.0,100.0,78.23,78.23,mg/dL,70.0,100.0,NORMAL,Y,BASELINE,2,2024-12-15,1
STUDY001,LB,STUDY001-SUBJ0004,16,L00016,BUN,Blood Urea Nitrogen,CHEMISTRY,19.86,mg/dL,7.0,20.0,19.86,19.86,mg/dL,7.0,20.0,NORMAL,Y,BASELINE,2,2024-12-15,1
STUDY001,LB,STUDY001-SUBJ0004,17,L00017,CREAT,Creatinine,CHEMISTRY,0.8,mg/dL,0.6,1.2,0.8,0.8,mg/dL,0.6,1.2,NORMAL,Y,BASELINE,2,2024-12-15,1
STUDY001,LB,STUDY001-SUBJ0004,18,L00018,BILI,Total Bilirubin,CHEMISTRY,0.87,mg/dL,0.1,1.2,0.87,0.87,mg/dL,0.1,1.2,NORMAL,Y,BASELINE,2,2024-12-15,1
STUDY001,LB,STUDY001-SUBJ0004,19,L00019,ALP,Alkaline Phosphatase,CHEMISTRY,97.1,U/L,44.0,147.0,97.1,97.1,U/L,44.0,147.0,NORMAL,Y,BASELINE,2,2024-12-15,1
STUDY001,LB,STUDY001-SUBJ0004,20,L00020,ALT,Alanine Aminotransferase,CHEMISTRY,35.91,U/L,7.0,56.0,35.91,35.91,U/L,7.0,56.0,NORMAL,Y,BASELINE,2,2024-12-15,1
STUDY001,LB,STUDY001-SUBJ0004,21,L00021,HGB,Hemoglobin,HEMATOLOGY,14.06,g/dL,13.5,17.5,14.06,14.06,g/dL,13.5,17.5,NORMAL,,WEEK 1,3,2024-12-21,7
STUDY001,LB,STUDY001-SUBJ0004,22,L00022,HCT,Hematocrit,HEMATOLOGY,47.22,%,41.0,51.0,47.22,47.22,%,41.0,51.0,NORMAL,,WEEK 1,3,2024-12-21,7
STUDY001,LB,STUDY001-SUBJ0004,23,L00023,WBC,White Blood Cell Count,HEMATOLOGY,8.03,10^9/L,4.5,11.0,8.03,8.03,10^9/L,4.5,11.0,NORMAL,,WEEK 1,3,2024-12-21,7
STUDY001,LB,STUDY001-SUBJ0004,24,L00024,PLT,Platelet Count,HEMATOLOGY,258.65,10^9/L,150.0,450.0,258.65,258.65,10^9/L,150.0,450.0,NORMAL,,WEEK 1,3,2024-12-21,7
STUDY001,LB,STUDY001-SUBJ0004,25,L00025,GLUC,Glucose,CHEMISTRY,77.88,mg/dL,70.0,100.0,77.88,77.88,mg/dL,70.0,100.0,NORMAL,,WEEK 1,3,2024-12-21,7
STUDY001,LB,STUDY001-SUBJ0004,26,L00026,BUN,Blood Urea Nitrogen,CHEMISTRY,20.17,mg/dL,7.0,20.0,20.17,20.17,mg/dL,7.0,20.0,HIGH,,WEEK 1,3,2024-12-21,7
STUDY001,LB,STUDY001-SUBJ0004,27,L00027,CREAT,Creatinine,CHEMISTRY,0.84,mg/dL,0.6,1.2,0.84,0.84,mg/dL,0.6,1.2,NORMAL,,WEEK 1,3,2024-12-21,7
STUDY001,LB,STUDY001-SUBJ0004,28,L00028,BILI,Total Bilirubin,CHEMISTRY,0.87,mg/dL,0.1,1.2,0.87,0.87,mg/dL,0.1,1.2,NORMAL,,WEEK 1,3,2024-12-21,7
STUDY001,LB,STUDY001-SUBJ0004,29,L00029,ALP,Alkaline Phosphatase,CHEMISTRY,99.3,U/L,44.0,147.0,99.3,99.3,U/L,44.0,147.0,NORMAL,,WEEK 1,3,2024-12-21,7
STUDY001,LB,STUDY001-SUBJ0004,30,L00030,ALT,Alanine Aminotransferase,CHEMISTRY,34.74,U/L,7.0,56.0,34.74,34.74,U/L,7.0,56.0,NORMAL,,WEEK 1,3,2024-12-21,7
STUDY001,LB,STUDY001-SUBJ0004,31,L00031,HGB,Hemoglobin,HEMATOLOGY,13.96,g/dL,13.5,17.5,13.96,13.96,g/dL,13.5,17.5,NORMAL,,WEEK 2,4,2024-12-28,14
STUDY001,LB,STUDY001-SUBJ0004,32,L00032,HCT,Hematocrit,HEMATOLOGY,46.55,%,41.0,51.0,46.55,46.55,%,41.0,51.0,NORMAL,,WEEK 2,4,2024-12-28,14
STUDY001,LB,STUDY001-SUBJ0004,33,L00033,WBC,White Blood Cell Count,HEMATOLOGY,7.85,10^9/L,4.5,11.0,7.85,7.85,10^9/L,4.5,11.0,NORMAL,,WEEK 2,4,2024-12-28,14
STUDY001,LB,STUDY001-SUBJ0004,34,L00034,PLT,Platelet Count,HEMATOLOGY,248.87,10^9/L,150.0,450.0,248.87,248.87,10^9/L,150.0,450.0,NORMAL,,WEEK 2,4,2024-12-28,14
STUDY001,LB,STUDY001-SUBJ0004,35,L00035,GLUC,Glucose,CHEMISTRY,77.98,mg/dL,70.0,100.0,77.98,77.98,mg/dL,70.0,100.0,NORMAL,,WEEK 2,4,2024-12-28,14
STUDY001,LB,STUDY001-SUBJ0004,36,L00036,BUN,Blood Urea Nitrogen,CHEMISTRY,20.6,mg/dL,7.0,20.0,20.6,20.6,mg/dL,7.0,20.0,HIGH,,WEEK 2,4,2024-12-28,14
STUDY001,LB,STUDY001-SUBJ0004,37,L00037,CREAT,Creatinine,CHEMISTRY,0.81,mg/dL,0.6,1.2,0.81,0.81,mg/dL,0.6,1.2,NORMAL,,WEEK 2,4,2024-12-28,14
STUDY001,LB,STUDY001-SUBJ0004,38,L00038,BILI,Total Bilirubin,CHEMISTRY,0.9,mg/dL,0.1,1.2,0.9,0.9,mg/dL,0.1,1.2,NORMAL,,WEEK 2,4,2024-12-28,14
STUDY001,LB,STUDY001-SUBJ0004,39,L00039,ALP,Alkaline Phosphatase,CHEMISTRY,97.51,U/L,44.0,147.0,97.51,97.51,U/L,44.0,147.0,NORMAL,,WEEK 2,4,2024-12-28,14
STUDY001,LB,STUDY001-SUBJ0004,40,L00040,ALT,Alanine Aminotransferase,CHEMISTRY,36.18,U/L,7.0,56.0,36.18,36.18,U/L,7.0,56.0,NORMAL,,WEEK 2,4,2024-12-28,14
STUDY001,LB,STUDY001-SUBJ0004,41,L00041,HGB,Hemoglobin,HEMATOLOGY,13.83,g/dL,13.5,17.5,13.83,13.83,g/dL,13.5,17.5,NORMAL,,WEEK 4,5,2025-01-11,28
STUDY001,LB,STUDY001-SUBJ0004,42,L00042,HCT,Hematocrit,HEMATOLOGY,46.74,%,41.0,51.0,46.74,46.74,%,41.0,51.0,NORMAL,,WEEK 4,5,2025-01-11,28
STUDY001,LB,STUDY001-SUBJ0004,43,L00043,WBC,White Blood Cell Count,HEMATOLOGY,8.0,10^9/L,4.5,11.0,8.0,8.0,10^9/L,4.5,11.0,NORMAL,,WEEK 4,5,2025-01-11,28
STUDY001,LB,STUDY001-SUBJ0004,44,L00044,PLT,Platelet Count,HEMATOLOGY,252.8,10^9/L,150.0,450.0,252.8,252.8,10^9/L,150.0,450.0,NORMAL,,WEEK 4,5,2025-01-11,28
STUDY001,LB,STUDY001-SUBJ0004,45,L00045,GLUC,Glucose,CHEMISTRY,76.79,mg/dL,70.0,100.0,76.79,76.79,mg/dL,70.0,100.0,NORMAL,,WEEK 4,5,2025-01-11,28
STUDY001,LB,STUDY001-SUBJ0004,46,L00046,BUN,Blood Urea Nitrogen,CHEMISTRY,19.68,mg/dL,7.0,20.0,19.68,19.68,mg/dL,7.0,20.0,NORMAL,,WEEK 4,5,2025-01-11,28
STUDY001,LB,STUDY001-SUBJ0004,47,L00047,CREAT,Creatinine,CHEMISTRY,0.82,mg/dL,0.6,1.2,0.82,0.82,mg/dL,0.6,1.2,NORMAL,,WEEK 4,5,2025-01-11,28
STUDY001,LB,STUDY001-SUBJ0004,48,L00048,BILI,Total Bilirubin,CHEMISTRY,0.89,mg/dL,0.1,1.2,0.89,0.89,mg/dL,0.1,1.2,NORMAL,,WEEK 4,5,2025-01-11,28
STUDY001,LB,STUDY001-SUBJ0004,49,L00049,ALP,Alkaline Phosphatase,CHEMISTRY,97.44,U/L,44.0,147.0,97.44,97.44,U/L,44.0,147.0,NORMAL,,WEEK 4,5,2025-01-11,28
STUDY001,LB,STUDY001-SUBJ0004,50,L00050,ALT,Alanine Aminotransferase,CHEMISTRY,36.35,U/L,7.0,56.0,36.35,36.35,U/L,7.0,56.0,NORMAL,,WEEK 4,5,2025-01-11,28
STUDY001,LB,STUDY001-SUBJ0004,51,L00051,HGB,Hemoglobin,HEMATOLOGY,13.84,g/dL,13.5,17.5,13.84,13.84,g/dL,13.5,17.5,NORMAL,,WEEK 8,6,2025-02-08,56
STUDY001,LB,STUDY001-SUBJ0004,52,L00052,HCT,Hematocrit,HEMATOLOGY,47.14,%,41.0,51.0,47.14,47.14,%,41.0,51.0,NORMAL,,WEEK 8,6,2025-02-08,56
STUDY001,LB,STUDY001-SUBJ0004,53,L00053,WBC,White Blood Cell Count,HEMATOLOGY,7.96,10^9/L,4.5,11.0,7.96,7.96,10^9/L,4.5,11.0,NORMAL,,WEEK 8,6,2025-02-08,56
STUDY001,LB,STUDY001-SUBJ0004,54,L00054,PLT,Platelet Count,HEMATOLOGY,263.4,10^9/L,150.0,450.0,263.4,263.4,10^9/L,150.0,450.0,NORMAL,,WEEK 8,6,2025-02-08,56
STUDY001,LB,STUDY001-SUBJ0004,55,L00055,GLUC,Glucose,CHEMISTRY,77.08,mg/dL,70.0,100.0,77.08,77.08,mg/dL,70.0,100.0,NORMAL,,WEEK 8,6,2025-02-08,56
STUDY001,LB,STUDY001-SUBJ0004,56,L00056,BUN,Blood Urea Nitrogen,CHEMISTRY,20.17,mg/dL,7.0,20.0,20.17,20.17,mg/dL,7.0,20.0,HIGH,,WEEK 8,6,2025-02-08,56
STUDY001,LB,STUDY001-SUBJ0004,57,L00057,CREAT,Creatinine,CHEMISTRY,0.82,mg/dL,0.6,1.2,0.82,0.82,mg/dL,0.6,1.2,NORMAL,,WEEK 8,6,2025-02-08,56
STUDY001,LB,STUDY001-SUBJ0004,58,L00058,BILI,Total Bilirubin,CHEMISTRY,0.88,mg/dL,0.1,1.2,0.88,0.88,mg/dL,0.1,1.2,NORMAL,,WEEK 8,6,2025-02-08,56
STUDY001,LB,STUDY001-SUBJ0004,59,L00059,ALP,Alkaline Phosphatase,CHEMISTRY,96.58,U/L,44.0,147.0,96.58,96.58,U/L,44.0,147.0,NORMAL,,WEEK 8,6,2025-02-08,56
STUDY001,LB,STUDY001-SUBJ0004,60,L00060,ALT,Alanine Aminotransferase,CHEMISTRY,36.37,U/L,7.0,56.0,36.37,36.37,U/L,7.0,56.0,NORMAL,,WEEK 8,6,2025-02-08,56
STUDY001,LB,STUDY001-SUBJ0004,61,L00061,HGB,Hemoglobin,HEMATOLOGY,13.89,g/dL,13.5,17.5,13.89,13.89,g/dL,13.5,17.5,NORMAL,,WEEK 12,7,2025-03-08,84
STUDY001,LB,STUDY001-SUBJ0004,62,L00062,HCT,Hematocrit,HEMATOLOGY,46.9,%,41.0,51.0,46.9,46.9,%,41.0,51.0,NORMAL,,WEEK 12,7,2025-03-08,84
STUDY001,LB,STUDY001-SUBJ0004,63,L00063,WBC,White Blood Cell Count,HEMATOLOGY,7.83,10^9/L,4.5,11.0,7.83,7.83,10^9/L,4.5,11.0,NORMAL,,WEEK 12,7,2025-03-08,84
STUDY001,LB,STUDY001-SUBJ0004,64,L00064,PLT,Platelet Count,HEMATOLOGY,255.33,10^9/L,150.0,450.0,255.33,255.33,10^9/L,150.0,450.0,NORMAL,,WEEK 12,7,2025-03-08,84
STUDY001,LB,STUDY001-SUBJ0004,65,L00065,GLUC,Glucose,CHEMISTRY,79.16,mg/dL,70.0,100.0,79.16,79.16,mg/dL,70.0,100.0,NORMAL,,WEEK 12,7,2025-03-08,84
STUDY001,LB,STUDY001-SUBJ0004,66,L00066,BUN,Blood Urea Nitrogen,CHEMISTRY,19.96,mg/dL,7.0,20.0,19.96,19.96,mg/dL,7.0,20.0,NORMAL,,WEEK 12,7,2025-03-08,84
STUDY001,LB,STUDY001-SUBJ0004,67,L00067,CREAT,Creatinine,CHEMISTRY,0.82,mg/dL,0.6,1.2,0.82,0.82,mg/dL,0.6,1.2,NORMAL,,WEEK 12,7,2025-03-08,84
STUDY001,LB,STUDY001-SUBJ0004,68,L00068,BILI,Total Bilirubin,CHEMISTRY,0.95,mg/dL,0.1,1.2,0.95,0.95,mg/dL,0.1,1.2,NORMAL,,WEEK 12,7,2025-03-08,84
STUDY001,LB,STUDY001-SUBJ0004,69,L00069,ALP,Alkaline Phosphatase,CHEMISTRY,94.45,U/L,44.0,147.0,94.45,94.45,U/L,44.0,147.0,NORMAL,,WEEK 12,7,2025-03-08,84
STUDY001,LB,STUDY001-SUBJ0004,70,L00070,ALT,Alanine Aminotransferase,CHEMISTRY,37.61,U/L,7.0,56.0,37.61,37.61,U/L,7.0,56.0,NORMAL,,WEEK 12,7,2025-03-08,84
STUDY001,LB,STUDY001-SUBJ0004,71,L00071,HGB,Hemoglobin,HEMATOLOGY,13.88,g/dL,13.5,17.5,13.88,13.88,g/dL,13.5,17.5,NORMAL,,WEEK 16,8,2025-04-05,112
STUDY001,LB,STUDY001-SUBJ0004,72,L00072,HCT,Hematocrit,HEMATOLOGY,47.2,%,41.0,51.0,47.2,47.2,%,41.0,51.0,NORMAL,,WEEK 16,8,2025-04-05,112
STUDY001,LB,STUDY001-SUBJ0004,73,L00073,WBC,White Blood Cell Count,HEMATOLOGY,8.0,10^9/L,4.5,11.0,8.0,8.0,10^9/L,4.5,11.0,NORMAL,,WEEK 16,8,2025-04-05,112
STUDY001,LB,STUDY001-SUBJ0004,74,L00074,PLT,Platelet Count,HEMATOLOGY,259.67,10^9/L,150.0,450.0,259.67,259.67,10^9/L,150.0,450.0,NORMAL,,WEEK 16,8,2025-04-05,112
STUDY001,LB,STUDY001-SUBJ0004,75,L00075,GLUC,Glucose,CHEMISTRY,80.05,mg/dL,70.0,100.0,80.05,80.05,mg/dL,70.0,100.0,NORMAL,,WEEK 16,8,2025-04-05,112
STUDY001,LB,STUDY001-SUBJ0004,76,L00076,BUN,Blood Urea Nitrogen,CHEMISTRY,20.06,mg/dL,7.0,20.0,20.06,20.06,mg/dL,7.0,20.0,HIGH,,WEEK 16,8,2025-04-05,112
STUDY001,LB,STUDY001-SUBJ0004,77,L00077,CREAT,Creatinine,CHEMISTRY,0.79,mg/dL,0.6,1.2,0.79,0.79,mg/dL,0.6,1.2,NORMAL,,WEEK 16,8,2025-04-05,112
STUDY001,LB,STUDY001-SUBJ0004,78,L00078,BILI,Total Bilirubin,CHEMISTRY,0.89,mg/dL,0.1,1.2,0.89,0.89,mg/dL,0.1,1.2,NORMAL,,WEEK 16,8,2025-04-05,112
STUDY001,LB,STUDY001-SUBJ0004,79,L00079,ALP,Alkaline Phosphatase,CHEMISTRY,95.02,U/L,44.0,147.0,95.02,95.02,U/L,44.0,147.0,NORMAL,,WEEK 16,8,2025-04-05,112
STUDY001,LB,STUDY001-SUBJ0004,80,L00080,ALT,Alanine Aminotransferase,CHEMISTRY,36.19,U/L,7.0,56.0,36.19,36.19,U/L,7.0,56.0,NORMAL,,WEEK 16,8,2025-04-05,112
STUDY001,LB,STUDY001-SUBJ0004,81,L00081,HGB,Hemoglobin,HEMATOLOGY,14.15,g/dL,13.5,17.5,14.15,14.15,g/dL,13.5,17.5,NORMAL,,END OF TREATMENT,9,2025-05-03,140
STUDY001,LB,STUDY001-SUBJ0004,82,L00082,HCT,Hematocrit,HEMATOLOGY,47.3,%,41.0,51.0,47.3,47.3,%,41.0,51.0,NORMAL,,END OF TREATMENT,9,2025-05-03,140
STUDY001,LB,STUDY001-SUBJ0004,83,L00083,WBC,White Blood Cell Count,HEMATOLOGY,8.37,10^9/L,4.5,11.0,8.37,8.37,10^9/L,4.5,11.0,NORMAL,,END OF TREATMENT,9,2025-05-03,140
STUDY001,LB,STUDY001-SUBJ0004,84,L00084,PLT,Platelet Count,HEMATOLOGY,255.0,10^9/L,150.0,450.0,255.0,255.0,10^9/L,150.0,450.0,NORMAL,,END OF TREATMENT,9,2025-05-03,140
STUDY001,LB,STUDY001-SUBJ0004,85,L00085,GLUC,Glucose,CHEMISTRY,78.14,mg/dL,70.0,100.0,78.14,78.14,mg/dL,70.0,100.0,NORMAL,,END OF TREATMENT,9,2025-05-03,140
STUDY001,LB,STUDY001-SUBJ0004,86,L00086,BUN,Blood Urea Nitrogen,CHEMISTRY,20.65,mg/dL,7.0,20.0,20.65,20.65,mg/dL,7.0,20.0,HIGH,,END OF TREATMENT,9,2025-05-03,140
STUDY001,LB,STUDY001-SUBJ0004,87,L00087,CREAT,Creatinine,CHEMISTRY,0.81,mg/dL,0.6,1.2,0.81,0.81,mg/dL,0.6,1.2,NORMAL,,END OF TREATMENT,9,2025-05-03,140
STUDY001,LB,STUDY001-SUBJ0004,88,L00088,BILI,Total Bilirubin,CHEMISTRY,0.89,mg/dL,0.1,1.2,0.89,0.89,mg/dL,0.1,1.2,NORMAL,,END OF TREATMENT,9,2025-05-03,140
STUDY001,LB,STUDY001-SUBJ0004,89,L00089,ALP,Alkaline Phosphatase,CHEMISTRY,94.84,U/L,44.0,147.0,94.84,94.84,U/L,44.0,147.0,NORMAL,,END OF TREATMENT,9,2025-05-03,140
STUDY001,LB,STUDY001-SUBJ0004,90,L00090,ALT,Alanine Aminotransferase,CHEMISTRY,34.9,U/L,7.0,56.0,34.9,34.9,U/L,7.0,56.0,NORMAL,,END OF TREATMENT,9,2025-05-03,140
STUDY001,LB,STUDY001-SUBJ0005,1,L00001,HGB,Hemoglobin,HEMATOLOGY,12.12,g/dL,13.5,17.5,12.12,12.12,g/dL,13.5,17.5,LOW,,SCREENING,1,2025-01-19,-14
STUDY001,LB,STUDY001-SUBJ0005,2,L00002,HCT,Hematocrit,HEMATOLOGY,44.33,%,41.0,51.0,44.33,44.33,%,41.0,51.0,NORMAL,,SCREENING,1,2025-01-19,-14
STUDY001,LB,STUDY001-SUBJ0005,3,L00003,WBC,White Blood Cell Count,HEMATOLOGY,4.48,10^9/L,4.5,11.0,4.48,4.48,10^9/L,4.5,11.0,LOW,,SCREENING,1,2025-01-19,-14
STUDY001,LB,STUDY001-SUBJ0005,4,L00004,PLT,Platelet Count,HEMATOLOGY,243.21,10^9/L,150.0,450.0,243.21,243.21,10^9/L,150.0,450.0,NORMAL,,SCREENING,1,2025-01-19,-14
STUDY001,LB,STUDY001-SUBJ0005,5,L00005,GLUC,Glucose,CHEMISTRY,80.48,mg/dL,70.0,100.0,80.48,80.48,mg/dL,70.0,100.0,NORMAL,,SCREENING,1,2025-01-19,-14
STUDY001,LB,STUDY001-SUBJ0005,6,L00006,BUN,Blood Urea Nitrogen,CHEMISTRY,17.37,mg/dL,7.0,20.0,17.37,17.37,mg/dL,7.0,20.0,NORMAL,,SCREENING,1,2025-01-19,-14
STUDY001,LB,STUDY001-SUBJ0005,7,L00007,CREAT,Creatinine,CHEMISTRY,0.79,mg/dL,0.6,1.2,0.79,0.79,mg/dL,0.6,1.2,NORMAL,,SCREENING,1,2025-01-19,-14
STUDY001,LB,STUDY001-SUBJ0005,8,L00008,BILI,Total Bilirubin,CHEMISTRY,0.88,mg/dL,0.1,1.2,0.88,0.88,mg/dL,0.1,1.2,NORMAL,,SCREENING,1,2025-01-19,-14
STUDY001,LB,STUDY001-SUBJ0005,9,L00009,ALP,Alkaline Phosphatase,CHEMISTRY,71.25,U/L,44.0,147.0,71.25,71.25,U/L,44.0,147.0,NORMAL,,SCREENING,1,2025-01-19,-14
STUDY001,LB,STUDY001-SUBJ0005,10,L00010,ALT,Alanine Aminotransferase,CHEMISTRY,42.07,U/L,7.0,56.0,42.07,42.07,U/L,7.0,56.0,NORMAL,,SCREENING,1,2025-01-19,-14
STUDY001,LB,STUDY001-SUBJ0005,11,L00011,HGB,Hemoglobin,HEMATOLOGY,12.16,g/dL,13.5,17.5,12.16,12.16,g/dL,13.5,17.5,LOW,Y,BASELINE,2,2025-02-02,1
STUDY001,LB,STUDY001-SUBJ0005,12,L00012,HCT,Hematocrit,HEMATOLOGY,44.28,%,41.0,51.0,44.28,44.28,%,41.0,51.0,NORMAL,Y,BASELINE,2,2025-02-02,1
STUDY001,LB,STUDY001-SUBJ0005,13,L00013,WBC,White Blood Cell Count,HEMATOLOGY,4.6,10^9/L,4.5,11.0,4.6,4.6,10^9/L,4.5,11.0,NORMAL,Y,BASELINE,2,2025-02-02,1
STUDY001,LB,STUDY001-SUBJ0005,14,L00014,PLT,Platelet Count,HEMATOLOGY,240.29,10^9/L,150.0,450.0,240.29,240.29,10^9/L,150.0,450.0,NORMAL,Y,BASELINE,2,2025-02-02,1
STUDY001,LB,STUDY001-SUBJ0005,15,L00015,GLUC,Glucose,CHEMISTRY,80.3,mg/dL,70.0,100.0,80.3,80.3,mg/dL,70.0,100.0,NORMAL,Y,BASELINE,2,2025-02-02,1
STUDY001,LB,STUDY001-SUBJ0005,16,L00016,BUN,Blood Urea Nitrogen,CHEMISTRY,17.81,mg/dL,7.0,20.0,17.81,17.81,mg/dL,7.0,20.0,NORMAL,Y,BASELINE,2,2025-02-02,1
STUDY001,LB,STUDY001-SUBJ0005,17,L00017,CREAT,Creatinine,CHEMISTRY,0.78,mg/dL,0.6,1.2,0.78,0.78,mg/dL,0.6,1.2,NORMAL,Y,BASELINE,2,2025-02-02,1
STUDY001,LB,STUDY001-SUBJ0005,18,L00018,BILI,Total Bilirubin,CHEMISTRY,0.88,mg/dL,0.1,1.2,0.88,0.88,mg/dL,0.1,1.2,NORMAL,Y,BASELINE,2,2025-02-02,1
STUDY001,LB,STUDY001-SUBJ0005,19,L00019,ALP,Alkaline Phosphatase,CHEMISTRY,69.29,U/L,44.0,147.0,69.29,69.29,U/L,44.0,147.0,NORMAL,Y,BASELINE,2,2025-02-02,1
STUDY001,LB,STUDY001-SUBJ0005,20,L00020,ALT,Alanine Aminotransferase,CHEMISTRY,40.83,U/L,7.0,56.0,40.83,40.83,U/L,7.0,56.0,NORMAL,Y,BASELINE,2,2025-02-02,1
STUDY001,LB,STUDY001-SUBJ0005,21,L00021,HGB,Hemoglobin,HEMATOLOGY,12.12,g/dL,13.5,17.5,12.12,12.12,g/dL,13.5,17.5,LOW,,WEEK 1,3,2025-02-08,7
STUDY001,LB,STUDY001-SUBJ0005,22,L00022,HCT,Hematocrit,HEMATOLOGY,44.49,%,41.0,51.0,44.49,44.49,%,41.0,51.0,NORMAL,,WEEK 1,3,2025-02-08,7
STUDY001,LB,STUDY001-SUBJ0005,23,L00023,WBC,White Blood Cell Count,HEMATOLOGY,4.37,10^9/L,4.5,11.0,4.37,4.37,10^9/L,4.5,11.0,LOW,,WEEK 1,3,2025-02-08,7
STUDY001,LB,STUDY001-SUBJ0005,24,L00024,PLT,Platelet Count,HEMATOLOGY,244.09,10^9/L,150.0,450.0,244.09,244.09,10^9/L,150.0,450.0,NORMAL,,WEEK 1,3,2025-02-08,7
STUDY001,LB,STUDY001-SUBJ0005,25,L00025,GLUC,Glucose,CHEMISTRY,80.81,mg/dL,70.0,100.0,80.81,80.81,mg/dL,70.0,100.0,NORMAL,,WEEK 1,3,2025-02-08,7
STUDY001,LB,STUDY001-SUBJ0005,26,L00026,BUN,Blood Urea Nitrogen,CHEMISTRY,17.65,mg/dL,7.0,20.0,17.65,17.65,mg/dL,7.0,20.0,NORMAL,,WEEK 1,3,2025-02-08,7
STUDY001,LB,STUDY001-SUBJ0005,27,L00027,CREAT,Creatinine,CHEMISTRY,0.77,mg/dL,0.6,1.2,0.77,0.77,mg/dL,0.6,1.2,NORMAL,,WEEK 1,3,2025-02-08,7
STUDY001,LB,STUDY001-SUBJ0005,28,L00028,BILI,Total Bilirubin,CHEMISTRY,0.88,mg/dL,0.1,1.2,0.88,0.88,mg/dL,0.1,1.2,NORMAL,,WEEK 1,3,2025-02-08,7
STUDY001,LB,STUDY001-SUBJ0005,29,L00029,ALP,Alkaline Phosphatase,CHEMISTRY,69.03,U/L,44.0,147.0,69.03,69.03,U/L,44.0,147.0,NORMAL,,WEEK 1,3,2025-02-08,7
STUDY001,LB,STUDY001-SUBJ0005,30,L00030,ALT,Alanine Aminotransferase,CHEMISTRY,41.0,U/L,7.0,56.0,41.0,41.0,U/L,7.0,56.0,NORMAL,,WEEK 1,3,2025-02-08,7
STUDY001,LB,STUDY001-SUBJ0005,31,L00031,HGB,Hemoglobin,HEMATOLOGY,12.09,g/dL,13.5,17.5,12.09,12.09,g/dL,13.5,17.5,LOW,,WEEK 2,4,2025-02-15,14
STUDY001,LB,STUDY001-SUBJ0005,32,L00032,HCT,Hematocrit,HEMATOLOGY,44.52,%,41.0,51.0,44.52,44.52,%,41.0,51.0,NORMAL,,WEEK 2,4,2025-02-15,14
STUDY001,LB,STUDY001-SUBJ0005,33,L00033,WBC,White Blood Cell Count,HEMATOLOGY,4.62,10^9/L,4.5,11.0,4.62,4.62,10^9/L,4.5,11.0,NORMAL,,WEEK 2,4,2025-02-15,14
STUDY001,LB,STUDY001-SUBJ0005,34,L00034,PLT,Platelet Count,HEMATOLOGY,240.24,10^9/L,150.0,450.0,240.24,240.24,10^9/L,150.0,450.0,NORMAL,,WEEK 2,4,2025-02-15,14
STUDY001,LB,STUDY001-SUBJ0005,35,L00035,GLUC,Glucose,CHEMISTRY,80.26,mg/dL,70.0,100.0,80.26,80.26,mg/dL,70.0,100.0,NORMAL,,WEEK 2,4,2025-02-15,14
STUDY001,LB,STUDY001-SUBJ0005,36,L00036,BUN,Blood Urea Nitrogen,CHEMISTRY,17.43,mg/dL,7.0,20.0,17.43,17.43,mg/dL,7.0,20.0,NORMAL,,WEEK 2,4,2025-02-15,14
STUDY001,LB,STUDY001-SUBJ0005,37,L00037,CREAT,Creatinine,CHEMISTRY,0.79,mg/dL,0.6,1.2,0.79,0.79,mg/dL,0.6,1.2,NORMAL,,WEEK 2,4,2025-02-15,14
STUDY001,LB,STUDY001-SUBJ0005,38,L00038,BILI,Total Bilirubin,CHEMISTRY,0.89,mg/dL,0.1,1.2,0.89,0.89,mg/dL,0.1,1.2,NORMAL,,WEEK 2,4,2025-02-15,14
STUDY001,LB,STUDY001-SUBJ0005,39,L00039,ALP,Alkaline Phosphatase,CHEMISTRY,67.12,U/L,44.0,147.0,67.12,67.12,U/L,44.0,147.0,NORMAL,,WEEK 2,4,2025-02-15,14
STUDY001,LB,STUDY001-SUBJ0005,40,L00040,ALT,Alanine Aminotransferase,CHEMISTRY,41.31,U/L,7.0,56.0,41.31,41.31,U/L,7.0,56.0,NORMAL,,WEEK 2,4,2025-02-15,14
STUDY001,LB,STUDY001-SUBJ0005,41,L00041,HGB,Hemoglobin,HEMATOLOGY,12.05,g/dL,13.5,17.5,12.05,12.05,g/dL,13.5,17.5,LOW,,WEEK 4,5,2025-03-01,28
STUDY001,LB,STUDY001-SUBJ0005,42,L00042,HCT,Hematocrit,HEMATOLOGY,44.56,%,41.0,51.0,44.56,44.56,%,41.0,51.0,NORMAL,,WEEK 4,5,2025-03-01,28
STUDY001,LB,STUDY001-SUBJ0005,43,L00043,WBC,White Blood Cell Count,HEMATOLOGY,4.76,10^9/L,4.5,11.0,4.76,4.76,10^9/L,4.5,11.0,NORMAL,,WEEK 4,5,2025-03-01,28
STUDY001,LB,STUDY001-SUBJ0005,44,L00044,PLT,Platelet Count,HEMATOLOGY,248.54,10^9/L,150.0,450.0,248.54,248.54,10^9/L,150.0,450.0,NORMAL,,WEEK 4,5,2025-03-01,28
STUDY001,LB,STUDY001-SUBJ0005,45,L00045,GLUC,Glucose,CHEMISTRY,83.1,mg/dL,70.0,100.0,83.1,83.1,mg/dL,70.0,100.0,NORMAL,,WEEK 4,5,2025-03-01,28
STUDY001,LB,STUDY001-SUBJ0005,46,L00046,BUN,Blood Urea Nitrogen,CHEMISTRY,17.31,mg/dL,7.0,20.0,17.31,17.31,mg/dL,7.0,20.0,NORMAL,,WEEK 4,5,2025-03-01,28
STUDY001,LB,STUDY001-SUBJ0005,47,L00047,CREAT,Creatinine,CHEMISTRY,0.79,mg/dL,0.6,1.2,0.79,0.79,mg/dL,0.6,1.2,NORMAL,,WEEK 4,5,2025-03-01,28
STUDY001,LB,STUDY001-SUBJ0005,48,L00048,BILI,Total Bilirubin,CHEMISTRY,0.86,mg/dL,0.1,1.2,0.86,0.86,mg/dL,0.1,1.2,NORMAL,,WEEK 4,5,2025-03-01,28
STUDY001,LB,STUDY001-SUBJ0005,49,L00049,ALP,Alkaline Phosphatase,CHEMISTRY,73.3,U/L,44.0,147.0,73.3,73.3,U/L,44.0,147.0,NORMAL,,WEEK 4,5,2025-03-01,28
STUDY001,LB,STUDY001-SUBJ0005,50,L00050,ALT,Alanine Aminotransferase,CHEMISTRY,43.3,U/L,7.0,56.0,43.3,43.3,U/L,7.0,56.0,NORMAL,,WEEK 4,5,2025-03-01,28
STUDY001,LB,STUDY001-SUBJ0005,51,L00051,HGB,Hemoglobin,HEMATOLOGY,12.12,g/dL,13.5,17.5,12.12,12.12,g/dL,13.5,17.5,LOW,,WEEK 8,6,2025-03-29,56
STUDY001,LB,STUDY001-SUBJ0005,52,L00052,HCT,Hematocrit,HEMATOLOGY,44.56,%,41.0,51.0,44.56,44.56,%,41.0,51.0,NORMAL,,WEEK 8,6,2025-03-29,56
STUDY001,LB,STUDY001-SUBJ0005,53,L00053,WBC,White Blood Cell Count,HEMATOLOGY,4.54,10^9/L,4.5,11.0,4.54,4.54,10^9/L,4.5,11.0,NORMAL,,WEEK 8,6,2025-03-29,56
STUDY001,LB,STUDY001-SUBJ0005,54,L00054,PLT,Platelet Count,HEMATOLOGY,239.56,10^9/L,150.0,450.0,239.56,239.56,10^9/L,150.0,450.0,NORMAL,,WEEK 8,6,2025-03-29,56
STUDY001,LB,STUDY001-SUBJ0005,55,L00055,GLUC,Glucose,CHEMISTRY,81.33,mg/dL,70.0,100.0,81.33,81.33,mg/dL,70.0,100.0,NORMAL,,WEEK 8,6,2025-03-29,56
STUDY001,LB,STUDY001-SUBJ0005,56,L00056,BUN,Blood Urea Nitrogen,CHEMISTRY,17.24,mg/dL,7.0,20.0,17.24,17.24,mg/dL,7.0,20.0,NORMAL,,WEEK 8,6,2025-03-29,56
STUDY001,LB,STUDY001-SUBJ0005,57,L00057,CREAT,Creatinine,CHEMISTRY,0.77,mg/dL,0.6,1.2,0.77,0.77,mg/dL,0.6,1.2,NORMAL,,WEEK 8,6,2025-03-29,56
STUDY001,LB,STUDY001-SUBJ0005,58,L00058,BILI,Total Bilirubin,CHEMISTRY,0.9,mg/dL,0.1,1.2,0.9,0.9,mg/dL,0.1,1.2,NORMAL,,WEEK 8,6,2025-03-29,56
STUDY001,LB,STUDY001-SUBJ0005,59,L00059,ALP,Alkaline Phosphatase,CHEMISTRY,71.21,U/L,44.0,147.0,71.21,71.21,U/L,44.0,147.0,NORMAL,,WEEK 8,6,2025-03-29,56
STUDY001,LB,STUDY001-SUBJ0005,60,L00060,ALT,Alanine Aminotransferase,CHEMISTRY,43.18,U/L,7.0,56.0,43.18,43.18,U/L,7.0,56.0,NORMAL,,WEEK 8,6,2025-03-29,56
STUDY001,LB,STUDY001-SUBJ0005,61,L00061,HGB,Hemoglobin,HEMATOLOGY,12.13,g/dL,13.5,17.5,12.13,12.13,g/dL,13.5,17.5,LOW,,WEEK 12,7,2025-04-26,84
STUDY001,LB,STUDY001-SUBJ0005,62,L00062,HCT,Hematocrit,HEMATOLOGY,44.9,%,41.0,51.0,44.9,44.9,%,41.0,51.0,NORMAL,,WEEK 12,7,2025-04-26,84
STUDY001,LB,STUDY001-SUBJ0005,63,L00063,WBC,White Blood Cell Count,HEMATOLOGY,4.55,10^9/L,4.5,11.0,4.55,4.55,10^9/L,4.5,11.0,NORMAL,,WEEK 12,7,2025-04-26,84
STUDY001,LB,STUDY001-SUBJ0005,64,L00064,PLT,Platelet Count,HEMATOLOGY,239.83,10^9/L,150.0,450.0,239.83,239.83,10^9/L,150.0,450.0,NORMAL,,WEEK 12,7,2025-04-26,84
STUDY001,LB,STUDY001-SUBJ0005,65,L00065,GLUC,Glucose,CHEMISTRY,80.75,mg/dL,70.0,100.0,80.75,80.75,mg/dL,70.0,100.0,NORMAL,,WEEK 12,7,2025-04-26,84
STUDY001,LB,STUDY001-SUBJ0005,66,L00066,BUN,Blood Urea Nitrogen,CHEMISTRY,17.28,mg/dL,7.0,20.0,17.28,17.28,mg/dL,7.0,20.0,NORMAL,,WEEK 12,7,2025-04-26,84
STUDY001,LB,STUDY001-SUBJ0005,67,L00067,CREAT,Creatinine,CHEMISTRY,0.76,mg/dL,0.6,1.2,0.76,0.76,mg/dL,0.6,1.2,NORMAL,,WEEK 12,7,2025-04-26,84
STUDY001,LB,STUDY001-SUBJ0005,68,L00068,BILI,Total Bilirubin,CHEMISTRY,0.86,mg/dL,0.1,1.2,0.86,0.86,mg/dL,0.1,1.2,NORMAL,,WEEK 12,7,2025-04-26,84
STUDY001,LB,STUDY001-SUBJ0005,69,L00069,ALP,Alkaline Phosphatase,CHEMISTRY,70.75,U/L,44.0,147.0,70.75,70.75,U/L,44.0,147.0,NORMAL,,WEEK 12,7,2025-04-26,84
STUDY001,LB,STUDY001-SUBJ0005,70,L00070,ALT,Alanine Aminotransferase,CHEMISTRY,40.7,U/L,7.0,56.0,40.7,40.7,U/L,7.0,56.0,NORMAL,,WEEK 12,7,2025-04-26,84
STUDY001,LB,STUDY001-SUBJ0005,71,L00071,HGB,Hemoglobin,HEMATOLOGY,12.22,g/dL,13.5,17.5,12.22,12.22,g/dL,13.5,17.5,LOW,,WEEK 16,8,2025-05-24,112
STUDY001,LB,STUDY001-SUBJ0005,72,L00072,HCT,Hematocrit,HEMATOLOGY,44.32,%,41.0,51.0,44.32,44.32,%,41.0,51.0,NORMAL,,WEEK 16,8,2025-05-24,112
STUDY001,LB,STUDY001-SUBJ0005,73,L00073,WBC,White Blood Cell Count,HEMATOLOGY,4.52,10^9/L,4.5,11.0,4.52,4.52,10^9/L,4.5,11.0,NORMAL,,WEEK 16,8,2025-05-24,112
STUDY001,LB,STUDY001-SUBJ0005,74,L00074,PLT,Platelet Count,HEMATOLOGY,240.92,10^9/L,150.0,450.0,240.92,240.92,10^9/L,150.0,450.0,NORMAL,,WEEK 16,8,2025-05-24,112
STUDY001,LB,STUDY001-SUBJ0005,75,L00075,GLUC,Glucose,CHEMISTRY,80.37,mg/dL,70.0,100.0,80.37,80.37,mg/dL,70.0,100.0,NORMAL,,WEEK 16,8,2025-05-24,112
STUDY001,LB,STUDY001-SUBJ0005,76,L00076,BUN,Blood Urea Nitrogen,CHEMISTRY,17.09,mg/dL,7.0,20.0,17.09,17.09,mg/dL,7.0,20.0,NORMAL,,WEEK 16,8,2025-05-24,112
STUDY001,LB,STUDY001-SUBJ0005,77,L00077,CREAT,Creatinine,CHEMISTRY,0.77,mg/dL,0.6,1.2,0.77,0.77,mg/dL,0.6,1.2,NORMAL,,WEEK 16,8,2025-05-24,112
STUDY001,LB,STUDY001-SUBJ0005,78,L00078,BILI,Total Bilirubin,CHEMISTRY,0.9,mg/dL,0.1,1.2,0.9,0.9,mg/dL,0.1,1.2,NORMAL,,WEEK 16,8,2025-05-24,112
STUDY001,LB,STUDY001-SUBJ0005,79,L00079,ALP,Alkaline Phosphatase,CHEMISTRY,68.94,U/L,44.0,147.0,68.94,68.94,U/L,44.0,147.0,NORMAL,,WEEK 16,8,2025-05-24,112
STUDY001,LB,STUDY001-SUBJ0005,80,L00080,ALT,Alanine Aminotransferase,CHEMISTRY,43.52,U/L,7.0,56.0,43.52,43.52,U/L,7.0,56.0,NORMAL,,WEEK 16,8,2025-05-24,112
STUDY001,LB,STUDY001-SUBJ0005,81,L00081,HGB,Hemoglobin,HEMATOLOGY,12.09,g/dL,13.5,17.5,12.09,12.09,g/dL,13.5,17.5,LOW,,END OF TREATMENT,9,2025-06-21,140
STUDY001,LB,STUDY001-SUBJ0005,82,L00082,HCT,Hematocrit,HEMATOLOGY,44.41,%,41.0,51.0,44.41,44.41,%,41.0,51.0,NORMAL,,END OF TREATMENT,9,2025-06-21,140
STUDY001,LB,STUDY001-SUBJ0005,83,L00083,WBC,White Blood Cell Count,HEMATOLOGY,4.77,10^9/L,4.5,11.0,4.77,4.77,10^9/L,4.5,11.0,NORMAL,,END OF TREATMENT,9,2025-06-21,140
STUDY001,LB,STUDY001-SUBJ0005,84,L00084,PLT,Platelet Count,HEMATOLOGY,256.12,10^9/L,150.0,450.0,256.12,256.12,10^9/L,150.0,450.0,NORMAL,,END OF TREATMENT,9,2025-06-21,140
STUDY001,LB,STUDY001-SUBJ0005,85,L00085,GLUC,Glucose,CHEMISTRY,79.57,mg/dL,70.0,100.0,79.57,79.57,mg/dL,70.0,100.0,NORMAL,,END OF TREATMENT,9,2025-06-21,140
STUDY001,LB,STUDY001-SUBJ0005,86,L00086,BUN,Blood Urea Nitrogen,CHEMISTRY,17.34,mg/dL,7.0,20.0,17.34,17.34,mg/dL,7.0,20.0,NORMAL,,END OF TREATMENT,9,2025-06-21,140
STUDY001,LB,STUDY001-SUBJ0005,87,L00087,CREAT,Creatinine,CHEMISTRY,0.76,mg/dL,0.6,1.2,0.76,0.76,mg/dL,0.6,1.2,NORMAL,,END OF TREATMENT,9,2025-06-21,140
STUDY001,LB,STUDY001-SUBJ0005,88,L00088,BILI,Total Bilirubin,CHEMISTRY,0.88,mg/dL,0.1,1.2,0.88,0.88,mg/dL,0.1,1.2,NORMAL,,END OF TREATMENT,9,2025-06-21,140
STUDY001,LB,STUDY001-SUBJ0005,89,L00089,ALP,Alkaline Phosphatase,CHEMISTRY,68.19,U/L,44.0,147.0,68.19,68.19,U/L,44.0,147.0,NORMAL,,END OF TREATMENT,9,2025-06-21,140
STUDY001,LB,STUDY001-SUBJ0005,90,L00090,ALT,Alanine Aminotransferase,CHEMISTRY,41.83,U/L,7.0,56.0,41.83,41.83,U/L,7.0,56.0,NORMAL,,END OF TREATMENT,9,2025-06-21,140
STUDY001,LB,STUDY001-SUBJ0006,1,L00001,HGB,Hemoglobin,HEMATOLOGY,16.66,g/dL,13.5,17.5,16.66,16.66,g/dL,13.5,17.5,NORMAL,,SCREENING,1,2024-09-17,-14
STUDY001,LB,STUDY001-SUBJ0006,2,L00002,HCT,Hematocrit,HEMATOLOGY,42.0,%,41.0,51.0,42.0,42.0,%,41.0,51.0,NORMAL,,SCREENING,1,2024-09-17,-14
STUDY001,LB,STUDY001-SUBJ0006,3,L00003,WBC,White Blood Cell Count,HEMATOLOGY,6.27,10^9/L,4.5,11.0,6.27,6.27,10^9/L,4.5,11.0,NORMAL,,SCREENING,1,2024-09-17,-14
STUDY001,LB,STUDY001-SUBJ0006,4,L00004,PLT,Platelet Count,HEMATOLOGY,311.97,10^9/L,150.0,450.0,311.97,311.97,10^9/L,150.0,450.0,NORMAL,,SCREENING,1,2024-09-17,-14
STUDY001,LB,STUDY001-SUBJ0006,5,L00005,GLUC,Glucose,CHEMISTRY,84.67,mg/dL,70.0,100.0,84.67,84.67,mg/dL,70.0,100.0,NORMAL,,SCREENING,1,2024-09-17,-14
STUDY001,LB,STUDY001-SUBJ0006,6,L00006,BUN,Blood Urea Nitrogen,CHEMISTRY,19.96,mg/dL,7.0,20.0,19.96,19.96,mg/dL,7.0,20.0,NORMAL,,SCREENING,1,2024-09-17,-14
STUDY001,LB,STUDY001-SUBJ0006,7,L00007,CREAT,Creatinine,CHEMISTRY,0.95,mg/dL,0.6,1.2,0.95,0.95,mg/dL,0.6,1.2,NORMAL,,SCREENING,1,2024-09-17,-14
STUDY001,LB,STUDY001-SUBJ0006,8,L00008,BILI,Total Bilirubin,CHEMISTRY,0.89,mg/dL,0.1,1.2,0.89,0.89,mg/dL,0.1,1.2,NORMAL,,SCREENING,1,2024-09-17,-14
STUDY001,LB,STUDY001-SUBJ0006,9,L00009,ALP,Alkaline Phosphatase,CHEMISTRY,75.3,U/L,44.0,147.0,75.3,75.3,U/L,44.0,147.0,NORMAL,,SCREENING,1,2024-09-17,-14
STUDY001,LB,STUDY001-SUBJ0006,10,L00010,ALT,Alanine Aminotransferase,CHEMISTRY,42.75,U/L,7.0,56.0,42.75,42.75,U/L,7.0,56.0,NORMAL,,SCREENING,1,2024-09-17,-14
STUDY001,LB,STUDY001-SUBJ0006,11,L00011,HGB,Hemoglobin,HEMATOLOGY,16.56,g/dL,13.5,17.5,16.56,16.56,g/dL,13.5,17.5,NORMAL,Y,BASELINE,2,2024-10-01,1
STUDY001,LB,STUDY001-SUBJ0006,12,L00012,HCT,Hematocrit,HEMATOLOGY,41.67,%,41.0,51.0,41.67,41.67,%,41.0,51.0,NORMAL,Y,BASELINE,2,2024-10-01,1
STUDY001,LB,STUDY001-SUBJ0006,13,L00013,WBC,White Blood Cell Count,HEMATOLOGY,6.49,10^9/L,4.5,11.0,6.49,6.49,10^9/L,4.5,11.0,NORMAL,Y,BASELINE,2,2024-10-01,1
STUDY001,LB,STUDY001-SUBJ0006,14,L00014,PLT,Platelet Count,HEMATOLOGY,317.05,10^9/L,150.0,450.0,317.05,317.05,10^9/L,150.0,450.0,NORMAL,Y,BASELINE,2,2024-10-01,1
STUDY001,LB,STUDY001-SUBJ0006,15,L00015,GLUC,Glucose,CHEMISTRY,85.88,mg/dL,70.0,100.0,85.88,85.88,mg/dL,70.0,100.0,NORMAL,Y,BASELINE,2,2024-10-01,1
STUDY001,LB,STUDY001-SUBJ0006,16,L00016,BUN,Blood Urea Nitrogen,CHEMISTRY,20.37,mg/dL,7.0,20.0,20.37,20.37,mg/dL,7.0,20.0,HIGH,Y,BASELINE,2,2024-10-01,1
STUDY001,LB,STUDY001-SUBJ0006,17,L00017,CREAT,Creatinine,CHEMISTRY,0.95,mg/dL,0.6,1.2,0.95,0.95,mg/dL,0.6,1.2,NORMAL,Y,BASELINE,2,2024-10-01,1
STUDY001,LB,STUDY001-SUBJ0006,18,L00018,BILI,Total Bilirubin,CHEMISTRY,0.89,mg/dL,0.1,1.2,0.89,0.89,mg/dL,0.1,1.2,NORMAL,Y,BASELINE,2,2024-10-01,1
STUDY001,LB,STUDY001-SUBJ0006,19,L00019,ALP,Alkaline Phosphatase,CHEMISTRY,75.0,U/L,44.0,147.0,75.0,75.0,U/L,44.0,147.0,NORMAL,Y,BASELINE,2,2024-10-01,1
STUDY001,LB,STUDY001-SUBJ0006,20,L00020,ALT,Alanine Aminotransferase,CHEMISTRY,43.04,U/L,7.0,56.0,43.04,43.04,U/L,7.0,56.0,NORMAL,Y,BASELINE,2,2024-10-01,1
STUDY001,LB,STUDY001-SUBJ0006,21,L00021,HGB,Hemoglobin,HEMATOLOGY,16.62,g/dL,13.5,17.5,16.62,16.62,g/dL,13.5,17.5,NORMAL,,WEEK 1,3,2024-10-07,7
STUDY001,LB,STUDY001-SUBJ0006,22,L00022,HCT,Hematocrit,HEMATOLOGY,42.28,%,41.0,51.0,42.28,42.28,%,41.0,51.0,NORMAL,,WEEK 1,3,2024-10-07,7
STUDY001,LB,STUDY001-SUBJ0006,23,L00023,WBC,White Blood Cell Count,HEMATOLOGY,6.28,10^9/L,4.5,11.0,6.28,6.28,10^9/L,4.5,11.0,NORMAL,,WEEK 1,3,2024-10-07,7
STUDY001,LB,STUDY001-SUBJ0006,24,L00024,PLT,Platelet Count,HEMATOLOGY,310.94,10^9/L,150.0,450.0,310.94,310.94,10^9/L,150.0,450.0,NORMAL,,WEEK 1,3,2024-10-07,7
STUDY001,LB,STUDY001-SUBJ0006,25,L00025,GLUC,Glucose,CHEMISTRY,84.15,mg/dL,70.0,100.0,84.15,84.15,mg/dL,70.0,100.0,NORMAL,,WEEK 1,3,2024-10-07,7
STUDY001,LB,STUDY001-SUBJ0006,26,L00026,BUN,Blood Urea Nitrogen,CHEMISTRY,20.42,mg/dL,7.0,20.0,20.42,20.42,mg/dL,7.0,20.0,HIGH,,WEEK 1,3,2024-10-07,7
STUDY001,LB,STUDY001-SUBJ0006,27,L00027,CREAT,Creatinine,CHEMISTRY,0.93,mg/dL,0.6,1.2,0.93,0.93,mg/dL,0.6,1.2,NORMAL,,WEEK 1,3,2024-10-07,7
STUDY001,LB,STUDY001-SUBJ0006,28,L00028,BILI,Total Bilirubin,CHEMISTRY,0.85,mg/dL,0.1,1.2,0.85,0.85,mg/dL,0.1,1.2,NORMAL,,WEEK 1,3,2024-10-07,7
STUDY001,LB,STUDY001-SUBJ0006,29,L00029,ALP,Alkaline Phosphatase,CHEMISTRY,72.21,U/L,44.0,147.0,72.21,72.21,U/L,44.0,147.0,NORMAL,,WEEK 1,3,2024-10-07,7
STUDY001,LB,STUDY001-SUBJ0006,30,L00030,ALT,Alanine Aminotransferase,CHEMISTRY,40.98,U/L,7.0,56.0,40.98,40.98,U/L,7.0,56.0,NORMAL,,WEEK 1,3,2024-10-07,7
STUDY001,LB,STUDY001-SUBJ0006,31,L00031,HGB,Hemoglobin,HEMATOLOGY,16.58,g/dL,13.5,17.5,16.58,16.58,g/dL,13.5,17.5,NORMAL,,WEEK 2,4,2024-10-14,14
STUDY001,LB,STUDY001-SUBJ0006,32,L00032,HCT,Hematocrit,HEMATOLOGY,42.37,%,41.0,51.0,42.37,42.37,%,41.0,51.0,NORMAL,,WEEK 2,4,2024-10-14,14
STUDY001,LB,STUDY001-SUBJ0006,33,L00033,WBC,White Blood Cell Count,HEMATOLOGY,6.37,10^9/L,4.5,11.0,6.37,6.37,10^9/L,4.5,11.0,NORMAL,,WEEK 2,4,2024-10-14,14
STUDY001,LB,STUDY001-SUBJ0006,34,L00034,PLT,Platelet Count,HEMATOLOGY,309.25,10^9/L,150.0,450.0,309.25,309.25,10^9/L,150.0,450.0,NORMAL,,WEEK 2,4,2024-10-14,14
STUDY001,LB,STUDY001-SUBJ0006,35,L00035,GLUC,Glucose,CHEMISTRY,85.04,mg/dL,70.0,100.0,85.04,85.04,mg/dL,70.0,100.0,NORMAL,,WEEK 2,4,2024-10-14,14
STUDY001,LB,STUDY001-SUBJ0006,36,L00036,BUN,Blood Urea Nitrogen,CHEMISTRY,20.04,mg/dL,7.0,20.0,20.04,20.04,mg/dL,7.0,20.0,HIGH,,WEEK 2,4,2024-10-14,14
STUDY001,LB,STUDY001-SUBJ0006,37,L00037,CREAT,Creatinine,CHEMISTRY,0.92,mg/dL,0.6,1.2,0.92,0.92,mg/dL,0.6,1.2,NORMAL,,WEEK 2,4,2024-10-14,14
STUDY001,LB,STUDY001-SUBJ0006,38,L00038,BILI,Total Bilirubin,CHEMISTRY,0.86,mg/dL,0.1,1.2,0.86,0.86,mg/dL,0.1,1.2,NORMAL,,WEEK 2,4,2024-10-14,14
STUDY001,LB,STUDY001-SUBJ0006,39,L00039,ALP,Alkaline Phosphatase,CHEMISTRY,74.14,U/L,44.0,147.0,74.14,74.14,U/L,44.0,147.0,NORMAL,,WEEK 2,4,2024-10-14,14
STUDY001,LB,STUDY001-SUBJ0006,40,L00040,ALT,Alanine Aminotransferase,CHEMISTRY,43.77,U/L,7.0,56.0,43.77,43.77,U/L,7.0,56.0,NORMAL,,WEEK 2,4,2024-10-14,14
STUDY001,LB,STUDY001-SUBJ0006,41,L00041,HGB,Hemoglobin,HEMATOLOGY,16.58,g/dL,13.5,17.5,16.58,16.58,g/dL,13.5,17.5,NORMAL,,WEEK 4,5,2024-10-28,28
STUDY001,LB,STUDY001-SUBJ0006,42,L00042,HCT,Hematocrit,HEMATOLOGY,41.99,%,41.0,51.0,41.99,41.99,%,41.0,51.0,NORMAL,,WEEK 4,5,2024-10-28,28
STUDY001,LB,STUDY001-SUBJ0006,43,L00043,WBC,White Blood Cell Count,HEMATOLOGY,6.43,10^9/L,4.5,11.0,6.43,6.43,10^9/L,4.5,11.0,NORMAL,,WEEK 4,5,2024-10-28,28
STUDY001,LB,STUDY001-SUBJ0006,44,L00044,PLT,Platelet Count,HEMATOLOGY,309.68,10^9/L,150.0,450.0,309.68,309.68,10^9/L,150.0,450.0,NORMAL,,WEEK 4,5,2024-10-28,28
STUDY001,LB,STUDY001-SUBJ0006,45,L00045,GLUC,Glucose,CHEMISTRY,84.12,mg/dL,70.0,100.0,84.12,84.12,mg/dL,70.0,100.0,NORMAL,,WEEK 4,5,2024-10-28,28
STUDY001,LB,STUDY001-SUBJ0006,46,L00046,BUN,Blood Urea Nitrogen,CHEMISTRY,20.54,mg/dL,7.0,20.0,20.54,20.54,mg/dL,7.0,20.0,HIGH,,WEEK 4,5,2024-10-28,28
STUDY001,LB,STUDY001-SUBJ0006,47,L00047,CREAT,Creatinine,CHEMISTRY,0.93,mg/dL,0.6,1.2,0.93,0.93,mg/dL,0.6,1.2,NORMAL,,WEEK 4,5,2024-10-28,28
STUDY001,LB,STUDY001-SUBJ0006,48,L00048,BILI,Total Bilirubin,CHEMISTRY,0.87,mg/dL,0.1,1.2,0.87,0.87,mg/dL,0.1,1.2,NORMAL,,WEEK 4,5,2024-10-28,28
STUDY001,LB,STUDY001-SUBJ0006,49,L00049,ALP,Alkaline Phosphatase,CHEMISTRY,73.16,U/L,44.0,147.0,73.16,73.16,U/L,44.0,147.0,NORMAL,,WEEK 4,5,2024-10-28,28
STUDY001,LB,STUDY001-SUBJ0006,50,L00050,ALT,Alanine Aminotransferase,CHEMISTRY,42.39,U/L,7.0,56.0,42.39,42.39,U/L,7.0,56.0,NORMAL,,WEEK 4,5,2024-10-28,28
STUDY001,LB,STUDY001-SUBJ0006,51,L00051,HGB,Hemoglobin,HEMATOLOGY,16.36,g/dL,13.5,17.5,16.36,16.36,g/dL,13.5,17.5,NORMAL,,WEEK 8,6,2024-11-25,56
STUDY001,LB,STUDY001-SUBJ0006,52,L00052,HCT,Hematocrit,HEMATOLOGY,42.91,%,41.0,51.0,42.91,42.91,%,41.0,51.0,NORMAL,,WEEK 8,6,2024-11-25,56
STUDY001,LB,STUDY001-SUBJ0006,53,L00053,WBC,White Blood Cell Count,HEMATOLOGY,6.16,10^9/L,4.5,11.0,6.16,6.16,10^9/L,4.5,11.0,NORMAL,,WEEK 8,6,2024-11-25,56
STUDY001,LB,STUDY001-SUBJ0006,54,L00054,PLT,Platelet Count,HEMATOLOGY,313.64,10^9/L,150.0,450.0,313.64,313.64,10^9/L,150.0,450.0,NORMAL,,WEEK 8,6,2024-11-25,56
STUDY001,LB,STUDY001-SUBJ0006,55,L00055,GLUC,Glucose,CHEMISTRY,85.09,mg/dL,70.0,100.0,85.09,85.09,mg/dL,70.0,100.0,NORMAL,,WEEK 8,6,2024-11-25,56
STUDY001,LB,STUDY001-SUBJ0006,56,L00056,BUN,Blood Urea Nitrogen,CHEMISTRY,19.79,mg/dL,7.0,20.0,19.79,19.79,mg/dL,7.0,20.0,NORMAL,,WEEK 8,6,2024-11-25,56
STUDY001,LB,STUDY001-SUBJ0006,57,L00057,CREAT,Creatinine,CHEMISTRY,0.92,mg/dL,0.6,1.2,0.92,0.92,mg/dL,0.6,1.2,NORMAL,,WEEK 8,6,2024-11-25,56
STUDY001,LB,STUDY001-SUBJ0006,58,L00058,BILI,Total Bilirubin,CHEMISTRY,0.86,mg/dL,0.1,1.2,0.86,0.86,mg/dL,0.1,1.2,NORMAL,,WEEK 8,6,2024-11-25,56
STUDY001,LB,STUDY001-SUBJ0006,59,L00059,ALP,Alkaline Phosphatase,CHEMISTRY,75.03,U/L,44.0,147.0,75.03,75.03,U/L,44.0,147.0,NORMAL,,WEEK 8,6,2024-11-25,56
STUDY001,LB,STUDY001-SUBJ0006,60,L00060,ALT,Alanine Aminotransferase,CHEMISTRY,42.92,U/L,7.0,56.0,42.92,42.92,U/L,7.0,56.0,NORMAL,,WEEK 8,6,2024-11-25,56
STUDY001,LB,STUDY001-SUBJ0006,61,L00061,HGB,Hemoglobin,HEMATOLOGY,16.5,g/dL,13.5,17.5,16.5,16.5,g/dL,13.5,17.5,NORMAL,,WEEK 12,7,2024-12-23,84
STUDY001,LB,STUDY001-SUBJ0006,62,L00062,HCT,Hematocrit,HEMATOLOGY,42.78,%,41.0,51.0,42.78,42.78,%,41.0,51.0,NORMAL,,WEEK 12,7,2024-12-23,84
STUDY001,LB,STUDY001-SUBJ0006,63,L00063,WBC,White Blood Cell Count,HEMATOLOGY,6.35,10^9/L,4.5,11.0,6.35,6.35,10^9/L,4.5,11.0,NORMAL,,WEEK 12,7,2024-12-23,84
STUDY001,LB,STUDY001-SUBJ0006,64,L00064,PLT,Platelet Count,HEMATOLOGY,311.38,10^9/L,150.0,450.0,311.38,311.38,10^9/L,150.0,450.0,NORMAL,,WEEK 12,7,2024-12-23,84
STUDY001,LB,STUDY001-SUBJ0006,65,L00065,GLUC,Glucose,CHEMISTRY,84.34,mg/dL,70.0,100.0,84.34,84.34,mg/dL,70.0,100.0,NORMAL,,WEEK 12,7,2024-12-23,84
STUDY001,LB,STUDY001-SUBJ0006,66,L00066,BUN,Blood Urea Nitrogen,CHEMISTRY,20.04,mg/dL,7.0,20.0,20.04,20.04,mg/dL,7.0,20.0,HIGH,,WEEK 12,7,2024-12-23,84
STUDY001,LB,STUDY001-SUBJ0006,67,L00067,CREAT,Creatinine,CHEMISTRY,0.94,mg/dL,0.6,1.2,0.94,0.94,mg/dL,0.6,1.2,NORMAL,,WEEK 12,7,2024-12-23,84
STUDY001,LB,STUDY001-SUBJ0006,68,L00068,BILI,Total Bilirubin,CHEMISTRY,0.88,mg/dL,0.1,1.2,0.88,0.88,mg/dL,0.1,1.2,NORMAL,,WEEK 12,7,2024-12-23,84
STUDY001,LB,STUDY001-SUBJ0006,69,L00069,ALP,Alkaline Phosphatase,CHEMISTRY,72.92,U/L,44.0,147.0,72.92,72.92,U/L,44.0,147.0,NORMAL,,WEEK 12,7,2024-12-23,84
STUDY001,LB,STUDY001-SUBJ0006,70,L00070,ALT,Alanine Aminotransferase,CHEMISTRY,44.81,U/L,7.0,56.0,44.81,44.81,U/L,7.0,56.0,NORMAL,,WEEK 12,7,2024-12-23,84
STUDY001,LB,STUDY001-SUBJ0006,71,L00071,HGB,Hemoglobin,HEMATOLOGY,16.56,g/dL,13.5,17.5,16.56,16.56,g/dL,13.5,17.5,NORMAL,,WEEK 16,8,2025-01-20,112
STUDY001,LB,STUDY001-SUBJ0006,72,L00072,HCT,Hematocrit,HEMATOLOGY,42.32,%,41.0,51.0,42.32,42.32,%,41.0,51.0,NORMAL,,WEEK 16,8,2025-01-20,112
STUDY001,LB,STUDY001-SUBJ0006,73,L00073,WBC,White Blood Cell Count,HEMATOLOGY,6.42,10^9/L,4.5,11.0,6.42,6.42,10^9/L,4.5,11.0,NORMAL,,WEEK 16,8,2025-01-20,112
STUDY001,LB,STUDY001-SUBJ0006,74,L00074,PLT,Platelet Count,HEMATOLOGY,310.46,10^9/L,150.0,450.0,310.46,310.46,10^9/L,150.0,450.0,NORMAL,,WEEK 16,8,2025-01-20,112
STUDY001,LB,STUDY001-SUBJ0006,75,L00075,GLUC,Glucose,CHEMISTRY,83.82,mg/dL,70.0,100.0,83.82,83.82,mg/dL,70.0,100.0,NORMAL,,WEEK 16,8,2025-01-20,112
STUDY001,LB,STUDY001-SUBJ0006,76,L00076,BUN,Blood Urea Nitrogen,CHEMISTRY,19.97,mg/dL,7.0,20.0,19.97,19.97,mg/dL,7.0,20.0,NORMAL,,WEEK 16,8,2025-01-20,112
STUDY001,LB,STUDY001-SUBJ0006,77,L00077,CREAT,Creatinine,CHEMISTRY,0.95,mg/dL,0.6,1.2,0.95,0.95,mg/dL,0.6,1.2,NORMAL,,WEEK 16,8,2025-01-20,112
STUDY001,LB,STUDY001-SUBJ0006,78,L00078,BILI,Total Bilirubin,CHEMISTRY,0.89,mg/dL,0.1,1.2,0.89,0.89,mg/dL,0.1,1.2,NORMAL,,WEEK 16,8,2025-01-20,112
STUDY001,LB,STUDY001-SUBJ0006,79,L00079,ALP,Alkaline Phosphatase,CHEMISTRY,72.07,U/L,44.0,147.0,72.07,72.07,U/L,44.0,147.0,NORMAL,,WEEK 16,8,2025-01-20,112
STUDY001,LB,STUDY001-SUBJ0006,80,L00080,ALT,Alanine Aminotransferase,CHEMISTRY,43.64,U/L,7.0,56.0,43.64,43.64,U/L,7.0,56.0,NORMAL,,WEEK 16,8,2025-01-20,112
STUDY001,LB,STUDY001-SUBJ0006,81,L00081,HGB,Hemoglobin,HEMATOLOGY,16.67,g/dL,13.5,17.5,16.67,16.67,g/dL,13.5,17.5,NORMAL,,END OF TREATMENT,9,2025-02-17,140
STUDY001,LB,STUDY001-SUBJ0006,82,L00082,HCT,Hematocrit,HEMATOLOGY,42.6,%,41.0,51.0,42.6,42.6,%,41.0,51.0,NORMAL,,END OF TREATMENT,9,2025-02-17,140
STUDY001,LB,STUDY001-SUBJ0006,83,L00083,WBC,White Blood Cell Count,HEMATOLOGY,6.53,10^9/L,4.5,11.0,6.53,6.53,10^9/L,4.5,11.0,NORMAL,,END OF TREATMENT,9,2025-02-17,140
STUDY001,LB,STUDY001-SUBJ0006,84,L00084,PLT,Platelet Count,HEMATOLOGY,306.41,10^9/L,150.0,450.0,306.41,306.41,10^9/L,150.0,450.0,NORMAL,,END OF TREATMENT,9,2025-02-17,140
STUDY001,LB,STUDY001-SUBJ0006,85,L00085,GLUC,Glucose,CHEMISTRY,85.24,mg/dL,70.0,100.0,85.24,85.24,mg/dL,70.0,100.0,NORMAL,,END OF TREATMENT,9,2025-02-17,140
STUDY001,LB,STUDY001-SUBJ0006,86,L00086,BUN,Blood Urea Nitrogen,CHEMISTRY,20.16,mg/dL,7.0,20.0,20.16,20.16,mg/dL,7.0,20.0,HIGH,,END OF TREATMENT,9,2025-02-17,140
STUDY001,LB,STUDY001-SUBJ0006,87,L00087,CREAT,Creatinine,CHEMISTRY,0.92,mg/dL,0.6,1.2,0.92,0.92,mg/dL,0.6,1.2,NORMAL,,END OF TREATMENT,9,2025-02-17,140
STUDY001,LB,STUDY001-SUBJ0006,88,L00088,BILI,Total Bilirubin,CHEMISTRY,0.87,mg/dL,0.1,1.2,0.87,0.87,mg/dL,0.1,1.2,NORMAL,,END OF TREATMENT,9,2025-02-17,140
STUDY001,LB,STUDY001-SUBJ0006,89,L00089,ALP,Alkaline Phosphatase,CHEMISTRY,76.23,U/L,44.0,147.0,76.23,76.23,U/L,44.0,147.0,NORMAL,,END OF TREATMENT,9,2025-02-17,140
STUDY001,LB,STUDY001-SUBJ0006,90,L00090,ALT,Alanine Aminotransferase,CHEMISTRY,42.37,U/L,7.0,56.0,42.37,42.37,U/L,7.0,56.0,NORMAL,,END OF TREATMENT,9,2025-02-17,140
STUDY001,LB,STUDY001-SUBJ0007,1,L00001,HGB,Hemoglobin,HEMATOLOGY,14.95,g/dL,13.5,17.5,14.95,14.95,g/dL,13.5,17.5,NORMAL,,SCREENING,1,2025-05-17,-14
STUDY001,LB,STUDY001-SUBJ0007,2,L00002,HCT,Hematocrit,HEMATOLOGY,47.56,%,41.0,51.0,47.56,47.56,%,41.0,51.0,NORMAL,,SCREENING,1,2025-05-17,-14
STUDY001,LB,STUDY001-SUBJ0007,3,L00003,WBC,White Blood Cell Count,HEMATOLOGY,7.66,10^9/L,4.5,11.0,7.66,7.66,10^9/L,4.5,11.0,NORMAL,,SCREENING,1,2025-05-17,-14
STUDY001,LB,STUDY001-SUBJ0007,4,L00004,PLT,Platelet Count,HEMATOLOGY,232.93,10^9/L,150.0,450.0,232.93,232.93,10^9/L,150.0,450.0,NORMAL,,SCREENING,1,2025-05-17,-14
STUDY001,LB,STUDY001-SUBJ0007,5,L00005,GLUC,Glucose,CHEMISTRY,92.72,mg/dL,70.0,100.0,92.72,92.72,mg/dL,70.0,100.0,NORMAL,,SCREENING,1,2025-05-17,-14
STUDY001,LB,STUDY001-SUBJ0007,6,L00006,BUN,Blood Urea Nitrogen,CHEMISTRY,15.72,mg/dL,7.0,20.0,15.72,15.72,mg/dL,7.0,20.0,NORMAL,,SCREENING,1,2025-05-17,-14
STUDY001,LB,STUDY001-SUBJ0007,7,L00007,CREAT,Creatinine,CHEMISTRY,0.91,mg/dL,0.6,1.2,0.91,0.91,mg/dL,0.6,1.2,NORMAL,,SCREENING,1,2025-05-17,-14
STUDY001,LB,STUDY001-SUBJ0007,8,L00008,BILI,Total Bilirubin,CHEMISTRY,0.83,mg/dL,0.1,1.2,0.83,0.83,mg/dL,0.1,1.2,NORMAL,,SCREENING,1,2025-05-17,-14
STUDY001,LB,STUDY001-SUBJ0007,9,L00009,ALP,Alkaline Phosphatase,CHEMISTRY,70.71,U/L,44.0,147.0,70.71,70.71,U/L,44.0,147.0,NORMAL,,SCREENING,1,2025-05-17,-14
STUDY001,LB,STUDY001-SUBJ0007,10,L00010,ALT,Alanine Aminotransferase,CHEMISTRY,29.27,U/L,7.0,56.0,29.27,29.27,U/L,7.0,56.0,NORMAL,,SCREENING,1,2025-05-17,-14
STUDY001,LB,STUDY001-SUBJ0007,11,L00011,HGB,Hemoglobin,HEMATOLOGY,14.98,g/dL,13.5,17.5,14.98,14.98,g/dL,13.5,17.5,NORMAL,Y,BASELINE,2,2025-05-31,1
STUDY001,LB,STUDY001-SUBJ0007,12,L00012,HCT,Hematocrit,HEMATOLOGY,48.04,%,41.0,51.0,48.04,48.04,%,41.0,51.0,NORMAL,Y,BASELINE,2,2025-05-31,1
STUDY001,LB,STUDY001-SUBJ0007,13,L00013,WBC,White Blood Cell Count,HEMATOLOGY,7.68,10^9/L,4.5,11.0,7.68,7.68,10^9/L,4.5,11.0,NORMAL,Y,BASELINE,2,2025-05-31,1
STUDY001,LB,STUDY001-SUBJ0007,14,L00014,PLT,Platelet Count,HEMATOLOGY,240.86,10^9/L,150.0,450.0,240.86,240.86,10^9/L,150.0,450.0,NORMAL,Y,BASELINE,2,2025-05-31,1
STUDY001,LB,STUDY001-SUBJ0007,15,L00015,GLUC,Glucose,CHEMISTRY,94.4,mg/dL,70.0,100.0,94.4,94.4,mg/dL,70.0,100.0,NORMAL,Y,BASELINE,2,2025-05-31,1
STUDY001,LB,STUDY001-SUBJ0007,16,L00016,BUN,Blood Urea Nitrogen,CHEMISTRY,16.14,mg/dL,7.0,20.0,16.14,16.14,mg/dL,7.0,20.0,NORMAL,Y,BASELINE,2,2025-05-31,1
STUDY001,LB,STUDY001-SUBJ0007,17,L00017,CREAT,Creatinine,CHEMISTRY,0.85,mg/dL,0.6,1.2,0.85,0.85,mg/dL,0.6,1.2,NORMAL,Y,BASELINE,2,2025-05-31,1
STUDY001,LB,STUDY001-SUBJ0007,18,L00018,BILI,Total Bilirubin,CHEMISTRY,0.86,mg/dL,0.1,1.2,0.86,0.86,mg/dL,0.1,1.2,NORMAL,Y,BASELINE,2,2025-05-31,1
STUDY001,LB,STUDY001-SUBJ0007,19,L00019,ALP,Alkaline Phosphatase,CHEMISTRY,69.66,U/L,44.0,147.0,69.66,69.66,U/L,44.0,147.0,NORMAL,Y,BASELINE,2,2025-05-31,1
STUDY001,LB,STUDY001-SUBJ0007,20,L00020,ALT,Alanine Aminotransferase,CHEMISTRY,29.77,U/L,7.0,56.0,29.77,29.77,U/L,7.0,56.0,NORMAL,Y,BASELINE,2,2025-05-31,1
STUDY001,LB,STUDY001-SUBJ0007,21,L00021,HGB,Hemoglobin,HEMATOLOGY,14.96,g/dL,13.5,17.5,14.96,14.96,g/dL,13.5,17.5,NORMAL,,WEEK 1,3,2025-06-06,7
STUDY001,LB,STUDY001-SUBJ0007,22,L00022,HCT,Hematocrit,HEMATOLOGY,47.59,%,41.0,51.0,47.59,47.59,%,41.0,51.0,NORMAL,,WEEK 1,3,2025-06-06,7
STUDY001,LB,STUDY001-SUBJ0007,23,L00023,WBC,White Blood Cell Count,HEMATOLOGY,7.75,10^9/L,4.5,11.0,7.75,7.75,10^9/L,4.5,11.0,NORMAL,,WEEK 1,3,2025-06-06,7
STUDY001,LB,STUDY001-SUBJ0007,24,L00024,PLT,Platelet Count,HEMATOLOGY,241.73,10^9/L,150.0,450.0,241.73,241.73,10^9/L,150.0,450.0,NORMAL,,WEEK 1,3,2025-06-06,7
STUDY001,LB,STUDY001-SUBJ0007,25,L00025,GLUC,Glucose,CHEMISTRY,92.61,mg/dL,70.0,100.0,92.61,92.61,mg/dL,70.0,100.0,NORMAL,,WEEK 1,3,2025-06-06,7
STUDY001,LB,STUDY001-SUBJ0007,26,L00026,BUN,Blood Urea Nitrogen,CHEMISTRY,15.95,mg/dL,7.0,20.0,15.95,15.95,mg/dL,7.0,20.0,NORMAL,,WEEK 1,3,2025-06-06,7
STUDY001,LB,STUDY001-SUBJ0007,27,L00027,CREAT,Creatinine,CHEMISTRY,0.9,mg/dL,0.6,1.2,0.9,0.9,mg/dL,0.6,1.2,NORMAL,,WEEK 1,3,2025-06-06,7
STUDY001,LB,STUDY001-SUBJ0007,28,L00028,BILI,Total Bilirubin,CHEMISTRY,0.83,mg/dL,0.1,1.2,0.83,0.83,mg/dL,0.1,1.2,NORMAL,,WEEK 1,3,2025-06-06,7
STUDY001,LB,STUDY001-SUBJ0007,29,L00029,ALP,Alkaline Phosphatase,CHEMISTRY,69.44,U/L,44.0,147.0,69.44,69.44,U/L,44.0,147.0,NORMAL,,WEEK 1,3,2025-06-06,7
STUDY001,LB,STUDY001-SUBJ0007,30,L00030,ALT,Alanine Aminotransferase,CHEMISTRY,30.76,U/L,7.0,56.0,30.76,30.76,U/L,7.0,56.0,NORMAL,,WEEK 1,3,2025-06-06,7
STUDY001,LB,STUDY001-SUBJ0007,31,L00031,HGB,Hemoglobin,HEMATOLOGY,14.96,g/dL,13.5,17.5,14.96,14.96,g/dL,13.5,17.5,NORMAL,,WEEK 2,4,2025-06-13,14
STUDY001,LB,STUDY001-SUBJ0007,32,L00032,HCT,Hematocrit,HEMATOLOGY,47.68,%,41.0,51.0,47.68,47.68,%,41.0,51.0,NORMAL,,WEEK 2,4,2025-06-13,14
STUDY001,LB,STUDY001-SUBJ0007,33,L00033,WBC,White Blood Cell Count,HEMATOLOGY,7.4,10^9/L,4.5,11.0,7.4,7.4,10^9/L,4.5,11.0,NORMAL,,WEEK 2,4,2025-06-13,14
STUDY001,LB,STUDY001-SUBJ0007,34,L00034,PLT,Platelet Count,HEMATOLOGY,234.72,10^9/L,150.0,450.0,234.72,234.72,10^9/L,150.0,450.0,NORMAL,,WEEK 2,4,2025-06-13,14
STUDY001,LB,STUDY001-SUBJ0007,35,L00035,GLUC,Glucose,CHEMISTRY,91.92,mg/dL,70.0,100.0,91.92,91.92,mg/dL,70.0,100.0,NORMAL,,WEEK 2,4,2025-06-13,14
STUDY001,LB,STUDY001-SUBJ0007,36,L00036,BUN,Blood Urea Nitrogen,CHEMISTRY,16.14,mg/dL,7.0,20.0,16.14,16.14,mg/dL,7.0,20.0,NORMAL,,WEEK 2,4,2025-06-13,14
STUDY001,LB,STUDY001-SUBJ0007,37,L00037,CREAT,Creatinine,CHEMISTRY,0.89,mg/dL,0.6,1.2,0.89,0.89,mg/dL,0.6,1.2,NORMAL,,WEEK 2,4,2025-06-13,14
STUDY001,LB,STUDY001-SUBJ0007,38,L00038,BILI,Total Bilirubin,CHEMISTRY,0.87,mg/dL,0.1,1.2,0.87,0.87,mg/dL,0.1,1.2,NORMAL,,WEEK 2,4,2025-06-13,14
STUDY001,LB,STUDY001-SUBJ0007,39,L00039,ALP,Alkaline Phosphatase,CHEMISTRY,73.45,U/L,44.0,147.0,73.45,73.45,U/L,44.0,147.0,NORMAL,,WEEK 2,4,2025-06-13,14
STUDY001,LB,STUDY001-SUBJ0007,40,L00040,ALT,Alanine Aminotransferase,CHEMISTRY,29.02,U/L,7.0,56.0,29.02,29.02,U/L,7.0,56.0,NORMAL,,WEEK 2,4,2025-06-13,14
STUDY001,LB,STUDY001-SUBJ0007,41,L00041,HGB,Hemoglobin,HEMATOLOGY,14.98,g/dL,13.5,17.5,14.98,14.98,g/dL,13.5,17.5,NORMAL,,WEEK 4,5,2025-06-27,28
STUDY001,LB,STUDY001-SUBJ0007,42,L00042,HCT,Hematocrit,HEMATOLOGY,47.36,%,41.0,51.0,47.36,47.36,%,41.0,51.0,NORMAL,,WEEK 4,5,2025-06-27,28
STUDY001,LB,STUDY001-SUBJ0007,43,L00043,WBC,White Blood Cell Count,HEMATOLOGY,7.96,10^9/L,4.5,11.0,7.96,7.96,10^9/L,4.5,11.0,NORMAL,,WEEK 4,5,2025-06-27,28
STUDY001,LB,STUDY001-SUBJ0007,44,L00044,PLT,Platelet Count,HEMATOLOGY,238.14,10^9/L,150.0,450.0,238.14,238.14,10^9/L,150.0,450.0,NORMAL,,WEEK 4,5,2025-06-27,28
STUDY001,LB,STUDY001-SUBJ0007,45,L00045,GLUC,Glucose,CHEMISTRY,92.5,mg/dL,70.0,100.0,92.5,92.5,mg/dL,70.0,100.0,NORMAL,,WEEK 4,5,2025-06-27,28
STUDY001,LB,STUDY001-SUBJ0007,46,L00046,BUN,Blood Urea Nitrogen,CHEMISTRY,16.12,mg/dL,7.0,20.0,16.12,16.12,mg/dL,7.0,20.0,NORMAL,,WEEK 4,5,2025-06-27,28
STUDY001,LB,STUDY001-SUBJ0007,47,L00047,CREAT,Creatinine,CHEMISTRY,0.91,mg/dL,0.6,1.2,0.91,0.91,mg/dL,0.6,1.2,NORMAL,,WEEK 4,5,2025-06-27,28
STUDY001,LB,STUDY001-SUBJ0007,48,L00048,BILI,Total Bilirubin,CHEMISTRY,0.83,mg/dL,0.1,1.2,0.83,0.83,mg/dL,0.1,1.2,NORMAL,,WEEK 4,5,2025-06-27,28
STUDY001,LB,STUDY001-SUBJ0007,49,L00049,ALP,Alkaline Phosphatase,CHEMISTRY,67.7,U/L,44.0,147.0,67.7,67.7,U/L,44.0,147.0,NORMAL,,WEEK 4,5,2025-06-27,28
STUDY001,LB,STUDY001-SUBJ0007,50,L00050,ALT,Alanine Aminotransferase,CHEMISTRY,28.73,U/L,7.0,56.0,28.73,28.73,U/L,7.0,56.0,NORMAL,,WEEK 4,5,2025-06-27,28
STUDY001,LB,STUDY001-SUBJ0007,51,L00051,HGB,Hemoglobin,HEMATOLOGY,14.85,g/dL,13.5,17.5,14.85,14.85,g/dL,13.5,17.5,NORMAL,,WEEK 8,6,2025-07-25,56
STUDY001,LB,STUDY001-SUBJ0007,52,L00052,HCT,Hematocrit,HEMATOLOGY,47.72,%,41.0,51.0,47.72,47.72,%,41.0,51.0,NORMAL,,WEEK 8,6,2025-07-25,56
STUDY001,LB,STUDY001-SUBJ0007,53,L00053,WBC,White Blood Cell Count,HEMATOLOGY,7.62,10^9/L,4.5,11.0,7.62,7.62,10^9/L,4.5,11.0,NORMAL,,WEEK 8,6,2025-07-25,56
STUDY001,LB,STUDY001-SUBJ0007,54,L00054,PLT,Platelet Count,HEMATOLOGY,237.96,10^9/L,150.0,450.0,237.96,237.96,10^9/L,150.0,450.0,NORMAL,,WEEK 8,6,2025-07-25,56
STUDY001,LB,STUDY001-SUBJ0007,55,L00055,GLUC,Glucose,CHEMISTRY,92.54,mg/dL,70.0,100.0,92.54,92.54,mg/dL,70.0,100.0,NORMAL,,WEEK 8,6,2025-07-25,56
STUDY001,LB,STUDY001-SUBJ0007,56,L00056,BUN,Blood Urea Nitrogen,CHEMISTRY,15.8,mg/dL,7.0,20.0,15.8,15.8,mg/dL,7.0,20.0,NORMAL,,WEEK 8,6,2025-07-25,56
STUDY001,LB,STUDY001-SUBJ0007,57,L00057,CREAT,Creatinine,CHEMISTRY,0.88,mg/dL,0.6,1.2,0.88,0.88,mg/dL,0.6,1.2,NORMAL,,WEEK 8,6,2025-07-25,56
STUDY001,LB,STUDY001-SUBJ0007,58,L00058,BILI,Total Bilirubin,CHEMISTRY,0.83,mg/dL,0.1,1.2,0.83,0.83,mg/dL,0.1,1.2,NORMAL,,WEEK 8,6,2025-07-25,56
STUDY001,LB,STUDY001-SUBJ0007,59,L00059,ALP,Alkaline Phosphatase,CHEMISTRY,69.43,U/L,44.0,147.0,69.43,69.43,U/L,44.0,147.0,NORMAL,,WEEK 8,6,2025-07-25,56
STUDY001,LB,STUDY001-SUBJ0007,60,L00060,ALT,Alanine Aminotransferase,CHEMISTRY,27.35,U/L,7.0,56.0,27.35,27.35,U/L,7.0,56.0,NORMAL,,WEEK 8,6,2025-07-25,56
STUDY001,LB,STUDY001-SUBJ0007,61,L00061,HGB,Hemoglobin,HEMATOLOGY,14.93,g/dL,13.5,17.5,14.93,14.93,g/dL,13.5,17.5,NORMAL,,WEEK 12,7,2025-08-22,84
STUDY001,LB,STUDY001-SUBJ0007,62,L00062,HCT,Hematocrit,HEMATOLOGY,47.57,%,41.0,51.0,47.57,47.57,%,41.0,51.0,NORMAL,,WEEK 12,7,2025-08-22,84
STUDY001,LB,STUDY001-SUBJ0007,63,L00063,WBC,White Blood Cell Count,HEMATOLOGY,7.7,10^9/L,4.5,11.0,7.7,7.7,10^9/L,4.5,11.0,NORMAL,,WEEK 12,7,2025-08-22,84
STUDY001,LB,STUDY001-SUBJ0007,64,L00064,PLT,Platelet Count,HEMATOLOGY,242.34,10^9/L,150.0,450.0,242.34,242.34,10^9/L,150.0,450.0,NORMAL,,WEEK 12,7,2025-08-22,84
STUDY001,LB,STUDY001-SUBJ0007,65,L00065,GLUC,Glucose,CHEMISTRY,94.21,mg/dL,70.0,100.0,94.21,94.21,mg/dL,70.0,100.0,NORMAL,,WEEK 12,7,2025-08-22,84
STUDY001,LB,STUDY001-SUBJ0007,66,L00066,BUN,Blood Urea Nitrogen,CHEMISTRY,14.96,mg/dL,7.0,20.0,14.96,14.96,mg/dL,7.0,20.0,NORMAL,,WEEK 12,7,2025-08-22,84
STUDY001,LB,STUDY001-SUBJ0007,67,L00067,CREAT,Creatinine,CHEMISTRY,0.9,mg/dL,0.6,1.2,0.9,0.9,mg/dL,0.6,1.2,NORMAL,,WEEK 12,7,2025-08-22,84
STUDY001,LB,STUDY001-SUBJ0007,68,L00068,BILI,Total Bilirubin,CHEMISTRY,0.87,mg/dL,0.1,1.2,0.87,0.87,mg/dL,0.1,1.2,NORMAL,,WEEK 12,7,2025-08-22,84
STUDY001,LB,STUDY001-SUBJ0007,69,L00069,ALP,Alkaline Phosphatase,CHEMISTRY,75.07,U/L,44.0,147.0,75.07,75.07,U/L,44.0,147.0,NORMAL,,WEEK 12,7,2025-08-22,84
STUDY001,LB,STUDY001-SUBJ0007,70,L00070,ALT,Alanine Aminotransferase,CHEMISTRY,29.48,U/L,7.0,56.0,29.48,29.48,U/L,7.0,56.0,NORMAL,,WEEK 12,7,2025-08-22,84
STUDY001,LB,STUDY001-SUBJ0007,71,L00071,HGB,Hemoglobin,HEMATOLOGY,15.0,g/dL,13.5,17.5,15.0,15.0,g/dL,13.5,17.5,NORMAL,,WEEK 16,8,2025-09-19,112
STUDY001,LB,STUDY001-SUBJ0007,72,L00072,HCT,Hematocrit,HEMATOLOGY,47.9,%,41.0,51.0,47.9,47.9,%,41.0,51.0,NORMAL,,WEEK 16,8,2025-09-19,112
STUDY001,LB,STUDY001-SUBJ0007,73,L00073,WBC,White Blood Cell Count,HEMATOLOGY,7.75,10^9/L,4.5,11.0,7.75,7.75,10^9/L,4.5,11.0,NORMAL,,WEEK 16,8,2025-09-19,112
STUDY001,LB,STUDY001-SUBJ0007,74,L00074,PLT,Platelet Count,HEMATOLOGY,239.19,10^9/L,150.0,450.0,239.19,239.19,10^9/L,150.0,450.0,NORMAL,,WEEK 16,8,2025-09-19,112
STUDY001,LB,STUDY001-SUBJ0007,75,L00075,GLUC,Glucose,CHEMISTRY,91.83,mg/dL,70.0,100.0,91.83,91.83,mg/dL,70.0,100.0,NORMAL,,WEEK 16,8,2025-09-19,112
STUDY001,LB,STUDY001-SUBJ0007,76,L00076,BUN,Blood Urea Nitrogen,CHEMISTRY,15.44,mg/dL,7.0,20.0,15.44,15.44,mg/dL,7.0,20.0,NORMAL,,WEEK 16,8,2025-09-19,112
STUDY001,LB,STUDY001-SUBJ0007,77,L00077,CREAT,Creatinine,CHEMISTRY,0.9,mg/dL,0.6,1.2,0.9,0.9,mg/dL,0.6,1.2,NORMAL,,WEEK 16,8,2025-09-19,112
STUDY001,LB,STUDY001-SUBJ0007,78,L00078,BILI,Total Bilirubin,CHEMISTRY,0.8,mg/dL,0.1,1.2,0.8,0.8,mg/dL,0.1,1.2,NORMAL,,WEEK 16,8,2025-09-19,112
STUDY001,LB,STUDY001-SUBJ0007,79,L00079,ALP,Alkaline Phosphatase,CHEMISTRY,74.75,U/L,44.0,147.0,74.75,74.75,U/L,44.0,147.0,NORMAL,,WEEK 16,8,2025-09-19,112
STUDY001,LB,STUDY001-SUBJ0007,80,L00080,ALT,Alanine Aminotransferase,CHEMISTRY,28.35,U/L,7.0,56.0,28.35,28.35,U/L,7.0,56.0,NORMAL,,WEEK 16,8,2025-09-19,112
STUDY001,LB,STUDY001-SUBJ0007,81,L00081,HGB,Hemoglobin,HEMATOLOGY,15.05,g/dL,13.5,17.5,15.05,15.05,g/dL,13.5,17.5,NORMAL,,END OF TREATMENT,9,2025-10-17,140
STUDY001,LB,STUDY001-SUBJ0007,82,L00082,HCT,Hematocrit,HEMATOLOGY,48.13,%,41.0,51.0,48.13,48.13,%,41.0,51.0,NORMAL,,END OF TREATMENT,9,2025-10-17,140
STUDY001,LB,STUDY001-SUBJ0007,83,L00083,WBC,White Blood Cell Count,HEMATOLOGY,7.55,10^9/L,4.5,11.0,7.55,7.55,10^9/L,4.5,11.0,NORMAL,,END OF TREATMENT,9,2025-10-17,140
STUDY001,LB,STUDY001-SUBJ0007,84,L00084,PLT,Platelet Count,HEMATOLOGY,231.72,10^9/L,150.0,450.0,231.72,231.72,10^9/L,150.0,450.0,NORMAL,,END OF TREATMENT,9,2025-10-17,140
STUDY001,LB,STUDY001-SUBJ0007,85,L00085,GLUC,Glucose,CHEMISTRY,94.86,mg/dL,70.0,100.0,94.86,94.86,mg/dL,70.0,100.0,NORMAL,,END OF TREATMENT,9,2025-10-17,140
STUDY001,LB,STUDY001-SUBJ0007,86,L00086,BUN,Blood Urea Nitrogen,CHEMISTRY,16.47,mg/dL,7.0,20.0,16.47,16.47,mg/dL,7.0,20.0,NORMAL,,END OF TREATMENT,9,2025-10-17,140
STUDY001,LB,STUDY001-SUBJ0007,87,L00087,CREAT,Creatinine,CHEMISTRY,0.87,mg/dL,0.6,1.2,0.87,0.87,mg/dL,0.6,1.2,NORMAL,,END OF TREATMENT,9,2025-10-17,140
STUDY001,LB,STUDY001-SUBJ0007,88,L00088,BILI,Total Bilirubin,CHEMISTRY,0.82,mg/dL,0.1,1.2,0.82,0.82,mg/dL,0.1,1.2,NORMAL,,END OF TREATMENT,9,2025-10-17,140
STUDY001,LB,STUDY001-SUBJ0007,89,L00089,ALP,Alkaline Phosphatase,CHEMISTRY,72.43,U/L,44.0,147.0,72.43,72.43,U/L,44.0,147.0,NORMAL,,END OF TREATMENT,9,2025-10-17,140
STUDY001,LB,STUDY001-SUBJ0007,90,L00090,ALT,Alanine Aminotransferase,CHEMISTRY,28.98,U/L,7.0,56.0,28.98,28.98,U/L,7.0,56.0,NORMAL,,END OF TREATMENT,9,2025-10-17,140
STUDY001,LB,STUDY001-SUBJ0008,1,L00001,HGB,Hemoglobin,HEMATOLOGY,13.98,g/dL,13.5,17.5,13.98,13.98,g/dL,13.5,17.5,NORMAL,,SCREENING,1,2024-10-29,-14
STUDY001,LB,STUDY001-SUBJ0008,2,L00002,HCT,Hematocrit,HEMATOLOGY,46.0,%,41.0,51.0,46.0,46.0,%,41.0,51.0,NORMAL,,SCREENING,1,2024-10-29,-14
STUDY001,LB,STUDY001-SUBJ0008,3,L00003,WBC,White Blood Cell Count,HEMATOLOGY,9.24,10^9/L,4.5,11.0,9.24,9.24,10^9/L,4.5,11.0,NORMAL,,SCREENING,1,2024-10-29,-14
STUDY001,LB,STUDY001-SUBJ0008,4,L00004,PLT,Platelet Count,HEMATOLOGY,310.62,10^9/L,150.0,450.0,310.62,310.62,10^9/L,150.0,450.0,NORMAL,,SCREENING,1,2024-10-29,-14
STUDY001,LB,STUDY001-SUBJ0008,5,L00005,GLUC,Glucose,CHEMISTRY,95.82,mg/dL,70.0,100.0,95.82,95.82,mg/dL,70.0,100.0,NORMAL,,SCREENING,1,2024-10-29,-14
STUDY001,LB,STUDY001-SUBJ0008,6,L00006,BUN,Blood Urea Nitrogen,CHEMISTRY,13.07,mg/dL,7.0,20.0,13.07,13.07,mg/dL,7.0,20.0,NORMAL,,SCREENING,1,2024-10-29,-14
STUDY001,LB,STUDY001-SUBJ0008,7,L00007,CREAT,Creatinine,CHEMISTRY,1.09,mg/dL,0.6,1.2,1.09,1.09,mg/dL,0.6,1.2,NORMAL,,SCREENING,1,2024-10-29,-14
STUDY001,LB,STUDY001-SUBJ0008,8,L00008,BILI,Total Bilirubin,CHEMISTRY,0.63,mg/dL,0.1,1.2,0.63,0.63,mg/dL,0.1,1.2,NORMAL,,SCREENING,1,2024-10-29,-14
STUDY001,LB,STUDY001-SUBJ0008,9,L00009,ALP,Alkaline Phosphatase,CHEMISTRY,88.1,U/L,44.0,147.0,88.1,88.1,U/L,44.0,147.0,NORMAL,,SCREENING,1,2024-10-29,-14
STUDY001,LB,STUDY001-SUBJ0008,10,L00010,ALT,Alanine Aminotransferase,CHEMISTRY,28.79,U/L,7.0,56.0,28.79,28.79,U/L,7.0,56.0,NORMAL,,SCREENING,1,2024-10-29,-14
STUDY001,LB,STUDY001-SUBJ0008,11,L00011,HGB,Hemoglobin,HEMATOLOGY,14.08,g/dL,13.5,17.5,14.08,14.08,g/dL,13.5,17.5,NORMAL,Y,BASELINE,2,2024-11-12,1
STUDY001,LB,STUDY001-SUBJ0008,12,L00012,HCT,Hematocrit,HEMATOLOGY,45.84,%,41.0,51.0,45.84,45.84,%,41.0,51.0,NORMAL,Y,BASELINE,2,2024-11-12,1
STUDY001,LB,STUDY001-SUBJ0008,13,L00013,WBC,White Blood Cell Count,HEMATOLOGY,9.15,10^9/L,4.5,11.0,9.15,9.15,10^9/L,4.5,11.0,NORMAL,Y,BASELINE,2,2024-11-12,1
STUDY001,LB,STUDY001-SUBJ0008,14,L00014,PLT,Platelet Count,HEMATOLOGY,317.45,10^9/L,150.0,450.0,317.45,317.45,10^9/L,150.0,450.0,NORMAL,Y,BASELINE,2,2024-11-12,1
STUDY001,LB,STUDY001-SUBJ0008,15,L00015,GLUC,Glucose,CHEMISTRY,95.31,mg/dL,70.0,100.0,95.31,95.31,mg/dL,70.0,100.0,NORMAL,Y,BASELINE,2,2024-11-12,1
STUDY001,LB,STUDY001-SUBJ0008,16,L00016,BUN,Blood Urea Nitrogen,CHEMISTRY,13.05,mg/dL,7.0,20.0,13.05,13.05,mg/dL,7.0,20.0,NORMAL,Y,BASELINE,2,2024-11-12,1
STUDY001,LB,STUDY001-SUBJ0008,17,L00017,CREAT,Creatinine,CHEMISTRY,1.1,mg/dL,0.6,1.2,1.1,1.1,mg/dL,0.6,1.2,NORMAL,Y,BASELINE,2,2024-11-12,1
STUDY001,LB,STUDY001-SUBJ0008,18,L00018,BILI,Total Bilirubin,CHEMISTRY,0.56,mg/dL,0.1,1.2,0.56,0.56,mg/dL,0.1,1.2,NORMAL,Y,BASELINE,2,2024-11-12,1
STUDY001,LB,STUDY001-SUBJ0008,19,L00019,ALP,Alkaline Phosphatase,CHEMISTRY,86.17,U/L,44.0,147.0,86.17,86.17,U/L,44.0,147.0,NORMAL,Y,BASELINE,2,2024-11-12,1
STUDY001,LB,STUDY001-SUBJ0008,20,L00020,ALT,Alanine Aminotransferase,CHEMISTRY,30.06,U/L,7.0,56.0,30.06,30.06,U/L,7.0,56.0,NORMAL,Y,BASELINE,2,2024-11-12,1
STUDY001,LB,STUDY001-SUBJ0008,21,L00021,HGB,Hemoglobin,HEMATOLOGY,14.01,g/dL,13.5,17.5,14.01,14.01,g/dL,13.5,17.5,NORMAL,,WEEK 1,3,2024-11-18,7
STUDY001,LB,STUDY001-SUBJ0008,22,L00022,HCT,Hematocrit,HEMATOLOGY,45.66,%,41.0,51.0,45.66,45.66,%,41.0,51.0,NORMAL,,WEEK 1,3,2024-11-18,7
STUDY001,LB,STUDY001-SUBJ0008,23,L00023,WBC,White Blood Cell Count,HEMATOLOGY,8.91,10^9/L,4.5,11.0,8.91,8.91,10^9/L,4.5,11.0,NORMAL,,WEEK 1,3,2024-11-18,7
STUDY001,LB,STUDY001-SUBJ0008,24,L00024,PLT,Platelet Count,HEMATOLOGY,309.76,10^9/L,150.0,450.0,309.76,309.76,10^9/L,150.0,450.0,NORMAL,,WEEK 1,3,2024-11-18,7
STUDY001,LB,STUDY001-SUBJ0008,25,L00025,GLUC,Glucose,CHEMISTRY,95.57,mg/dL,70.0,100.0,95.57,95.57,mg/dL,70.0,100.0,NORMAL,,WEEK 1,3,2024-11-18,7
STUDY001,LB,STUDY001-SUBJ0008,26,L00026,BUN,Blood Urea Nitrogen,CHEMISTRY,12.55,mg/dL,7.0,20.0,12.55,12.55,mg/dL,7.0,20.0,NORMAL,,WEEK 1,3,2024-11-18,7
STUDY001,LB,STUDY001-SUBJ0008,27,L00027,CREAT,Creatinine,CHEMISTRY,1.13,mg/dL,0.6,1.2,1.13,1.13,mg/dL,0.6,1.2,NORMAL,,WEEK 1,3,2024-11-18,7
STUDY001,LB,STUDY001-SUBJ0008,28,L00028,BILI,Total Bilirubin,CHEMISTRY,0.58,mg/dL,0.1,1.2,0.58,0.58,mg/dL,0.1,1.2,NORMAL,,WEEK 1,3,2024-11-18,7
STUDY001,LB,STUDY001-SUBJ0008,29,L00029,ALP,Alkaline Phosphatase,CHEMISTRY,87.39,U/L,44.0,147.0,87.39,87.39,U/L,44.0,147.0,NORMAL,,WEEK 1,3,2024-11-18,7
STUDY001,LB,STUDY001-SUBJ0008,30,L00030,ALT,Alanine Aminotransferase,CHEMISTRY,30.48,U/L,7.0,56.0,30.48,30.48,U/L,7.0,56.0,NORMAL,,WEEK 1,3,2024-11-18,7
STUDY001,LB,STUDY001-SUBJ0008,31,L00031,HGB,Hemoglobin,HEMATOLOGY,14.01,g/dL,13.5,17.5,14.01,14.01,g/dL,13.5,17.5,NORMAL,,WEEK 2,4,2024-11-25,14
STUDY001,LB,STUDY001-SUBJ0008,32,L00032,HCT,Hematocrit,HEMATOLOGY,46.24,%,41.0,51.0,46.24,46.24,%,41.0,51.0,NORMAL,,WEEK 2,4,2024-11-25,14
STUDY001,LB,STUDY001-SUBJ0008,33,L00033,WBC,White Blood Cell Count,HEMATOLOGY,9.2,10^9/L,4.5,11.0,9.2,9.2,10^9/L,4.5,11.0,NORMAL,,WEEK 2,4,2024-11-25,14
STUDY001,LB,STUDY001-SUBJ0008,34,L00034,PLT,Platelet Count,HEMATOLOGY,318.65,10^9/L,150.0,450.0,318.65,318.65,10^9/L,150.0,450.0,NORMAL,,WEEK 2,4,2024-11-25,14
STUDY001,LB,STUDY001-SUBJ0008,35,L00035,GLUC,Glucose,CHEMISTRY,95.84,mg/dL,70.0,100.0,95.84,95.84,mg/dL,70.0,100.0,NORMAL,,WEEK 2,4,2024-11-25,14
STUDY001,LB,STUDY001-SUBJ0008,36,L00036,BUN,Blood Urea Nitrogen,CHEMISTRY,12.93,mg/dL,7.0,20.0,12.93,12.93,mg/dL,7.0,20.0,NORMAL,,WEEK 2,4,2024-11-25,14
STUDY001,LB,STUDY001-SUBJ0008,37,L00037,CREAT,Creatinine,CHEMISTRY,1.1,mg/dL,0.6,1.2,1.1,1.1,mg/dL,0.6,1.2,NORMAL,,WEEK 2,4,2024-11-25,14
STUDY001,LB,STUDY001-SUBJ0008,38,L00038,BILI,Total Bilirubin,CHEMISTRY,0.57,mg/dL,0.1,1.2,0.57,0.57,mg/dL,0.1,1.2,NORMAL,,WEEK 2,4,2024-11-25,14
STUDY001,LB,STUDY001-SUBJ0008,39,L00039,ALP,Alkaline Phosphatase,CHEMISTRY,86.24,U/L,44.0,147.0,86.24,86.24,U/L,44.0,147.0,NORMAL,,WEEK 2,4,2024-11-25,14
STUDY001,LB,STUDY001-SUBJ0008,40,L00040,ALT,Alanine Aminotransferase,CHEMISTRY,27.91,U/L,7.0,56.0,27.91,27.91,U/L,7.0,56.0,NORMAL,,WEEK 2,4,2024-11-25,14
STUDY001,LB,STUDY001-SUBJ0008,41,L00041,HGB,Hemoglobin,HEMATOLOGY,14.0,g/dL,13.5,17.5,14.0,14.0,g/dL,13.5,17.5,NORMAL,,WEEK 4,5,2024-12-09,28
STUDY001,LB,STUDY001-SUBJ0008,42,L00042,HCT,Hematocrit,HEMATOLOGY,45.93,%,41.0,51.0,45.93,45.93,%,41.0,51.0,NORMAL,,WEEK 4,5,2024-12-09,28
STUDY001,LB,STUDY001-SUBJ0008,43,L00043,WBC,White Blood Cell Count,HEMATOLOGY,9.08,10^9/L,4.5,11.0,9.08,9.08,10^9/L,4.5,11.0,NORMAL,,WEEK 4,5,2024-12-09,28
STUDY001,LB,STUDY001-SUBJ0008,44,L00044,PLT,Platelet Count,HEMATOLOGY,311.87,10^9/L,150.0,450.0,311.87,311.87,10^9/L,150.0,450.0,NORMAL,,WEEK 4,5,2024-12-09,28
STUDY001,LB,STUDY001-SUBJ0008,45,L00045,GLUC,Glucose,CHEMISTRY,95.98,mg/dL,70.0,100.0,95.98,95.98,mg/dL,70.0,100.0,NORMAL,,WEEK 4,5,2024-12-09,28
STUDY001,LB,STUDY001-SUBJ0008,46,L00046,BUN,Blood Urea Nitrogen,CHEMISTRY,13.34,mg/dL,7.0,20.0,13.34,13.34,mg/dL,7.0,20.0,NORMAL,,WEEK 4,5,2024-12-09,28
STUDY001,LB,STUDY001-SUBJ0008,47,L00047,CREAT,Creatinine,CHEMISTRY,1.14,mg/dL,0.6,1.2,1.14,1.14,mg/dL,0.6,1.2,NORMAL,,WEEK 4,5,2024-12-09,28
STUDY001,LB,STUDY001-SUBJ0008,48,L00048,BILI,Total Bilirubin,CHEMISTRY,0.63,mg/dL,0.1,1.2,0.63,0.63,mg/dL,0.1,1.2,NORMAL,,WEEK 4,5,2024-12-09,28
STUDY001,LB,STUDY001-SUBJ0008,49,L00049,ALP,Alkaline Phosphatase,CHEMISTRY,89.29,U/L,44.0,147.0,89.29,89.29,U/L,44.0,147.0,NORMAL,,WEEK 4,5,2024-12-09,28
STUDY001,LB,STUDY001-SUBJ0008,50,L00050,ALT,Alanine Aminotransferase,CHEMISTRY,30.64,U/L,7.0,56.0,30.64,30.64,U/L,7.0,56.0,NORMAL,,WEEK 4,5,2024-12-09,28
STUDY001,LB,STUDY001-SUBJ0008,51,L00051,HGB,Hemoglobin,HEMATOLOGY,13.96,g/dL,13.5,17.5,13.96,13.96,g/dL,13.5,17.5,NORMAL,,WEEK 8,6,2025-01-06,56
STUDY001,LB,STUDY001-SUBJ0008,52,L00052,HCT,Hematocrit,HEMATOLOGY,45.99,%,41.0,51.0,45.99,45.99,%,41.0,51.0,NORMAL,,WEEK 8,6,2025-01-06,56
STUDY001,LB,STUDY001-SUBJ0008,53,L00053,WBC,White Blood Cell Count,HEMATOLOGY,9.37,10^9/L,4.5,11.0,9.37,9.37,10^9/L,4.5,11.0,NORMAL,,WEEK 8,6,2025-01-06,56
STUDY001,LB,STUDY001-SUBJ0008,54,L00054,PLT,Platelet Count,HEMATOLOGY,311.0,10^9/L,150.0,450.0,311.0,311.0,10^9/L,150.0,450.0,NORMAL,,WEEK 8,6,2025-01-06,56
STUDY001,LB,STUDY001-SUBJ0008,55,L00055,GLUC,Glucose,CHEMISTRY,95.98,mg/dL,70.0,100.0,95.98,95.98,mg/dL,70.0,100.0,NORMAL,,WEEK 8,6,2025-01-06,56
STUDY001,LB,STUDY001-SUBJ0008,56,L00056,BUN,Blood Urea Nitrogen,CHEMISTRY,13.45,mg/dL,7.0,20.0,13.45,13.45,mg/dL,7.0,20.0,NORMAL,,WEEK 8,6,2025-01-06,56
STUDY001,LB,STUDY001-SUBJ0008,57,L00057,CREAT,Creatinine,CHEMISTRY,1.13,mg/dL,0.6,1.2,1.13,1.13,mg/dL,0.6,1.2,NORMAL,,WEEK 8,6,2025-01-06,56
STUDY001,LB,STUDY001-SUBJ0008,58,L00058,BILI,Total Bilirubin,CHEMISTRY,0.61,mg/dL,0.1,1.2,0.61,0.61,mg/dL,0.1,1.2,NORMAL,,WEEK 8,6,2025-01-06,56
STUDY001,LB,STUDY001-SUBJ0008,59,L00059,ALP,Alkaline Phosphatase,CHEMISTRY,88.27,U/L,44.0,147.0,88.27,88.27,U/L,44.0,147.0,NORMAL,,WEEK 8,6,2025-01-06,56
STUDY001,LB,STUDY001-SUBJ0008,60,L00060,ALT,Alanine Aminotransferase,CHEMISTRY,29.12,U/L,7.0,56.0,29.12,29.12,U/L,7.0,56.0,NORMAL,,WEEK 8,6,2025-01-06,56
STUDY001,LB,STUDY001-SUBJ0008,61,L00061,HGB,Hemoglobin,HEMATOLOGY,14.1,g/dL,13.5,17.5,14.1,14.1,g/dL,13.5,17.5,NORMAL,,WEEK 12,7,2025-02-03,84
STUDY001,LB,STUDY001-SUBJ0008,62,L00062,HCT,Hematocrit,HEMATOLOGY,45.79,%,41.0,51.0,45.79,45.79,%,41.0,51.0,NORMAL,,WEEK 12,7,2025-02-03,84
STUDY001,LB,STUDY001-SUBJ0008,63,L00063,WBC,White Blood Cell Count,HEMATOLOGY,9.21,10^9/L,4.5,11.0,9.21,9.21,10^9/L,4.5,11.0,NORMAL,,WEEK 12,7,2025-02-03,84
STUDY001,LB,STUDY001-SUBJ0008,64,L00064,PLT,Platelet Count,HEMATOLOGY,317.14,10^9/L,150.0,450.0,317.14,317.14,10^9/L,150.0,450.0,NORMAL,,WEEK 12,7,2025-02-03,84
STUDY001,LB,STUDY001-SUBJ0008,65,L00065,GLUC,Glucose,CHEMISTRY,95.26,mg/dL,70.0,100.0,95.26,95.26,mg/dL,70.0,100.0,NORMAL,,WEEK 12,7,2025-02-03,84
STUDY001,LB,STUDY001-SUBJ0008,66,L00066,BUN,Blood Urea Nitrogen,CHEMISTRY,12.98,mg/dL,7.0,20.0,12.98,12.98,mg/dL,7.0,20.0,NORMAL,,WEEK 12,7,2025-02-03,84
STUDY001,LB,STUDY001-SUBJ0008,67,L00067,CREAT,Creatinine,CHEMISTRY,1.11,mg/dL,0.6,1.2,1.11,1.11,mg/dL,0.6,1.2,NORMAL,,WEEK 12,7,2025-02-03,84
STUDY001,LB,STUDY001-SUBJ0008,68,L00068,BILI,Total Bilirubin,CHEMISTRY,0.59,mg/dL,0.1,1.2,0.59,0.59,mg/dL,0.1,1.2,NORMAL,,WEEK 12,7,2025-02-03,84
STUDY001,LB,STUDY001-SUBJ0008,69,L00069,ALP,Alkaline Phosphatase,CHEMISTRY,88.22,U/L,44.0,147.0,88.22,88.22,U/L,44.0,147.0,NORMAL,,WEEK 12,7,2025-02-03,84
STUDY001,LB,STUDY001-SUBJ0008,70,L00070,ALT,Alanine Aminotransferase,CHEMISTRY,29.04,U/L,7.0,56.0,29.04,29.04,U/L,7.0,56.0,NORMAL,,WEEK 12,7,2025-02-03,84
STUDY001,LB,STUDY001-SUBJ0008,71,L00071,HGB,Hemoglobin,HEMATOLOGY,14.06,g/dL,13.5,17.5,14.06,14.06,g/dL,13.5,17.5,NORMAL,,WEEK 16,8,2025-03-03,112
STUDY001,LB,STUDY001-SUBJ0008,72,L00072,HCT,Hematocrit,HEMATOLOGY,45.47,%,41.0,51.0,45.47,45.47,%,41.0,51.0,NORMAL,,WEEK 16,8,2025-03-03,112
STUDY001,LB,STUDY001-SUBJ0008,73,L00073,WBC,White Blood Cell Count,HEMATOLOGY,9.21,10^9/L,4.5,11.0,9.21,9.21,10^9/L,4.5,11.0,NORMAL,,WEEK 16,8,2025-03-03,112
STUDY001,LB,STUDY001-SUBJ0008,74,L00074,PLT,Platelet Count,HEMATOLOGY,310.22,10^9/L,150.0,450.0,310.22,310.22,10^9/L,150.0,450.0,NORMAL,,WEEK 16,8,2025-03-03,112
STUDY001,LB,STUDY001-SUBJ0008,75,L00075,GLUC,Glucose,CHEMISTRY,93.46,mg/dL,70.0,100.0,93.46,93.46,mg/dL,70.0,100.0,NORMAL,,WEEK 16,8,2025-03-03,112
STUDY001,LB,STUDY001-SUBJ0008,76,L00076,BUN,Blood Urea Nitrogen,CHEMISTRY,13.2,mg/dL,7.0,20.0,13.2,13.2,mg/dL,7.0,20.0,NORMAL,,WEEK 16,8,2025-03-03,112
STUDY001,LB,STUDY001-SUBJ0008,77,L00077,CREAT,Creatinine,CHEMISTRY,1.11,mg/dL,0.6,1.2,1.11,1.11,mg/dL,0.6,1.2,NORMAL,,WEEK 16,8,2025-03-03,112
STUDY001,LB,STUDY001-SUBJ0008,78,L00078,BILI,Total Bilirubin,CHEMISTRY,0.59,mg/dL,0.1,1.2,0.59,0.59,mg/dL,0.1,1.2,NORMAL,,WEEK 16,8,2025-03-03,112
STUDY001,LB,STUDY001-SUBJ0008,79,L00079,ALP,Alkaline Phosphatase,CHEMISTRY,87.28,U/L,44.0,147.0,87.28,87.28,U/L,44.0,147.0,NORMAL,,WEEK 16,8,2025-03-03,112
STUDY001,LB,STUDY001-SUBJ0008,80,L00080,ALT,Alanine Aminotransferase,CHEMISTRY,30.85,U/L,7.0,56.0,30.85,30.85,U/L,7.0,56.0,NORMAL,,WEEK 16,8,2025-03-03,112
STUDY001,LB,STUDY001-SUBJ0008,81,L00081,HGB,Hemoglobin,HEMATOLOGY,14.17,g/dL,13.5,17.5,14.17,14.17,g/dL,13.5,17.5,NORMAL,,END OF TREATMENT,9,2025-03-31,140
STUDY001,LB,STUDY001-SUBJ0008,82,L00082,HCT,Hematocrit,HEMATOLOGY,46.0,%,41.0,51.0,46.0,46.0,%,41.0,51.0,NORMAL,,END OF TREATMENT,9,2025-03-31,140
STUDY001,LB,STUDY001-SUBJ0008,83,L00083,WBC,White Blood Cell Count,HEMATOLOGY,9.45,10^9/L,4.5,11.0,9.45,9.45,10^9/L,4.5,11.0,NORMAL,,END OF TREATMENT,9,2025-03-31,140
STUDY001,LB,STUDY001-SUBJ0008,84,L00084,PLT,Platelet Count,HEMATOLOGY,308.27,10^9/L,150.0,450.0,308.27,308.27,10^9/L,150.0,450.0,NORMAL,,END OF TREATMENT,9,2025-03-31,140
STUDY001,LB,STUDY001-SUBJ0008,85,L00085,GLUC,Glucose,CHEMISTRY,97.17,mg/dL,70.0,100.0,97.17,97.17,mg/dL,70.0,100.0,NORMAL,,END OF TREATMENT,9,2025-03-31,140
STUDY001,LB,STUDY001-SUBJ0008,86,L00086,BUN,Blood Urea Nitrogen,CHEMISTRY,13.5,mg/dL,7.0,20.0,13.5,13.5,mg/dL,7.0,20.0,NORMAL,,END OF TREATMENT,9,2025-03-31,140
STUDY001,LB,STUDY001-SUBJ0008,87,L00087,CREAT,Creatinine,CHEMISTRY,1.1,mg/dL,0.6,1.2,1.1,1.1,mg/dL,0.6,1.2,NORMAL,,END OF TREATMENT,9,2025-03-31,140
STUDY001,LB,STUDY001-SUBJ0008,88,L00088,BILI,Total Bilirubin,CHEMISTRY,0.58,mg/dL,0.1,1.2,0.58,0.58,mg/dL,0.1,1.2,NORMAL,,END OF TREATMENT,9,2025-03-31,140
STUDY001,LB,STUDY001-SUBJ0008,89,L00089,ALP,Alkaline Phosphatase,CHEMISTRY,89.04,U/L,44.0,147.0,89.04,89.04,U/L,44.0,147.0,NORMAL,,END OF TREATMENT,9,2025-03-31,140
STUDY001,LB,STUDY001-SUBJ0008,90,L00090,ALT,Alanine Aminotransferase,CHEMISTRY,28.92,U/L,7.0,56.0,28.92,28.92,U/L,7.0,56.0,NORMAL,,END OF TREATMENT,9,2025-03-31,140
STUDY001,LB,STUDY001-SUBJ0009,1,L00001,HGB,Hemoglobin,HEMATOLOGY,14.92,g/dL,13.5,17.5,14.92,14.92,g/dL,13.5,17.5,NORMAL,,SCREENING,1,2024-09-03,-14
STUDY001,LB,STUDY001-SUBJ0009,2,L00002,HCT,Hematocrit,HEMATOLOGY,45.31,%,41.0,51.0,45.31,45.31,%,41.0,51.0,NORMAL,,SCREENING,1,2024-09-03,-14
STUDY001,LB,STUDY001-SUBJ0009,3,L00003,WBC,White Blood Cell Count,HEMATOLOGY,6.26,10^9/L,4.5,11.0,6.26,6.26,10^9/L,4.5,11.0,NORMAL,,SCREENING,1,2024-09-03,-14
STUDY001,LB,STUDY001-SUBJ0009,4,L00004,PLT,Platelet Count,HEMATOLOGY,291.12,10^9/L,150.0,450.0,291.12,291.12,10^9/L,150.0,450.0,NORMAL,,SCREENING,1,2024-09-03,-14
STUDY001,LB,STUDY001-SUBJ0009,5,L00005,GLUC,Glucose,CHEMISTRY,75.77,mg/dL,70.0,100.0,75.77,75.77,mg/dL,70.0,100.0,NORMAL,,SCREENING,1,2024-09-03,-14
STUDY001,LB,STUDY001-SUBJ0009,6,L00006,BUN,Blood Urea Nitrogen,CHEMISTRY,14.92,mg/dL,7.0,20.0,14.92,14.92,mg/dL,7.0,20.0,NORMAL,,SCREENING,1,2024-09-03,-14
STUDY001,LB,STUDY001-SUBJ0009,7,L00007,CREAT,Creatinine,CHEMISTRY,0.69,mg/dL,0.6,1.2,0.69,0.69,mg/dL,0.6,1.2,NORMAL,,SCREENING,1,2024-09-03,-14
STUDY001,LB,STUDY001-SUBJ0009,8,L00008,BILI,Total Bilirubin,CHEMISTRY,0.93,mg/dL,0.1,1.2,0.93,0.93,mg/dL,0.1,1.2,NORMAL,,SCREENING,1,2024-09-03,-14
STUDY001,LB,STUDY001-SUBJ0009,9,L00009,ALP,Alkaline Phosphatase,CHEMISTRY,112.05,U/L,44.0,147.0,112.05,112.05,U/L,44.0,147.0,NORMAL,,SCREENING,1,2024-09-03,-14
STUDY001,LB,STUDY001-SUBJ0009,10,L00010,ALT,Alanine Aminotransferase,CHEMISTRY,39.31,U/L,7.0,56.0,39.31,39.31,U/L,7.0,56.0,NORMAL,,SCREENING,1,2024-09-03,-14
STUDY001,LB,STUDY001-SUBJ0009,11,L00011,HGB,Hemoglobin,HEMATOLOGY,14.83,g/dL,13.5,17.5,14.83,14.83,g/dL,13.5,17.5,NORMAL,Y,BASELINE,2,2024-09-17,1
STUDY001,LB,STUDY001-SUBJ0009,12,L00012,HCT,Hematocrit,HEMATOLOGY,44.84,%,41.0,51.0,44.84,44.84,%,41.0,51.0,NORMAL,Y,BASELINE,2,2024-09-17,1
STUDY001,LB,STUDY001-SUBJ0009,13,L00013,WBC,White Blood Cell Count,HEMATOLOGY,6.64,10^9/L,4.5,11.0,6.64,6.64,10^9/L,4.5,11.0,NORMAL,Y,BASELINE,2,2024-09-17,1
STUDY001,LB,STUDY001-SUBJ0009,14,L00014,PLT,Platelet Count,HEMATOLOGY,306.2,10^9/L,150.0,450.0,306.2,306.2,10^9/L,150.0,450.0,NORMAL,Y,BASELINE,2,2024-09-17,1
STUDY001,LB,STUDY001-SUBJ0009,15,L00015,GLUC,Glucose,CHEMISTRY,76.98,mg/dL,70.0,100.0,76.98,76.98,mg/dL,70.0,100.0,NORMAL,Y,BASELINE,2,2024-09-17,1
STUDY001,LB,STUDY001-SUBJ0009,16,L00016,BUN,Blood Urea Nitrogen,CHEMISTRY,13.97,mg/dL,7.0,20.0,13.97,13.97,mg/dL,7.0,20.0,NORMAL,Y,BASELINE,2,2024-09-17,1
STUDY001,LB,STUDY001-SUBJ0009,17,L00017,CREAT,Creatinine,CHEMISTRY,0.71,mg/dL,0.6,1.2,0.71,0.71,mg/dL,0.6,1.2,NORMAL,Y,BASELINE,2,2024-09-17,1
STUDY001,LB,STUDY001-SUBJ0009,18,L00018,BILI,Total Bilirubin,CHEMISTRY,0.96,mg/dL,0.1,1.2,0.96,0.96,mg/dL,0.1,1.2,NORMAL,Y,BASELINE,2,2024-09-17,1
STUDY001,LB,STUDY001-SUBJ0009,19,L00019,ALP,Alkaline Phosphatase,CHEMISTRY,111.05,U/L,44.0,147.0,111.05,111.05,U/L,44.0,147.0,NORMAL,Y,BASELINE,2,2024-09-17,1
STUDY001,LB,STUDY001-SUBJ0009,20,L00020,ALT,Alanine Aminotransferase,CHEMISTRY,39.88,U/L,7.0,56.0,39.88,39.88,U/L,7.0,56.0,NORMAL,Y,BASELINE,2,2024-09-17,1
STUDY001,LB,STUDY001-SUBJ0009,21,L00021,HGB,Hemoglobin,HEMATOLOGY,14.85,g/dL,13.5,17.5,14.85,14.85,g/dL,13.5,17.5,NORMAL,,WEEK 1,3,2024-09-23,7
STUDY001,LB,STUDY001-SUBJ0009,22,L00022,HCT,Hematocrit,HEMATOLOGY,45.59,%,41.0,51.0,45.59,45.59,%,41.0,51.0,NORMAL,,WEEK 1,3,2024-09-23,7
STUDY001,LB,STUDY001-SUBJ0009,23,L00023,WBC,White Blood Cell Count,HEMATOLOGY,6.14,10^9/L,4.5,11.0,6.14,6.14,10^9/L,4.5,11.0,NORMAL,,WEEK 1,3,2024-09-23,7
STUDY001,LB,STUDY001-SUBJ0009,24,L00024,PLT,Platelet Count,HEMATOLOGY,307.03,10^9/L,150.0,450.0,307.03,307.03,10^9/L,150.0,450.0,NORMAL,,WEEK 1,3,2024-09-23,7
STUDY001,LB,STUDY001-SUBJ0009,25,L00025,GLUC,Glucose,CHEMISTRY,76.06,mg/dL,70.0,100.0,76.06,76.06,mg/dL,70.0,100.0,NORMAL,,WEEK 1,3,2024-09-23,7
STUDY001,LB,STUDY001-SUBJ0009,26,L00026,BUN,Blood Urea Nitrogen,CHEMISTRY,14.46,mg/dL,7.0,20.0,14.46,14.46,mg/dL,7.0,20.0,NORMAL,,WEEK 1,3,2024-09-23,7
STUDY001,LB,STUDY001-SUBJ0009,27,L00027,CREAT,Creatinine,CHEMISTRY,0.69,mg/dL,0.6,1.2,0.69,0.69,mg/dL,0.6,1.2,NORMAL,,WEEK 1,3,2024-09-23,7
STUDY001,LB,STUDY001-SUBJ0009,28,L00028,BILI,Total Bilirubin,CHEMISTRY,0.96,mg/dL,0.1,1.2,0.96,0.96,mg/dL,0.1,1.2,NORMAL,,WEEK 1,3,2024-09-23,7
STUDY001,LB,STUDY001-SUBJ0009,29,L00029,ALP,Alkaline Phosphatase,CHEMISTRY,106.95,U/L,44.0,147.0,106.95,106.95,U/L,44.0,147.0,NORMAL,,WEEK 1,3,2024-09-23,7
STUDY001,LB,STUDY001-SUBJ0009,30,L00030,ALT,Alanine Aminotransferase,CHEMISTRY,39.51,U/L,7.0,56.0,39.51,39.51,U/L,7.0,56.0,NORMAL,,WEEK 1,3,2024-09-23,7
STUDY001,LB,STUDY001-SUBJ0009,31,L00031,HGB,Hemoglobin,HEMATOLOGY,14.79,g/dL,13.5,17.5,14.79,14.79,g/dL,13.5,17.5,NORMAL,,WEEK 2,4,2024-09-30,14
STUDY001,LB,STUDY001-SUBJ0009,32,L00032,HCT,Hematocrit,HEMATOLOGY,45.18,%,41.0,51.0,45.18,45.18,%,41.0,51.0,NORMAL,,WEEK 2,4,2024-09-30,14
STUDY001,LB,STUDY001-SUBJ0009,33,L00033,WBC,White Blood Cell Count,HEMATOLOGY,6.59,10^9/L,4.5,11.0,6.59,6.59,10^9/L,4.5,11.0,NORMAL,,WEEK 2,4,2024-09-30,14
STUDY001,LB,STUDY001-SUBJ0009,34,L00034,PLT,Platelet Count,HEMATOLOGY,295.82,10^9/L,150.0,450.0,295.82,295.82,10^9/L,150.0,450.0,NORMAL,,WEEK 2,4,2024-09-30,14
STUDY001,LB,STUDY001-SUBJ0009,35,L00035,GLUC,Glucose,CHEMISTRY,75.09,mg/dL,70.0,100.0,75.09,75.09,mg/dL,70.0,100.0,NORMAL,,WEEK 2,4,2024-09-30,14
STUDY001,LB,STUDY001-SUBJ0009,36,L00036,BUN,Blood Urea Nitrogen,CHEMISTRY,14.66,mg/dL,7.0,20.0,14.66,14.66,mg/dL,7.0,20.0,NORMAL,,WEEK 2,4,2024-09-30,14
STUDY001,LB,STUDY001-SUBJ0009,37,L00037,CREAT,Creatinine,CHEMISTRY,0.67,mg/dL,0.6,1.2,0.67,0.67,mg/dL,0.6,1.2,NORMAL,,WEEK 2,4,2024-09-30,14
STUDY001,LB,STUDY001-SUBJ0009,38,L00038,BILI,Total Bilirubin,CHEMISTRY,0.96,mg/dL,0.1,1.2,0.96,0.96,mg/dL,0.1,1.2,NORMAL,,WEEK 2,4,2024-09-30,14
STUDY001,LB,STUDY001-SUBJ0009,39,L00039,ALP,Alkaline Phosphatase,CHEMISTRY,110.28,U/L,44.0,147.0,110.28,110.28,U/L,44.0,147.0,NORMAL,,WEEK 2,4,2024-09-30,14
STUDY001,LB,STUDY001-SUBJ0009,40,L00040,ALT,Alanine Aminotransferase,CHEMISTRY,39.18,U/L,7.0,56.0,39.18,39.18,U/L,7.0,56.0,NORMAL,,WEEK 2,4,2024-09-30,14
STUDY001,LB,STUDY001-SUBJ0009,41,L00041,HGB,Hemoglobin,HEMATOLOGY,14.81,g/dL,13.5,17.5,14.81,14.81,g/dL,13.5,17.5,NORMAL,,WEEK 4,5,2024-10-14,28
STUDY001,LB,STUDY001-SUBJ0009,42,L00042,HCT,Hematocrit,HEMATOLOGY,45.17,%,41.0,51.0,45.17,45.17,%,41.0,51.0,NORMAL,,WEEK 4,5,2024-10-14,28
STUDY001,LB,STUDY001-SUBJ0009,43,L00043,WBC,White Blood Cell Count,HEMATOLOGY,6.57,10^9/L,4.5,11.0,6.57,6.57,10^9/L,4.5,11.0,NORMAL,,WEEK 4,5,2024-10-14,28
STUDY001,LB,STUDY001-SUBJ0009,44,L00044,PLT,Platelet Count,HEMATOLOGY,307.39,10^9/L,150.0,450.0,307.39,307.39,10^9/L,150.0,450.0,NORMAL,,WEEK 4,5,2024-10-14,28
STUDY001,LB,STUDY001-SUBJ0009,45,L00045,GLUC,Glucose,CHEMISTRY,75.38,mg/dL,70.0,100.0,75.38,75.38,mg/dL,70.0,100.0,NORMAL,,WEEK 4,5,2024-10-14,28
STUDY001,LB,STUDY001-SUBJ0009,46,L00046,BUN,Blood Urea Nitrogen,CHEMISTRY,14.72,mg/dL,7.0,20.0,14.72,14.72,mg/dL,7.0,20.0,NORMAL,,WEEK 4,5,2024-10-14,28
STUDY001,LB,STUDY001-SUBJ0009,47,L00047,CREAT,Creatinine,CHEMISTRY,0.7,mg/dL,0.6,1.2,0.7,0.7,mg/dL,0.6,1.2,NORMAL,,WEEK 4,5,2024-10-14,28
STUDY001,LB,STUDY001-SUBJ0009,48,L00048,BILI,Total Bilirubin,CHEMISTRY,0.96,mg/dL,0.1,1.2,0.96,0.96,mg/dL,0.1,1.2,NORMAL,,WEEK 4,5,2024-10-14,28
STUDY001,LB,STUDY001-SUBJ0009,49,L00049,ALP,Alkaline Phosphatase,CHEMISTRY,108.7,U/L,44.0,147.0,108.7,108.7,U/L,44.0,147.0,NORMAL,,WEEK 4,5,2024-10-14,28
STUDY001,LB,STUDY001-SUBJ0009,50,L00050,ALT,Alanine Aminotransferase,CHEMISTRY,38.38,U/L,7.0,56.0,38.38,38.38,U/L,7.0,56.0,NORMAL,,WEEK 4,5,2024-10-14,28
STUDY001,LB,STUDY001-SUBJ0009,51,L00051,HGB,Hemoglobin,HEMATOLOGY,14.82,g/dL,13.5,17.5,14.82,14.82,g/dL,13.5,17.5,NORMAL,,WEEK 8,6,2024-11-11,56
STUDY001,LB,STUDY001-SUBJ0009,52,L00052,HCT,Hematocrit,HEMATOLOGY,45.37,%,41.0,51.0,45.37,45.37,%,41.0,51.0,NORMAL,,WEEK 8,6,2024-11-11,56
STUDY001,LB,STUDY001-SUBJ0009,53,L00053,WBC,White Blood Cell Count,HEMATOLOGY,6.56,10^9/L,4.5,11.0,6.56,6.56,10^9/L,4.5,11.0,NORMAL,,WEEK 8,6,2024-11-11,56
STUDY001,LB,STUDY001-SUBJ0009,54,L00054,PLT,Platelet Count,HEMATOLOGY,310.74,10^9/L,150.0,450.0,310.74,310.74,10^9/L,150.0,450.0,NORMAL,,WEEK 8,6,2024-11-11,56
STUDY001,LB,STUDY001-SUBJ0009,55,L00055,GLUC,Glucose,CHEMISTRY,74.59,mg/dL,70.0,100.0,74.59,74.59,mg/dL,70.0,100.0,NORMAL,,WEEK 8,6,2024-11-11,56
STUDY001,LB,STUDY001-SUBJ0009,56,L00056,BUN,Blood Urea Nitrogen,CHEMISTRY,14.96,mg/dL,7.0,20.0,14.96,14.96,mg/dL,7.0,20.0,NORMAL,,WEEK 8,6,2024-11-11,56
STUDY001,LB,STUDY001-SUBJ0009,57,L00057,CREAT,Creatinine,CHEMISTRY,0.67,mg/dL,0.6,1.2,0.67,0.67,mg/dL,0.6,1.2,NORMAL,,WEEK 8,6,2024-11-11,56
STUDY001,LB,STUDY001-SUBJ0009,58,L00058,BILI,Total Bilirubin,CHEMISTRY,0.93,mg/dL,0.1,1.2,0.93,0.93,mg/dL,0.1,1.2,NORMAL,,WEEK 8,6,2024-11-11,56
STUDY001,LB,STUDY001-SUBJ0009,59,L00059,ALP,Alkaline Phosphatase,CHEMISTRY,108.56,U/L,44.0,147.0,108.56,108.56,U/L,44.0,147.0,NORMAL,,WEEK 8,6,2024-11-11,56
STUDY001,LB,STUDY001-SUBJ0009,60,L00060,ALT,Alanine Aminotransferase,CHEMISTRY,39.65,U/L,7.0,56.0,39.65,39.65,U/L,7.0,56.0,NORMAL,,WEEK 8,6,2024-11-11,56
STUDY001,LB,STUDY001-SUBJ0009,61,L00061,HGB,Hemoglobin,HEMATOLOGY,14.93,g/dL,13.5,17.5,14.93,14.93,g/dL,13.5,17.5,NORMAL,,WEEK 12,7,2024-12-09,84
STUDY001,LB,STUDY001-SUBJ0009,62,L00062,HCT,Hematocrit,HEMATOLOGY,44.82,%,41.0,51.0,44.82,44.82,%,41.0,51.0,NORMAL,,WEEK 12,7,2024-12-09,84
STUDY001,LB,STUDY001-SUBJ0009,63,L00063,WBC,White Blood Cell Count,HEMATOLOGY,6.08,10^9/L,4.5,11.0,6.08,6.08,10^9/L,4.5,11.0,NORMAL,,WEEK 12,7,2024-12-09,84
STUDY001,LB,STUDY001-SUBJ0009,64,L00064,PLT,Platelet Count,HEMATOLOGY,304.01,10^9/L,150.0,450.0,304.01,304.01,10^9/L,150.0,450.0,NORMAL,,WEEK 12,7,2024-12-09,84
STUDY001,LB,STUDY001-SUBJ0009,65,L00065,GLUC,Glucose,CHEMISTRY,76.36,mg/dL,70.0,100.0,76.36,76.36,mg/dL,70.0,100.0,NORMAL,,WEEK 12,7,2024-12-09,84
STUDY001,LB,STUDY001-SUBJ0009,66,L00066,BUN,Blood Urea Nitrogen,CHEMISTRY,14.32,mg/dL,7.0,20.0,14.32,14.32,mg/dL,7.0,20.0,NORMAL,,WEEK 12,7,2024-12-09,84
STUDY001,LB,STUDY001-SUBJ0009,67,L00067,CREAT,Creatinine,CHEMISTRY,0.67,mg/dL,0.6,1.2,0.67,0.67,mg/dL,0.6,1.2,NORMAL,,WEEK 12,7,2024-12-09,84
STUDY001,LB,STUDY001-SUBJ0009,68,L00068,BILI,Total Bilirubin,CHEMISTRY,0.94,mg/dL,0.1,1.2,0.94,0.94,mg/dL,0.1,1.2,NORMAL,,WEEK 12,7,2024-12-09,84
STUDY001,LB,STUDY001-SUBJ0009,69,L00069,ALP,Alkaline Phosphatase,CHEMISTRY,110.07,U/L,44.0,147.0,110.07,110.07,U/L,44.0,147.0,NORMAL,,WEEK 12,7,2024-12-09,84
STUDY001,LB,STUDY001-SUBJ0009,70,L00070,ALT,Alanine Aminotransferase,CHEMISTRY,39.31,U/L,7.0,56.0,39.31,39.31,U/L,7.0,56.0,NORMAL,,WEEK 12,7,2024-12-09,84
STUDY001,LB,STUDY001-SUBJ0009,71,L00071,HGB,Hemoglobin,HEMATOLOGY,14.57,g/dL,13.5,17.5,14.57,14.57,g/dL,13.5,17.5,NORMAL,,WEEK 16,8,2025-01-06,112
STUDY001,LB,STUDY001-SUBJ0009,72,L00072,HCT,Hematocrit,HEMATOLOGY,45.2,%,41.0,51.0,45.2,45.2,%,41.0,51.0,NORMAL,,WEEK 16,8,2025-01-06,112
STUDY001,LB,STUDY001-SUBJ0009,73,L00073,WBC,White Blood Cell Count,HEMATOLOGY,6.3,10^9/L,4.5,11.0,6.3,6.3,10^9/L,4.5,11.0,NORMAL,,WEEK 16,8,2025-01-06,112
STUDY001,LB,STUDY001-SUBJ0009,74,L00074,PLT,Platelet Count,HEMATOLOGY,301.22,10^9/L,150.0,450.0,301.22,301.22,10^9/L,150.0,450.0,NORMAL,,WEEK 16,8,2025-01-06,112
STUDY001,LB,STUDY001-SUBJ0009,75,L00075,GLUC,Glucose,CHEMISTRY,75.0,mg/dL,70.0,100.0,75.0,75.0,mg/dL,70.0,100.0,NORMAL,,WEEK 16,8,2025-01-06,112
STUDY001,LB,STUDY001-SUBJ0009,76,L00076,BUN,Blood Urea Nitrogen,CHEMISTRY,14.96,mg/dL,7.0,20.0,14.96,14.96,mg/dL,7.0,20.0,NORMAL,,WEEK 16,8,2025-01-06,112
STUDY001,LB,STUDY001-SUBJ0009,77,L00077,CREAT,Creatinine,CHEMISTRY,0.71,mg/dL,0.6,1.2,0.71,0.71,mg/dL,0.6,1.2,NORMAL,,WEEK 16,8,2025-01-06,112
STUDY001,LB,STUDY001-SUBJ0009,78,L00078,BILI,Total Bilirubin,CHEMISTRY,0.95,mg/dL,0.1,1.2,0.95,0.95,mg/dL,0.1,1.2,NORMAL,,WEEK 16,8,2025-01-06,112
STUDY001,LB,STUDY001-SUBJ0009,79,L00079,ALP,Alkaline Phosphatase,CHEMISTRY,112.4,U/L,44.0,147.0,112.4,112.4,U/L,44.0,147.0,NORMAL,,WEEK 16,8,2025-01-06,112
STUDY001,LB,STUDY001-SUBJ0009,80,L00080,ALT,Alanine Aminotransferase,CHEMISTRY,39.17,U/L,7.0,56.0,39.17,39.17,U/L,7.0,56.0,NORMAL,,WEEK 16,8,2025-01-06,112
STUDY001,LB,STUDY001-SUBJ0009,81,L00081,HGB,Hemoglobin,HEMATOLOGY,14.84,g/dL,13.5,17.5,14.84,14.84,g/dL,13.5,17.5,NORMAL,,END OF TREATMENT,9,2025-02-03,140
STUDY001,LB,STUDY001-SUBJ0009,82,L00082,HCT,Hematocrit,HEMATOLOGY,45.42,%,41.0,51.0,45.42,45.42,%,41.0,51.0,NORMAL,,END OF TREATMENT,9,2025-02-03,140
STUDY001,LB,STUDY001-SUBJ0009,83,L00083,WBC,White Blood Cell Count,HEMATOLOGY,6.25,10^9/L,4.5,11.0,6.25,6.25,10^9/L,4.5,11.0,NORMAL,,END OF TREATMENT,9,2025-02-03,140
STUDY001,LB,STUDY001-SUBJ0009,84,L00084,PLT,Platelet Count,HEMATOLOGY,302.08,10^9/L,150.0,450.0,302.08,302.08,10^9/L,150.0,450.0,NORMAL,,END OF TREATMENT,9,2025-02-03,140
STUDY001,LB,STUDY001-SUBJ0009,85,L00085,GLUC,Glucose,CHEMISTRY,76.21,mg/dL,70.0,100.0,76.21,76.21,mg/dL,70.0,100.0,NORMAL,,END OF TREATMENT,9,2025-02-03,140
STUDY001,LB,STUDY001-SUBJ0009,86,L00086,BUN,Blood Urea Nitrogen,CHEMISTRY,14.73,mg/dL,7.0,20.0,14.73,14.73,mg/dL,7.0,20.0,NORMAL,,END OF TREATMENT,9,2025-02-03,140
STUDY001,LB,STUDY001-SUBJ0009,87,L00087,CREAT,Creatinine,CHEMISTRY,0.69,mg/dL,0.6,1.2,0.69,0.69,mg/dL,0.6,1.2,NORMAL,,END OF TREATMENT,9,2025-02-03,140
STUDY001,LB,STUDY001-SUBJ0009,88,L00088,BILI,Total Bilirubin,CHEMISTRY,0.95,mg/dL,0.1,1.2,0.95,0.95,mg/dL,0.1,1.2,NORMAL,,END OF TREATMENT,9,2025-02-03,140
STUDY001,LB,STUDY001-SUBJ0009,89,L00089,ALP,Alkaline Phosphatase,CHEMISTRY,110.59,U/L,44.0,147.0,110.59,110.59,U/L,44.0,147.0,NORMAL,,END OF TREATMENT,9,2025-02-03,140
STUDY001,LB,STUDY001-SUBJ0009,90,L00090,ALT,Alanine Aminotransferase,CHEMISTRY,39.57,U/L,7.0,56.0,39.57,39.57,U/L,7.0,56.0,NORMAL,,END OF TREATMENT,9,2025-02-03,140
STUDY001,LB,STUDY001-SUBJ0010,1,L00001,HGB,Hemoglobin,HEMATOLOGY,13.16,g/dL,13.5,17.5,13.16,13.16,g/dL,13.5,17.5,LOW,,SCREENING,1,2025-04-26,-14
STUDY001,LB,STUDY001-SUBJ0010,2,L00002,HCT,Hematocrit,HEMATOLOGY,44.96,%,41.0,51.0,44.96,44.96,%,41.0,51.0,NORMAL,,SCREENING,1,2025-04-26,-14
STUDY001,LB,STUDY001-SUBJ0010,3,L00003,WBC,White Blood Cell Count,HEMATOLOGY,6.06,10^9/L,4.5,11.0,6.06,6.06,10^9/L,4.5,11.0,NORMAL,,SCREENING,1,2025-04-26,-14
STUDY001,LB,STUDY001-SUBJ0010,4,L00004,PLT,Platelet Count,HEMATOLOGY,225.17,10^9/L,150.0,450.0,225.17,225.17,10^9/L,150.0,450.0,NORMAL,,SCREENING,1,2025-04-26,-14
STUDY001,LB,STUDY001-SUBJ0010,5,L00005,GLUC,Glucose,CHEMISTRY,68.83,mg/dL,70.0,100.0,68.83,68.83,mg/dL,70.0,100.0,LOW,,SCREENING,1,2025-04-26,-14
STUDY001,LB,STUDY001-SUBJ0010,6,L00006,BUN,Blood Urea Nitrogen,CHEMISTRY,10.54,mg/dL,7.0,20.0,10.54,10.54,mg/dL,7.0,20.0,NORMAL,,SCREENING,1,2025-04-26,-14
STUDY001,LB,STUDY001-SUBJ0010,7,L00007,CREAT,Creatinine,CHEMISTRY,0.93,mg/dL,0.6,1.2,0.93,0.93,mg/dL,0.6,1.2,NORMAL,,SCREENING,1,2025-04-26,-14
STUDY001,LB,STUDY001-SUBJ0010,8,L00008,BILI,Total Bilirubin,CHEMISTRY,0.5,mg/dL,0.1,1.2,0.5,0.5,mg/dL,0.1,1.2,NORMAL,,SCREENING,1,2025-04-26,-14
STUDY001,LB,STUDY001-SUBJ0010,9,L00009,ALP,Alkaline Phosphatase,CHEMISTRY,92.21,U/L,44.0,147.0,92.21,92.21,U/L,44.0,147.0,NORMAL,,SCREENING,1,2025-04-26,-14
STUDY001,LB,STUDY001-SUBJ0010,10,L00010,ALT,Alanine Aminotransferase,CHEMISTRY,25.95,U/L,7.0,56.0,25.95,25.95,U/L,7.0,56.0,NORMAL,,SCREENING,1,2025-04-26,-14
STUDY001,LB,STUDY001-SUBJ0010,11,L00011,HGB,Hemoglobin,HEMATOLOGY,13.26,g/dL,13.5,17.5,13.26,13.26,g/dL,13.5,17.5,LOW,Y,BASELINE,2,2025-05-10,1
STUDY001,LB,STUDY001-SUBJ0010,12,L00012,HCT,Hematocrit,HEMATOLOGY,44.61,%,41.0,51.0,44.61,44.61,%,41.0,51.0,NORMAL,Y,BASELINE,2,2025-05-10,1
STUDY001,LB,STUDY001-SUBJ0010,13,L00013,WBC,White Blood Cell Count,HEMATOLOGY,5.73,10^9/L,4.5,11.0,5.73,5.73,10^9/L,4.5,11.0,NORMAL,Y,BASELINE,2,2025-05-10,1
STUDY001,LB,STUDY001-SUBJ0010,14,L00014,PLT,Platelet Count,HEMATOLOGY,226.68,10^9/L,150.0,450.0,226.68,226.68,10^9/L,150.0,450.0,NORMAL,Y,BASELINE,2,2025-05-10,1
STUDY001,LB,STUDY001-SUBJ0010,15,L00015,GLUC,Glucose,CHEMISTRY,66.39,mg/dL,70.0,100.0,66.39,66.39,mg/dL,70.0,100.0,LOW,Y,BASELINE,2,2025-05-10,1
STUDY001,LB,STUDY001-SUBJ0010,16,L00016,BUN,Blood Urea Nitrogen,CHEMISTRY,11.03,mg/dL,7.0,20.0,11.03,11.03,mg/dL,7.0,20.0,NORMAL,Y,BASELINE,2,2025-05-10,1
STUDY001,LB,STUDY001-SUBJ0010,17,L00017,CREAT,Creatinine,CHEMISTRY,0.93,mg/dL,0.6,1.2,0.93,0.93,mg/dL,0.6,1.2,NORMAL,Y,BASELINE,2,2025-05-10,1
STUDY001,LB,STUDY001-SUBJ0010,18,L00018,BILI,Total Bilirubin,CHEMISTRY,0.54,mg/dL,0.1,1.2,0.54,0.54,mg/dL,0.1,1.2,NORMAL,Y,BASELINE,2,2025-05-10,1
STUDY001,LB,STUDY001-SUBJ0010,19,L00019,ALP,Alkaline Phosphatase,CHEMISTRY,94.99,U/L,44.0,147.0,94.99,94.99,U/L,44.0,147.0,NORMAL,Y,BASELINE,2,2025-05-10,1
STUDY001,LB,STUDY001-SUBJ0010,20,L00020,ALT,Alanine Aminotransferase,CHEMISTRY,27.17,U/L,7.0,56.0,27.17,27.17,U/L,7.0,56.0,NORMAL,Y,BASELINE,2,2025-05-10,1
STUDY001,LB,STUDY001-SUBJ0010,21,L00021,HGB,Hemoglobin,HEMATOLOGY,13.31,g/dL,13.5,17.5,13.31,13.31,g/dL,13.5,17.5,LOW,,WEEK 1,3,2025-05-16,7
STUDY001,LB,STUDY001-SUBJ0010,22,L00022,HCT,Hematocrit,HEMATOLOGY,45.17,%,41.0,51.0,45.17,45.17,%,41.0,51.0,NORMAL,,WEEK 1,3,2025-05-16,7
STUDY001,LB,STUDY001-SUBJ0010,23,L00023,WBC,White Blood Cell Count,HEMATOLOGY,5.65,10^9/L,4.5,11.0,5.65,5.65,10^9/L,4.5,11.0,NORMAL,,WEEK 1,3,2025-05-16,7
STUDY001,LB,STUDY001-SUBJ0010,24,L00024,PLT,Platelet Count,HEMATOLOGY,231.21,10^9/L,150.0,450.0,231.21,231.21,10^9/L,150.0,450.0,NORMAL,,WEEK 1,3,2025-05-16,7
STUDY001,LB,STUDY001-SUBJ0010,25,L00025,GLUC,Glucose,CHEMISTRY,66.19,mg/dL,70.0,100.0,66.19,66.19,mg/dL,70.0,100.0,LOW,,WEEK 1,3,2025-05-16,7
STUDY001,LB,STUDY001-SUBJ0010,26,L00026,BUN,Blood Urea Nitrogen,CHEMISTRY,11.47,mg/dL,7.0,20.0,11.47,11.47,mg/dL,7.0,20.0,NORMAL,,WEEK 1,3,2025-05-16,7
STUDY001,LB,STUDY001-SUBJ0010,27,L00027,CREAT,Creatinine,CHEMISTRY,0.93,mg/dL,0.6,1.2,0.93,0.93,mg/dL,0.6,1.2,NORMAL,,WEEK 1,3,2025-05-16,7
STUDY001,LB,STUDY001-SUBJ0010,28,L00028,BILI,Total Bilirubin,CHEMISTRY,0.54,mg/dL,0.1,1.2,0.54,0.54,mg/dL,0.1,1.2,NORMAL,,WEEK 1,3,2025-05-16,7
STUDY001,LB,STUDY001-SUBJ0010,29,L00029,ALP,Alkaline Phosphatase,CHEMISTRY,95.69,U/L,44.0,147.0,95.69,95.69,U/L,44.0,147.0,NORMAL,,WEEK 1,3,2025-05-16,7
STUDY001,LB,STUDY001-SUBJ0010,30,L00030,ALT,Alanine Aminotransferase,CHEMISTRY,27.67,U/L,7.0,56.0,27.67,27.67,U/L,7.0,56.0,NORMAL,,WEEK 1,3,2025-05-16,7
STUDY001,LB,STUDY001-SUBJ0010,31,L00031,HGB,Hemoglobin,HEMATOLOGY,13.27,g/dL,13.5,17.5,13.27,13.27,g/dL,13.5,17.5,LOW,,WEEK 2,4,2025-05-23,14
STUDY001,LB,STUDY001-SUBJ0010,32,L00032,HCT,Hematocrit,HEMATOLOGY,44.97,%,41.0,51.0,44.97,44.97,%,41.0,51.0,NORMAL,,WEEK 2,4,2025-05-23,14
STUDY001,LB,STUDY001-SUBJ0010,33,L00033,WBC,White Blood Cell Count,HEMATOLOGY,5.59,10^9/L,4.5,11.0,5.59,5.59,10^9/L,4.5,11.0,NORMAL,,WEEK 2,4,2025-05-23,14
STUDY001,LB,STUDY001-SUBJ0010,34,L00034,PLT,Platelet Count,HEMATOLOGY,231.65,10^9/L,150.0,450.0,231.65,231.65,10^9/L,150.0,450.0,NORMAL,,WEEK 2,4,2025-05-23,14
STUDY001,LB,STUDY001-SUBJ0010,35,L00035,GLUC,Glucose,CHEMISTRY,69.57,mg/dL,70.0,100.0,69.57,69.57,mg/dL,70.0,100.0,LOW,,WEEK 2,4,2025-05-23,14
STUDY001,LB,STUDY001-SUBJ0010,36,L00036,BUN,Blood Urea Nitrogen,CHEMISTRY,11.31,mg/dL,7.0,20.0,11.31,11.31,mg/dL,7.0,20.0,NORMAL,,WEEK 2,4,2025-05-23,14
STUDY001,LB,STUDY001-SUBJ0010,37,L00037,CREAT,Creatinine,CHEMISTRY,0.91,mg/dL,0.6,1.2,0.91,0.91,mg/dL,0.6,1.2,NORMAL,,WEEK 2,4,2025-05-23,14
STUDY001,LB,STUDY001-SUBJ0010,38,L00038,BILI,Total Bilirubin,CHEMISTRY,0.53,mg/dL,0.1,1.2,0.53,0.53,mg/dL,0.1,1.2,NORMAL,,WEEK 2,4,2025-05-23,14
STUDY001,LB,STUDY001-SUBJ0010,39,L00039,ALP,Alkaline Phosphatase,CHEMISTRY,93.93,U/L,44.0,147.0,93.93,93.93,U/L,44.0,147.0,NORMAL,,WEEK 2,4,2025-05-23,14
STUDY001,LB,STUDY001-SUBJ0010,40,L00040,ALT,Alanine Aminotransferase,CHEMISTRY,25.52,U/L,7.0,56.0,25.52,25.52,U/L,7.0,56.0,NORMAL,,WEEK 2,4,2025-05-23,14
STUDY001,LB,STUDY001-SUBJ0010,41,L00041,HGB,Hemoglobin,HEMATOLOGY,13.27,g/dL,13.5,17.5,13.27,13.27,g/dL,13.5,17.5,LOW,,WEEK 4,5,2025-06-06,28
STUDY001,LB,STUDY001-SUBJ0010,42,L00042,HCT,Hematocrit,HEMATOLOGY,44.75,%,41.0,51.0,44.75,44.75,%,41.0,51.0,NORMAL,,WEEK 4,5,2025-06-06,28
STUDY001,LB,STUDY001-SUBJ0010,43,L00043,WBC,White Blood Cell Count,HEMATOLOGY,5.46,10^9/L,4.5,11.0,5.46,5.46,10^9/L,4.5,11.0,NORMAL,,WEEK 4,5,2025-06-06,28
STUDY001,LB,STUDY001-SUBJ0010,44,L00044,PLT,Platelet Count,HEMATOLOGY,221.45,10^9/L,150.0,450.0,221.45,221.45,10^9/L,150.0,450.0,NORMAL,,WEEK 4,5,2025-06-06,28
STUDY001,LB,STUDY001-SUBJ0010,45,L00045,GLUC,Glucose,CHEMISTRY,67.69,mg/dL,70.0,100.0,67.69,67.69,mg/dL,70.0,100.0,LOW,,WEEK 4,5,2025-06-06,28
STUDY001,LB,STUDY001-SUBJ0010,46,L00046,BUN,Blood Urea Nitrogen,CHEMISTRY,11.14,mg/dL,7.0,20.0,11.14,11.14,mg/dL,7.0,20.0,NORMAL,,WEEK 4,5,2025-06-06,28
STUDY001,LB,STUDY001-SUBJ0010,47,L00047,CREAT,Creatinine,CHEMISTRY,0.91,mg/dL,0.6,1.2,0.91,0.91,mg/dL,0.6,1.2,NORMAL,,WEEK 4,5,2025-06-06,28
STUDY001,LB,STUDY001-SUBJ0010,48,L00048,BILI,Total Bilirubin,CHEMISTRY,0.51,mg/dL,0.1,1.2,0.51,0.51,mg/dL,0.1,1.2,NORMAL,,WEEK 4,5,2025-06-06,28
STUDY001,LB,STUDY001-SUBJ0010,49,L00049,ALP,Alkaline Phosphatase,CHEMISTRY,92.75,U/L,44.0,147.0,92.75,92.75,U/L,44.0,147.0,NORMAL,,WEEK 4,5,2025-06-06,28
STUDY001,LB,STUDY001-SUBJ0010,50,L00050,ALT,Alanine Aminotransferase,CHEMISTRY,25.3,U/L,7.0,56.0,25.3,25.3,U/L,7.0,56.0,NORMAL,,WEEK 4,5,2025-06-06,28
STUDY001,LB,STUDY001-SUBJ0010,51,L00051,HGB,Hemoglobin,HEMATOLOGY,13.26,g/dL,13.5,17.5,13.26,13.26,g/dL,13.5,17.5,LOW,,WEEK 8,6,2025-07-04,56
STUDY001,LB,STUDY001-SUBJ0010,52,L00052,HCT,Hematocrit,HEMATOLOGY,44.96,%,41.0,51.0,44.96,44.96,%,41.0,51.0,NORMAL,,WEEK 8,6,2025-07-04,56
STUDY001,LB,STUDY001-SUBJ0010,53,L00053,WBC,White Blood Cell Count,HEMATOLOGY,5.69,10^9/L,4.5,11.0,5.69,5.69,10^9/L,4.5,11.0,NORMAL,,WEEK 8,6,2025-07-04,56
STUDY001,LB,STUDY001-SUBJ0010,54,L00054,PLT,Platelet Count,HEMATOLOGY,219.74,10^9/L,150.0,450.0,219.74,219.74,10^9/L,150.0,450.0,NORMAL,,WEEK 8,6,2025-07-04,56
STUDY001,LB,STUDY001-SUBJ0010,55,L00055,GLUC,Glucose,CHEMISTRY,66.14,mg/dL,70.0,100.0,66.14,66.14,mg/dL,70.0,100.0,LOW,,WEEK 8,6,2025-07-04,56
STUDY001,LB,STUDY001-SUBJ0010,56,L00056,BUN,Blood Urea Nitrogen,CHEMISTRY,11.2,mg/dL,7.0,20.0,11.2,11.2,mg/dL,7.0,20.0,NORMAL,,WEEK 8,6,2025-07-04,56
STUDY001,LB,STUDY001-SUBJ0010,57,L00057,CREAT,Creatinine,CHEMISTRY,0.9,mg/dL,0.6,1.2,0.9,0.9,mg/dL,0.6,1.2,NORMAL,,WEEK 8,6,2025-07-04,56
STUDY001,LB,STUDY001-SUBJ0010,58,L00058,BILI,Total Bilirubin,CHEMISTRY,0.54,mg/dL,0.1,1.2,0.54,0.54,mg/dL,0.1,1.2,NORMAL,,WEEK 8,6,2025-07-04,56
STUDY001,LB,STUDY001-SUBJ0010,59,L00059,ALP,Alkaline Phosphatase,CHEMISTRY,96.47,U/L,44.0,147.0,96.47,96.47,U/L,44.0,147.0,NORMAL,,WEEK 8,6,2025-07-04,56
STUDY001,LB,STUDY001-SUBJ0010,60,L00060,ALT,Alanine Aminotransferase,CHEMISTRY,25.71,U/L,7.0,56.0,25.71,25.71,U/L,7.0,56.0,NORMAL,,WEEK 8,6,2025-07-04,56
STUDY001,LB,STUDY001-SUBJ0010,61,L00061,HGB,Hemoglobin,HEMATOLOGY,13.16,g/dL,13.5,17.5,13.16,13.16,g/dL,13.5,17.5,LOW,,WEEK 12,7,2025-08-01,84
STUDY001,LB,STUDY001-SUBJ0010,62,L00062,HCT,Hematocrit,HEMATOLOGY,45.02,%,41.0,51.0,45.02,45.02,%,41.0,51.0,NORMAL,,WEEK 12,7,2025-08-01,84
STUDY001,LB,STUDY001-SUBJ0010,63,L00063,WBC,White Blood Cell Count,HEMATOLOGY,5.43,10^9/L,4.5,11.0,5.43,5.43,10^9/L,4.5,11.0,NORMAL,,WEEK 12,7,2025-08-01,84
STUDY001,LB,STUDY001-SUBJ0010,64,L00064,PLT,Platelet Count,HEMATOLOGY,232.87,10^9/L,150.0,450.0,232.87,232.87,10^9/L,150.0,450.0,NORMAL,,WEEK 12,7,2025-08-01,84
STUDY001,LB,STUDY001-SUBJ0010,65,L00065,GLUC,Glucose,CHEMISTRY,67.44,mg/dL,70.0,100.0,67.44,67.44,mg/dL,70.0,100.0,LOW,,WEEK 12,7,2025-08-01,84
STUDY001,LB,STUDY001-SUBJ0010,66,L00066,BUN,Blood Urea Nitrogen,CHEMISTRY,11.46,mg/dL,7.0,20.0,11.46,11.46,mg/dL,7.0,20.0,NORMAL,,WEEK 12,7,2025-08-01,84
STUDY001,LB,STUDY001-SUBJ0010,67,L00067,CREAT,Creatinine,CHEMISTRY,0.91,mg/dL,0.6,1.2,0.91,0.91,mg/dL,0.6,1.2,NORMAL,,WEEK 12,7,2025-08-01,84
STUDY001,LB,STUDY001-SUBJ0010,68,L00068,BILI,Total Bilirubin,CHEMISTRY,0.51,mg/dL,0.1,1.2,0.51,0.51,mg/dL,0.1,1.2,NORMAL,,WEEK 12,7,2025-08-01,84
STUDY001,LB,STUDY001-SUBJ0010,69,L00069,ALP,Alkaline Phosphatase,CHEMISTRY,96.16,U/L,44.0,147.0,96.16,96.16,U/L,44.0,147.0,NORMAL,,WEEK 12,7,2025-08-01,84
STUDY001,LB,STUDY001-SUBJ0010,70,L00070,ALT,Alanine Aminotransferase,CHEMISTRY,23.61,U/L,7.0,56.0,23.61,23.61,U/L,7.0,56.0,NORMAL,,WEEK 12,7,2025-08-01,84
STUDY001,LB,STUDY001-SUBJ0010,71,L00071,HGB,Hemoglobin,HEMATOLOGY,13.24,g/dL,13.5,17.5,13.24,13.24,g/dL,13.5,17.5,LOW,,WEEK 16,8,2025-08-29,112
STUDY001,LB,STUDY001-SUBJ0010,72,L00072,HCT,Hematocrit,HEMATOLOGY,45.03,%,41.0,51.0,45.03,45.03,%,41.0,51.0,NORMAL,,WEEK 16,8,2025-08-29,112
STUDY001,LB,STUDY001-SUBJ0010,73,L00073,WBC,White Blood Cell Count,HEMATOLOGY,5.4,10^9/L,4.5,11.0,5.4,5.4,10^9/L,4.5,11.0,NORMAL,,WEEK 16,8,2025-08-29,112
STUDY001,LB,STUDY001-SUBJ0010,74,L00074,PLT,Platelet Count,HEMATOLOGY,227.03,10^9/L,150.0,450.0,227.03,227.03,10^9/L,150.0,450.0,NORMAL,,WEEK 16,8,2025-08-29,112
STUDY001,LB,STUDY001-SUBJ0010,75,L00075,GLUC,Glucose,CHEMISTRY,67.9,mg/dL,70.0,100.0,67.9,67.9,mg/dL,70.0,100.0,LOW,,WEEK 16,8,2025-08-29,112
STUDY001,LB,STUDY001-SUBJ0010,76,L00076,BUN,Blood Urea Nitrogen,CHEMISTRY,11.17,mg/dL,7.0,20.0,11.17,11.17,mg/dL,7.0,20.0,NORMAL,,WEEK 16,8,2025-08-29,112
STUDY001,LB,STUDY001-SUBJ0010,77,L00077,CREAT,Creatinine,CHEMISTRY,0.92,mg/dL,0.6,1.2,0.92,0.92,mg/dL,0.6,1.2,NORMAL,,WEEK 16,8,2025-08-29,112
STUDY001,LB,STUDY001-SUBJ0010,78,L00078,BILI,Total Bilirubin,CHEMISTRY,0.53,mg/dL,0.1,1.2,0.53,0.53,mg/dL,0.1,1.2,NORMAL,,WEEK 16,8,2025-08-29,112
STUDY001,LB,STUDY001-SUBJ0010,79,L00079,ALP,Alkaline Phosphatase,CHEMISTRY,93.6,U/L,44.0,147.0,93.6,93.6,U/L,44.0,147.0,NORMAL,,WEEK 16,8,2025-08-29,112
STUDY001,LB,STUDY001-SUBJ0010,80,L00080,ALT,Alanine Aminotransferase,CHEMISTRY,27.47,U/L,7.0,56.0,27.47,27.47,U/L,7.0,56.0,NORMAL,,WEEK 16,8,2025-08-29,112
STUDY001,LB,STUDY001-SUBJ0010,81,L00081,HGB,Hemoglobin,HEMATOLOGY,13.2,g/dL,13.5,17.5,13.2,13.2,g/dL,13.5,17.5,LOW,,END OF TREATMENT,9,2025-09-26,140
STUDY001,LB,STUDY001-SUBJ0010,82,L00082,HCT,Hematocrit,HEMATOLOGY,44.71,%,41.0,51.0,44.71,44.71,%,41.0,51.0,NORMAL,,END OF TREATMENT,9,2025-09-26,140
STUDY001,LB,STUDY001-SUBJ0010,83,L00083,WBC,White Blood Cell Count,HEMATOLOGY,5.6,10^9/L,4.5,11.0,5.6,5.6,10^9/L,4.5,11.0,NORMAL,,END OF TREATMENT,9,2025-09-26,140
STUDY001,LB,STUDY001-SUBJ0010,84,L00084,PLT,Platelet Count,HEMATOLOGY,230.87,10^9/L,150.0,450.0,230.87,230.87,10^9/L,150.0,450.0,NORMAL,,END OF TREATMENT,9,2025-09-26,140
STUDY001,LB,STUDY001-SUBJ0010,85,L00085,GLUC,Glucose,CHEMISTRY,67.25,mg/dL,70.0,100.0,67.25,67.25,mg/dL,70.0,100.0,LOW,,END OF TREATMENT,9,2025-09-26,140
STUDY001,LB,STUDY001-SUBJ0010,86,L00086,BUN,Blood Urea Nitrogen,CHEMISTRY,11.18,mg/dL,7.0,20.0,11.18,11.18,mg/dL,7.0,20.0,NORMAL,,END OF TREATMENT,9,2025-09-26,140
STUDY001,LB,STUDY001-SUBJ0010,87,L00087,CREAT,Creatinine,CHEMISTRY,0.92,mg/dL,0.6,1.2,0.92,0.92,mg/dL,0.6,1.2,NORMAL,,END OF TREATMENT,9,2025-09-26,140
STUDY001,LB,STUDY001-SUBJ0010,88,L00088,BILI,Total Bilirubin,CHEMISTRY,0.5,mg/dL,0.1,1.2,0.5,0.5,mg/dL,0.1,1.2,NORMAL,,END OF TREATMENT,9,2025-09-26,140
STUDY001,LB,STUDY001-SUBJ0010,89,L00089,ALP,Alkaline Phosphatase,CHEMISTRY,97.72,U/L,44.0,147.0,97.72,97.72,U/L,44.0,147.0,NORMAL,,END OF TREATMENT,9,2025-09-26,140
STUDY001,LB,STUDY001-SUBJ0010,90,L00090,ALT,Alanine Aminotransferase,CHEMISTRY,23.9,U/L,7.0,56.0,23.9,23.9,U/L,7.0,56.0,NORMAL,,END OF TREATMENT,9,2025-09-26,140
