STUDYID,DOMAIN,USUBJID,LBSEQ,LBREFID,LBTESTCD,LBTEST,LBCAT,LBORRES,LBORRESU,LBORNRLO,LBORNRHI,LBSTRESC,LBSTRESN,LBSTRESU,LBSTNRLO,LBSTNRHI,LBNRIND,LBBLFL,VISIT,VISITNUM,LBDTC,LBDY
STUDY001,LB,STUDY001-SUBJ0001,1,L00001,HGB,Hemoglobin,HEMATOLOGY,14.65,g/dL,13.5,17.5,14.65,14.65,g/dL,13.5,17.5,NORMAL,,SCREENING,1,2025-07-01,-14
STUDY001,LB,STUDY001-SUBJ0001,2,L00002,HCT,Hematocrit,HEMATOLOGY,52.22,%,41.0,51.0,52.22,52.22,%,41.0,51.0,HIGH,,SCREENING,1,2025-07-01,-14
STUDY001,LB,STUDY001-SUBJ0001,3,L00003,WBC,White Blood Cell Count,HEMATOLOGY,5.01,10^9/L,4.5,11.0,5.01,5.01,10^9/L,4.5,11.0,NORMAL,,SCREENING,1,2025-07-01,-14
STUDY001,LB,STUDY001-SUBJ0001,4,L00004,PLT,Platelet Count,HEMATOLOGY,307.09,10^9/L,150.0,450.0,307.09,307.09,10^9/L,150.0,450.0,NORMAL,,SCREENING,1,2025-07-01,-14
STUDY001,LB,STUDY001-SUBJ0001,5,L00005,GLUC,Glucose,CHEMISTRY,78.37,mg/dL,70.0,100.0,78.37,78.37,mg/dL,70.0,100.0,NORMAL,,SCREENING,1,2025-07-01,-14
STUDY001,LB,STUDY001-SUBJ0001,6,L00006,BUN,Blood Urea Nitrogen,CHEMISTRY,15.07,mg/dL,7.0,20.0,15.07,15.07,mg/dL,7.0,20.0,NORMAL,,SCREENING,1,2025-07-01,-14
STUDY001,LB,STUDY001-SUBJ0001,7,L00007,CREAT,Creatinine,CHEMISTRY,1.0,mg/dL,0.6,1.2,1.0,1.0,mg/dL,0.6,1.2,NORMAL,,SCREENING,1,2025-07-01,-14
STUDY001,LB,STUDY001-SUBJ0001,8,L00008,BILI,Total Bilirubin,CHEMISTRY,0.69,mg/dL,0.1,1.2,0.69,0.69,mg/dL,0.1,1.2,NORMAL,,SCREENING,1,2025-07-01,-14
STUDY001,LB,STUDY001-SUBJ0001,9,L00009,ALP,Alkaline Phosphatase,CHEMISTRY,83.94,U/L,44.0,147.0,83.94,83.94,U/L,44.0,147.0,NORMAL,,SCREENING,1,2025-07-01,-14
STUDY001,LB,STUDY001-SUBJ0001,10,L00010,ALT,Alanine Aminotransferase,CHEMISTRY,41.69,U/L,7.0,56.0,41.69,41.69,U/L,7.0,56.0,NORMAL,,SCREENING,1,2025-07-01,-14
STUDY001,LB,STUDY001-SUBJ0001,11,L00011,HGB,Hemoglobin,HEMATOLOGY,14.86,g/dL,13.5,17.5,14.86,14.86,g/dL,13.5,17.5,NORMAL,Y,BASELINE,2,2025-07-15,1
STUDY001,LB,STUDY001-SUBJ0001,12,L00012,HCT,Hematocrit,HEMATOLOGY,52.53,%,41.0,51.0,52.53,52.53,%,41.0,51.0,HIGH,Y,BASELINE,2,2025-07-15,1
STUDY001,LB,STUDY001-SUBJ0001,13,L00013,WBC,White Blood Cell Count,HEMATOLOGY,5.01,10^9/L,4.5,11.0,5.01,5.01,10^9/L,4.5,11.0,NORMAL,Y,BASELINE,2,2025-07-15,1
STUDY001,LB,STUDY001-SUBJ0001,14,L00014,PLT,Platelet Count,HEMATOLOGY,305.74,10^9/L,150.0,450.0,305.74,305.74,10^9/L,150.0,450.0,NORMAL,Y,BASELINE,2,2025-07-15,1
STUDY001,LB,STUDY001-SUBJ0001,15,L00015,GLUC,Glucose,CHEMISTRY,77.75,mg/dL,70.0,100.0,77.75,77.75,mg/dL,70.0,100.0,NORMAL,Y,BASELINE,2,2025-07-15,1
STUDY001,LB,STUDY001-SUBJ0001,16,L00016,BUN,Blood Urea Nitrogen,CHEMISTRY,15.05,mg/dL,7.0,20.0,15.05,15.05,mg/dL,7.0,20.0,NORMAL,Y,BASELINE,2,2025-07-15,1
STUDY001,LB,STUDY001-SUBJ0001,17,L00017,CREAT,Creatinine,CHEMISTRY,1.0,mg/dL,0.6,1.2,1.0,1.0,mg/dL,0.6,1.2,NORMAL,Y,BASELINE,2,2025-07-15,1
STUDY001,LB,STUDY001-SUBJ0001,18,L00018,BILI,Total Bilirubin,CHEMISTRY,0.64,mg/dL,0.1,1.2,0.64,0.64,mg/dL,0.1,1.2,NORMAL,Y,BASELINE,2,2025-07-15,1
STUDY001,LB,STUDY001-SUBJ0001,19,L00019,ALP,Alkaline Phosphatase,CHEMISTRY,84.3,U/L,44.0,147.0,84.3,84.3,U/L,44.0,147.0,NORMAL,Y,BASELINE,2,2025-07-15,1
STUDY001,LB,STUDY001-SUBJ0001,20,L00020,ALT,Alanine Aminotransferase,CHEMISTRY,39.26,U/L,7.0,56.0,39.26,39.26,U/L,7.0,56.0,NORMAL,Y,BASELINE,2,2025-07-15,1
STUDY001,LB,STUDY001-SUBJ0001,21,L00021,HGB,Hemoglobin,HEMATOLOGY,14.87,g/dL,13.5,17.5,14.87,14.87,g/dL,13.5,17.5,NORMAL,,WEEK 1,3,2025-07-21,7
STUDY001,LB,STUDY001-SUBJ0001,22,L00022,HCT,Hematocrit,HEMATOLOGY,52.87,%,41.0,51.0,52.87,52.87,%,41.0,51.0,HIGH,,WEEK 1,3,2025-07-21,7
STUDY001,LB,STUDY001-SUBJ0001,23,L00023,WBC,White Blood Cell Count,HEMATOLOGY,4.98,10^9/L,4.5,11.0,4.98,4.98,10^9/L,4.5,11.0,NORMAL,,WEEK 1,3,2025-07-21,7
STUDY001,LB,STUDY001-SUBJ0001,24,L00024,PLT,Platelet Count,HEMATOLOGY,295.41,10^9/L,150.0,450.0,295.41,295.41,10^9/L,150.0,450.0,NORMAL,,WEEK 1,3,2025-07-21,7
STUDY001,LB,STUDY001-SUBJ0001,25,L00025,GLUC,Glucose,CHEMISTRY,79.01,mg/dL,70.0,100.0,79.01,79.01,mg/dL,70.0,100.0,NORMAL,,WEEK 1,3,2025-07-21,7
STUDY001,LB,STUDY001-SUBJ0001,26,L00026,BUN,Blood Urea Nitrogen,CHEMISTRY,15.56,mg/dL,7.0,20.0,15.56,15.56,mg/dL,7.0,20.0,NORMAL,,WEEK 1,3,2025-07-21,7
STUDY001,LB,STUDY001-SUBJ0001,27,L00027,CREAT,Creatinine,CHEMISTRY,1.0,mg/dL,0.6,1.2,1.0,1.0,mg/dL,0.6,1.2,NORMAL,,WEEK 1,3,2025-07-21,7
STUDY001,LB,STUDY001-SUBJ0001,28,L00028,BILI,Total Bilirubin,CHEMISTRY,0.66,mg/dL,0.1,1.2,0.66,0.66,mg/dL,0.1,1.2,NORMAL,,WEEK 1,3,2025-07-21,7
STUDY001,LB,STUDY001-SUBJ0001,29,L00029,ALP,Alkaline Phosphatase,CHEMISTRY,88.72,U/L,44.0,147.0,88.72,88.72,U/L,44.0,147.0,NORMAL,,WEEK 1,3,2025-07-21,7
STUDY001,LB,STUDY001-SUBJ0001,30,L00030,ALT,Alanine Aminotransferase,CHEMISTRY,39.65,U/L,7.0,56.0,39.65,39.65,U/L,7.0,56.0,NORMAL,,WEEK 1,3,2025-07-21,7
STUDY001,LB,STUDY001-SUBJ0001,31,L00031,HGB,Hemoglobin,HEMATOLOGY,15.02,g/dL,13.5,17.5,15.02,15.02,g/dL,13.5,17.5,NORMAL,,WEEK 2,4,2025-07-28,14
STUDY001,LB,STUDY001-SUBJ0001,32,L00032,HCT,Hematocrit,HEMATOLOGY,52.7,%,41.0,51.0,52.7,52.7,%,41.0,51.0,HIGH,,WEEK 2,4,2025-07-28,14
STUDY001,LB,STUDY001-SUBJ0001,33,L00033,WBC,White Blood Cell Count,HEMATOLOGY,4.85,10^9/L,4.5,11.0,4.85,4.85,10^9/L,4.5,11.0,NORMAL,,WEEK 2,4,2025-07-28,14
STUDY001,LB,STUDY001-SUBJ0001,34,L00034,PLT,Platelet Count,HEMATOLOGY,310.58,10^9/L,150.0,450.0,310.58,310.58,10^9/L,150.0,450.0,NORMAL,,WEEK 2,4,2025-07-28,14
STUDY001,LB,STUDY001-SUBJ0001,35,L00035,GLUC,Glucose,CHEMISTRY,79.99,mg/dL,70.0,100.0,79.99,79.99,mg/dL,70.0,100.0,NORMAL,,WEEK 2,4,2025-07-28,14
STUDY001,LB,STUDY001-SUBJ0001,36,L00036,BUN,Blood Urea Nitrogen,CHEMISTRY,15.0,mg/dL,7.0,20.0,15.0,15.0,mg/dL,7.0,20.0,NORMAL,,WEEK 2,4,2025-07-28,14
STUDY001,LB,STUDY001-SUBJ0001,37,L00037,CREAT,Creatinine,CHEMISTRY,0.96,mg/dL,0.6,1.2,0.96,0.96,mg/dL,0.6,1.2,NORMAL,,WEEK 2,4,2025-07-28,14
STUDY001,LB,STUDY001-SUBJ0001,38,L00038,BILI,Total Bilirubin,CHEMISTRY,0.64,mg/dL,0.1,1.2,0.64,0.64,mg/dL,0.1,1.2,NORMAL,,WEEK 2,4,2025-07-28,14
STUDY001,LB,STUDY001-SUBJ0001,39,L00039,ALP,Alkaline Phosphatase,CHEMISTRY,83.87,U/L,44.0,147.0,83.87,83.87,U/L,44.0,147.0,NORMAL,,WEEK 2,4,2025-07-28,14
STUDY001,LB,STUDY001-SUBJ0001,40,L00040,ALT,Alanine Aminotransferase,CHEMISTRY,38.62,U/L,7.0,56.0,38.62,38.62,U/L,7.0,56.0,NORMAL,,WEEK 2,4,2025-07-28,14
STUDY001,LB,STUDY001-SUBJ0001,41,L00041,HGB,Hemoglobin,HEMATOLOGY,14.93,g/dL,13.5,17.5,14.93,14.93,g/dL,13.5,17.5,NORMAL,,WEEK 4,5,2025-08-11,28
STUDY001,LB,STUDY001-SUBJ0001,42,L00042,HCT,Hematocrit,HEMATOLOGY,52.47,%,41.0,51.0,52.47,52.47,%,41.0,51.0,HIGH,,WEEK 4,5,2025-08-11,28
STUDY001,LB,STUDY001-SUBJ0001,43,L00043,WBC,White Blood Cell Count,HEMATOLOGY,4.73,10^9/L,4.5,11.0,4.73,4.73,10^9/L,4.5,11.0,NORMAL,,WEEK 4,5,2025-08-11,28
STUDY001,LB,STUDY001-SUBJ0001,44,L00044,PLT,Platelet Count,HEMATOLOGY,301.69,10^9/L,150.0,450.0,301.69,301.69,10^9/L,150.0,450.0,NORMAL,,WEEK 4,5,2025-08-11,28
STUDY001,LB,STUDY001-SUBJ0001,45,L00045,GLUC,Glucose,CHEMISTRY,78.57,mg/dL,70.0,100.0,78.57,78.57,mg/dL,70.0,100.0,NORMAL,,WEEK 4,5,2025-08-11,28
STUDY001,LB,STUDY001-SUBJ0001,46,L00046,BUN,Blood Urea Nitrogen,CHEMISTRY,15.13,mg/dL,7.0,20.0,15.13,15.13,mg/dL,7.0,20.0,NORMAL,,WEEK 4,5,2025-08-11,28
STUDY001,LB,STUDY001-SUBJ0001,47,L00047,CREAT,Creatinine,CHEMISTRY,0.98,mg/dL,0.6,1.2,0.98,0.98,mg/dL,0.6,1.2,NORMAL,,WEEK 4,5,2025-08-11,28
STUDY001,LB,STUDY001-SUBJ0001,48,L00048,BILI,Total Bilirubin,CHEMISTRY,0.69,mg/dL,0.1,1.2,0.69,0.69,mg/dL,0.1,1.2,NORMAL,,WEEK 4,5,2025-08-11,28
STUDY001,LB,STUDY001-SUBJ0001,49,L00049,ALP,Alkaline Phosphatase,CHEMISTRY,87.01,U/L,44.0,147.0,87.01,87.01,U/L,44.0,147.0,NORMAL,,WEEK 4,5,2025-08-11,28
STUDY001,LB,STUDY001-SUBJ0001,50,L00050,ALT,Alanine Aminotransferase,CHEMISTRY,39.01,U/L,7.0,56.0,39.01,39.01,U/L,7.0,56.0,NORMAL,,WEEK 4,5,2025-08-11,28
STUDY001,LB,STUDY001-SUBJ0001,51,L00051,HGB,Hemoglobin,HEMATOLOGY,14.85,g/dL,13.5,17.5,14.85,14.85,g/dL,13.5,17.5,NORMAL,,WEEK 8,6,2025-09-08,56
STUDY001,LB,STUDY001-SUBJ0001,52,L00052,HCT,Hematocrit,HEMATOLOGY,52.31,%,41.0,51.0,52.31,52.31,%,41.0,51.0,HIGH,,WEEK 8,6,2025-09-08,56
STUDY001,LB,STUDY001-SUBJ0001,53,L00053,WBC,White Blood Cell Count,HEMATOLOGY,4.72,10^9/L,4.5,11.0,4.72,4.72,10^9/L,4.5,11.0,NORMAL,,WEEK 8,6,2025-09-08,56
STUDY001,LB,STUDY001-SUBJ0001,54,L00054,PLT,Platelet Count,HEMATOLOGY,306.14,10^9/L,150.0,450.0,306.14,306.14,10^9/L,150.0,450.0,NORMAL,,WEEK 8,6,2025-09-08,56
STUDY001,LB,STUDY001-SUBJ0001,55,L00055,GLUC,Glucose,CHEMISTRY,77.64,mg/dL,70.0,100.0,77.64,77.64,mg/dL,70.0,100.0,NORMAL,,WEEK 8,6,2025-09-08,56
STUDY001,LB,STUDY001-SUBJ0001,56,L00056,BUN,Blood Urea Nitrogen,CHEMISTRY,15.41,mg/dL,7.0,20.0,15.41,15.41,mg/dL,7.0,20.0,NORMAL,,WEEK 8,6,2025-09-08,56
STUDY001,LB,STUDY001-SUBJ0001,57,L00057,CREAT,Creatinine,CHEMISTRY,1.01,mg/dL,0.6,1.2,1.01,1.01,mg/dL,0.6,1.2,NORMAL,,WEEK 8,6,2025-09-08,56
STUDY001,LB,STUDY001-SUBJ0001,58,L00058,BILI,Total Bilirubin,CHEMISTRY,0.69,mg/dL,0.1,1.2,0.69,0.69,mg/dL,0.1,1.2,NORMAL,,WEEK 8,6,2025-09-08,56
STUDY001,LB,STUDY001-SUBJ0001,59,L00059,ALP,Alkaline Phosphatase,CHEMISTRY,90.8,U/L,44.0,147.0,90.8,90.8,U/L,44.0,147.0,NORMAL,,WEEK 8,6,2025-09-08,56
STUDY001,LB,STUDY001-SUBJ0001,60,L00060,ALT,Alanine Aminotransferase,CHEMISTRY,40.0,U/L,7.0,56.0,40.0,40.0,U/L,7.0,56.0,NORMAL,,WEEK 8,6,2025-09-08,56
STUDY001,LB,STUDY001-SUBJ0001,61,L00061,HGB,Hemoglobin,HEMATOLOGY,14.75,g/dL,13.5,17.5,14.75,14.75,g/dL,13.5,17.5,NORMAL,,WEEK 12,7,2025-10-06,84
STUDY001,LB,STUDY001-SUBJ0001,62,L00062,HCT,Hematocrit,HEMATOLOGY,52.35,%,41.0,51.0,52.35,52.35,%,41.0,51.0,HIGH,,WEEK 12,7,2025-10-06,84
STUDY001,LB,STUDY001-SUBJ0001,63,L00063,WBC,White Blood Cell Count,HEMATOLOGY,4.73,10^9/L,4.5,11.0,4.73,4.73,10^9/L,4.5,11.0,NORMAL,,WEEK 12,7,2025-10-06,84
STUDY001,LB,STUDY001-SUBJ0001,64,L00064,PLT,Platelet Count,HEMATOLOGY,306.98,10^9/L,150.0,450.0,306.98,306.98,10^9/L,150.0,450.0,NORMAL,,WEEK 12,7,2025-10-06,84
STUDY001,LB,STUDY001-SUBJ0001,65,L00065,GLUC,Glucose,CHEMISTRY,78.18,mg/dL,70.0,100.0,78.18,78.18,mg/dL,70.0,100.0,NORMAL,,WEEK 12,7,2025-10-06,84
STUDY001,LB,STUDY001-SUBJ0001,66,L00066,BUN,Blood Urea Nitrogen,CHEMISTRY,15.04,mg/dL,7.0,20.0,15.04,15.04,mg/dL,7.0,20.0,NORMAL,,WEEK 12,7,2025-10-06,84
STUDY001,LB,STUDY001-SUBJ0001,67,L00067,CREAT,Creatinine,CHEMISTRY,1.01,mg/dL,0.6,1.2,1.01,1.01,mg/dL,0.6,1.2,NORMAL,,WEEK 12,7,2025-10-06,84
STUDY001,LB,STUDY001-SUBJ0001,68,L00068,BILI,Total Bilirubin,CHEMISTRY,0.63,mg/dL,0.1,1.2,0.63,0.63,mg/dL,0.1,1.2,NORMAL,,WEEK 12,7,2025-10-06,84
STUDY001,LB,STUDY001-SUBJ0001,69,L00069,ALP,Alkaline Phosphatase,CHEMISTRY,86.47,U/L,44.0,147.0,86.47,86.47,U/L,44.0,147.0,NORMAL,,WEEK 12,7,2025-10-06,84
STUDY001,LB,STUDY001-SUBJ0001,70,L00070,ALT,Alanine Aminotransferase,CHEMISTRY,38.91,U/L,7.0,56.0,38.91,38.91,U/L,7.0,56.0,NORMAL,,WEEK 12,7,2025-10-06,84
STUDY001,LB,STUDY001-SUBJ0001,71,L00071,HGB,Hemoglobin,HEMATOLOGY,14.83,g/dL,13.5,17.5,14.83,14.83,g/dL,13.5,17.5,NORMAL,,WEEK 16,8,2025-11-03,112
STUDY001,LB,STUDY001-SUBJ0001,72,L00072,HCT,Hematocrit,HEMATOLOGY,52.24,%,41.0,51.0,52.24,52.24,%,41.0,51.0,HIGH,,WEEK 16,8,2025-11-03,112
STUDY001,LB,STUDY001-SUBJ0001,73,L00073,WBC,White Blood Cell Count,HEMATOLOGY,4.74,10^9/L,4.5,11.0,4.74,4.74,10^9/L,4.5,11.0,NORMAL,,WEEK 16,8,2025-11-03,112
STUDY001,LB,STUDY001-SUBJ0001,74,L00074,PLT,Platelet Count,HEMATOLOGY,306.31,10^9/L,150.0,450.0,306.31,306.31,10^9/L,150.0,450.0,NORMAL,,WEEK 16,8,2025-11-03,112
STUDY001,LB,STUDY001-SUBJ0001,75,L00075,GLUC,Glucose,CHEMISTRY,76.33,mg/dL,70.0,100.0,76.33,76.33,mg/dL,70.0,100.0,NORMAL,,WEEK 16,8,2025-11-03,112
STUDY001,LB,STUDY001-SUBJ0001,76,L00076,BUN,Blood Urea Nitrogen,CHEMISTRY,15.16,mg/dL,7.0,20.0,15.16,15.16,mg/dL,7.0,20.0,NORMAL,,WEEK 16,8,2025-11-03,112
STUDY001,LB,STUDY001-SUBJ0001,77,L00077,CREAT,Creatinine,CHEMISTRY,1.04,mg/dL,0.6,1.2,1.04,1.04,mg/dL,0.6,1.2,NORMAL,,WEEK 16,8,2025-11-03,112
STUDY001,LB,STUDY001-SUBJ0001,78,L00078,BILI,Total Bilirubin,CHEMISTRY,0.66,mg/dL,0.1,1.2,0.66,0.66,mg/dL,0.1,1.2,NORMAL,,WEEK 16,8,2025-11-03,112
STUDY001,LB,STUDY001-SUBJ0001,79,L00079,ALP,Alkaline Phosphatase,CHEMISTRY,87.11,U/L,44.0,147.0,87.11,87.11,U/L,44.0,147.0,NORMAL,,WEEK 16,8,2025-11-03,112
STUDY001,LB,STUDY001-SUBJ0001,80,L00080,ALT,Alanine Aminotransferase,CHEMISTRY,39.0,U/L,7.0,56.0,39.0,39.0,U/L,7.0,56.0,NORMAL,,WEEK 16,8,2025-11-03,112
STUDY001,LB,STUDY001-SUBJ0001,81,L00081,HGB,Hemoglobin,HEMATOLOGY,14.88,g/dL,13.5,17.5,14.88,14.88,g/dL,13.5,17.5,NORMAL,,END OF TREATMENT,9,2025-12-01,140
STUDY001,LB,STUDY001-SUBJ0001,82,L00082,HCT,Hematocrit,HEMATOLOGY,52.32,%,41.0,51.0,52.32,52.32,%,41.0,51.0,HIGH,,END OF TREATMENT,9,2025-12-01,140
STUDY001,LB,STUDY001-SUBJ0001,83,L00083,WBC,White Blood Cell Count,HEMATOLOGY,4.87,10^9/L,4.5,11.0,4.87,4.87,10^9/L,4.5,11.0,NORMAL,,END OF TREATMENT,9,2025-12-01,140
STUDY001,LB,STUDY001-SUBJ0001,84,L00084,PLT,Platelet Count,HEMATOLOGY,294.79,10^9/L,150.0,450.0,294.79,294.79,10^9/L,150.0,450.0,NORMAL,,END OF TREATMENT,9,2025-12-01,140
STUDY001,LB,STUDY001-SUBJ0001,85,L00085,GLUC,Glucose,CHEMISTRY,77.96,mg/dL,70.0,100.0,77.96,77.96,mg/dL,70.0,100.0,NORMAL,,END OF TREATMENT,9,2025-12-01,140
STUDY001,LB,STUDY001-SUBJ0001,86,L00086,BUN,Blood Urea Nitrogen,CHEMISTRY,15.2,mg/dL,7.0,20.0,15.2,15.2,mg/dL,7.0,20.0,NORMAL,,END OF TREATMENT,9,2025-12-01,140
STUDY001,LB,STUDY001-SUBJ0001,87,L00087,CREAT,Creatinine,CHEMISTRY,0.98,mg/dL,0.6,1.2,0.98,0.98,mg/dL,0.6,1.2,NORMAL,,END OF TREATMENT,9,2025-12-01,140
STUDY001,LB,STUDY001-SUBJ0001,88,L00088,BILI,Total Bilirubin,CHEMISTRY,0.68,mg/dL,0.1,1.2,0.68,0.68,mg/dL,0.1,1.2,NORMAL,,END OF TREATMENT,9,2025-12-01,140
STUDY001,LB,STUDY001-SUBJ0001,89,L00089,ALP,Alkaline Phosphatase,CHEMISTRY,86.66,U/L,44.0,147.0,86.66,86.66,U/L,44.0,147.0,NORMAL,,END OF TREATMENT,9,2025-12-01,140
STUDY001,LB,STUDY001-SUBJ0001,90,L00090,ALT,Alanine Aminotransferase,CHEMISTRY,38.85,U/L,7.0,56.0,38.85,38.85,U/L,7.0,56.0,NORMAL,,END OF TREATMENT,9,2025-12-01,140
STUDY001,LB,STUDY001-SUBJ0002,1,L00001,HGB,Hemoglobin,HEMATOLOGY,15.64,g/dL,13.5,17.5,15.64,15.64,g/dL,13.5,17.5,NORMAL,,SCREENING,1,2024-10-05,-14
STUDY001,LB,STUDY001-SUBJ0002,2,L00002,HCT,Hematocrit,HEMATOLOGY,45.84,%,41.0,51.0,45.84,45.84,%,41.0,51.0,NORMAL,,SCREENING,1,2024-10-05,-14
STUDY001,LB,STUDY001-SUBJ0002,3,L00003,WBC,White Blood Cell Count,HEMATOLOGY,6.42,10^9/L,4.5,11.0,6.42,6.42,10^9/L,4.5,11.0,NORMAL,,SCREENING,1,2024-10-05,-14
STUDY001,LB,STUDY001-SUBJ0002,4,L00004,PLT,Platelet Count,HEMATOLOGY,217.48,10^9/L,150.0,450.0,217.48,217.48,10^9/L,150.0,450.0,NORMAL,,SCREENING,1,2024-10-05,-14
STUDY001,LB,STUDY001-SUBJ0002,5,L00005,GLUC,Glucose,CHEMISTRY,63.0,mg/dL,70.0,100.0,63.0,63.0,mg/dL,70.0,100.0,LOW,,SCREENING,1,2024-10-05,-14
STUDY001,LB,STUDY001-SUBJ0002,6,L00006,BUN,Blood Urea Nitrogen,CHEMISTRY,9.93,mg/dL,7.0,20.0,9.93,9.93,mg/dL,7.0,20.0,NORMAL,,SCREENING,1,2024-10-05,-14
STUDY001,LB,STUDY001-SUBJ0002,7,L00007,CREAT,Creatinine,CHEMISTRY,1.12,mg/dL,0.6,1.2,1.12,1.12,mg/dL,0.6,1.2,NORMAL,,SCREENING,1,2024-10-05,-14
STUDY001,LB,STUDY001-SUBJ0002,8,L00008,BILI,Total Bilirubin,CHEMISTRY,0.54,mg/dL,0.1,1.2,0.54,0.54,mg/dL,0.1,1.2,NORMAL,,SCREENING,1,2024-10-05,-14
STUDY001,LB,STUDY001-SUBJ0002,9,L00009,ALP,Alkaline Phosphatase,CHEMISTRY,83.61,U/L,44.0,147.0,83.61,83.61,U/L,44.0,147.0,NORMAL,,SCREENING,1,2024-10-05,-14
STUDY001,LB,STUDY001-SUBJ0002,10,L00010,ALT,Alanine Aminotransferase,CHEMISTRY,34.12,U/L,7.0,56.0,34.12,34.12,U/L,7.0,56.0,NORMAL,,SCREENING,1,2024-10-05,-14
STUDY001,LB,STUDY001-SUBJ0002,11,L00011,HGB,Hemoglobin,HEMATOLOGY,15.51,g/dL,13.5,17.5,15.51,15.51,g/dL,13.5,17.5,NORMAL,Y,BASELINE,2,2024-10-19,1
STUDY001,LB,STUDY001-SUBJ0002,12,L00012,HCT,Hematocrit,HEMATOLOGY,46.39,%,41.0,51.0,46.39,46.39,%,41.0,51.0,NORMAL,Y,BASELINE,2,2024-10-19,1
STUDY001,LB,STUDY001-SUBJ0002,13,L00013,WBC,White Blood Cell Count,HEMATOLOGY,6.16,10^9/L,4.5,11.0,6.16,6.16,10^9/L,4.5,11.0,NORMAL,Y,BASELINE,2,2024-10-19,1
STUDY001,LB,STUDY001-SUBJ0002,14,L00014,PLT,Platelet Count,HEMATOLOGY,217.95,10^9/L,150.0,450.0,217.95,217.95,10^9/L,150.0,450.0,NORMAL,Y,BASELINE,2,2024-10-19,1
STUDY001,LB,STUDY001-SUBJ0002,15,L00015,GLUC,Glucose,CHEMISTRY,65.06,mg/dL,70.0,100.0,65.06,65.06,mg/dL,70.0,100.0,LOW,Y,BASELINE,2,2024-10-19,1
STUDY001,LB,STUDY001-SUBJ0002,16,L00016,BUN,Blood Urea Nitrogen,CHEMISTRY,10.39,mg/dL,7.0,20.0,10.39,10.39,mg/dL,7.0,20.0,NORMAL,Y,BASELINE,2,2024-10-19,1
STUDY001,LB,STUDY001-SUBJ0002,17,L00017,CREAT,Creatinine,CHEMISTRY,1.14,mg/dL,0.6,1.2,1.14,1.14,mg/dL,0.6,1.2,NORMAL,Y,BASELINE,2,2024-10-19,1
STUDY001,LB,STUDY001-SUBJ0002,18,L00018,BILI,Total Bilirubin,CHEMISTRY,0.52,mg/dL,0.1,1.2,0.52,0.52,mg/dL,0.1,1.2,NORMAL,Y,BASELINE,2,2024-10-19,1
STUDY001,LB,STUDY001-SUBJ0002,19,L00019,ALP,Alkaline Phosphatase,CHEMISTRY,83.11,U/L,44.0,147.0,83.11,83.11,U/L,44.0,147.0,NORMAL,Y,BASELINE,2,2024-10-19,1
STUDY001,LB,STUDY001-SUBJ0002,20,L00020,ALT,Alanine Aminotransferase,CHEMISTRY,33.7,U/L,7.0,56.0,33.7,33.7,U/L,7.0,56.0,NORMAL,Y,BASELINE,2,2024-10-19,1
STUDY001,LB,STUDY001-SUBJ0002,21,L00021,HGB,Hemoglobin,HEMATOLOGY,15.49,g/dL,13.5,17.5,15.49,15.49,g/dL,13.5,17.5,NORMAL,,WEEK 1,3,2024-10-25,7
STUDY001,LB,STUDY001-SUBJ0002,22,L00022,HCT,Hematocrit,HEMATOLOGY,45.94,%,41.0,51.0,45.94,45.94,%,41.0,51.0,NORMAL,,WEEK 1,3,2024-10-25,7
STUDY001,LB,STUDY001-SUBJ0002,23,L00023,WBC,White Blood Cell Count,HEMATOLOGY,6.37,10^9/L,4.5,11.0,6.37,6.37,10^9/L,4.5,11.0,NORMAL,,WEEK 1,3,2024-10-25,7
STUDY001,LB,STUDY001-SUBJ0002,24,L00024,PLT,Platelet Count,HEMATOLOGY,213.78,10^9/L,150.0,450.0,213.78,213.78,10^9/L,150.0,450.0,NORMAL,,WEEK 1,3,2024-10-25,7
STUDY001,LB,STUDY001-SUBJ0002,25,L00025,GLUC,Glucose,CHEMISTRY,63.51,mg/dL,70.0,100.0,63.51,63.51,mg/dL,70.0,100.0,LOW,,WEEK 1,3,2024-10-25,7
STUDY001,LB,STUDY001-SUBJ0002,26,L00026,BUN,Blood Urea Nitrogen,CHEMISTRY,10.2,mg/dL,7.0,20.0,10.2,10.2,mg/dL,7.0,20.0,NORMAL,,WEEK 1,3,2024-10-25,7
STUDY001,LB,STUDY001-SUBJ0002,27,L00027,CREAT,Creatinine,CHEMISTRY,1.13,mg/dL,0.6,1.2,1.13,1.13,mg/dL,0.6,1.2,NORMAL,,WEEK 1,3,2024-10-25,7
STUDY001,LB,STUDY001-SUBJ0002,28,L00028,BILI,Total Bilirubin,CHEMISTRY,0.52,mg/dL,0.1,1.2,0.52,0.52,mg/dL,0.1,1.2,NORMAL,,WEEK 1,3,2024-10-25,7
STUDY001,LB,STUDY001-SUBJ0002,29,L00029,ALP,Alkaline Phosphatase,CHEMISTRY,84.84,U/L,44.0,147.0,84.84,84.84,U/L,44.0,147.0,NORMAL,,WEEK 1,3,2024-10-25,7
STUDY001,LB,STUDY001-SUBJ0002,30,L00030,ALT,Alanine Aminotransferase,CHEMISTRY,36.43,U/L,7.0,56.0,36.43,36.43,U/L,7.0,56.0,NORMAL,,WEEK 1,3,2024-10-25,7
STUDY001,LB,STUDY001-SUBJ0002,31,L00031,HGB,Hemoglobin,HEMATOLOGY,15.47,g/dL,13.5,17.5,15.47,15.47,g/dL,13.5,17.5,NORMAL,,WEEK 2,4,2024-11-01,14
STUDY001,LB,STUDY001-SUBJ0002,32,L00032,HCT,Hematocrit,HEMATOLOGY,45.64,%,41.0,51.0,45.64,45.64,%,41.0,51.0,NORMAL,,WEEK 2,4,2024-11-01,14
STUDY001,LB,STUDY001-SUBJ0002,33,L00033,WBC,White Blood Cell Count,HEMATOLOGY,6.27,10^9/L,4.5,11.0,6.27,6.27,10^9/L,4.5,11.0,NORMAL,,WEEK 2,4,2024-11-01,14
STUDY001,LB,STUDY001-SUBJ0002,34,L00034,PLT,Platelet Count,HEMATOLOGY,226.94,10^9/L,150.0,450.0,226.94,226.94,10^9/L,150.0,450.0,NORMAL,,WEEK 2,4,2024-11-01,14
STUDY001,LB,STUDY001-SUBJ0002,35,L00035,GLUC,Glucose,CHEMISTRY,65.01,mg/dL,70.0,100.0,65.01,65.01,mg/dL,70.0,100.0,LOW,,WEEK 2,4,2024-11-01,14
STUDY001,LB,STUDY001-SUBJ0002,36,L00036,BUN,Blood Urea Nitrogen,CHEMISTRY,10.32,mg/dL,7.0,20.0,10.32,10.32,mg/dL,7.0,20.0,NORMAL,,WEEK 2,4,2024-11-01,14
STUDY001,LB,STUDY001-SUBJ0002,37,L00037,CREAT,Creatinine,CHEMISTRY,1.13,mg/dL,0.6,1.2,1.13,1.13,mg/dL,0.6,1.2,NORMAL,,WEEK 2,4,2024-11-01,14
STUDY001,LB,STUDY001-SUBJ0002,38,L00038,BILI,Total Bilirubin,CHEMISTRY,0.53,mg/dL,0.1,1.2,0.53,0.53,mg/dL,0.1,1.2,NORMAL,,WEEK 2,4,2024-11-01,14
STUDY001,LB,STUDY001-SUBJ0002,39,L00039,ALP,Alkaline Phosphatase,CHEMISTRY,85.45,U/L,44.0,147.0,85.45,85.45,U/L,44.0,147.0,NORMAL,,WEEK 2,4,2024-11-01,14
STUDY001,LB,STUDY001-SUBJ0002,40,L00040,ALT,Alanine Aminotransferase,CHEMISTRY,34.64,U/L,7.0,56.0,34.64,34.64,U/L,7.0,56.0,NORMAL,,WEEK 2,4,2024-11-01,14
STUDY001,LB,STUDY001-SUBJ0002,41,L00041,HGB,Hemoglobin,HEMATOLOGY,15.43,g/dL,13.5,17.5,15.43,15.43,g/dL,13.5,17.5,NORMAL,,WEEK 4,5,2024-11-15,28
STUDY001,LB,STUDY001-SUBJ0002,42,L00042,HCT,Hematocrit,HEMATOLOGY,45.66,%,41.0,51.0,45.66,45.66,%,41.0,51.0,NORMAL,,WEEK 4,5,2024-11-15,28
STUDY001,LB,STUDY001-SUBJ0002,43,L00043,WBC,White Blood Cell Count,HEMATOLOGY,6.28,10^9/L,4.5,11.0,6.28,6.28,10^9/L,4.5,11.0,NORMAL,,WEEK 4,5,2024-11-15,28
STUDY001,LB,STUDY001-SUBJ0002,44,L00044,PLT,Platelet Count,HEMATOLOGY,221.51,10^9/L,150.0,450.0,221.51,221.51,10^9/L,150.0,450.0,NORMAL,,WEEK 4,5,2024-11-15,28
STUDY001,LB,STUDY001-SUBJ0002,45,L00045,GLUC,Glucose,CHEMISTRY,65.51,mg/dL,70.0,100.0,65.51,65.51,mg/dL,70.0,100.0,LOW,,WEEK 4,5,2024-11-15,28
STUDY001,LB,STUDY001-SUBJ0002,46,L00046,BUN,Blood Urea Nitrogen,CHEMISTRY,10.21,mg/dL,7.0,20.0,10.21,10.21,mg/dL,7.0,20.0,NORMAL,,WEEK 4,5,2024-11-15,28
STUDY001,LB,STUDY001-SUBJ0002,47,L00047,CREAT,Creatinine,CHEMISTRY,1.14,mg/dL,0.6,1.2,1.14,1.14,mg/dL,0.6,1.2,NORMAL,,WEEK 4,5,2024-11-15,28
STUDY001,LB,STUDY001-SUBJ0002,48,L00048,BILI,Total Bilirubin,CHEMISTRY,0.53,mg/dL,0.1,1.2,0.53,0.53,mg/dL,0.1,1.2,NORMAL,,WEEK 4,5,2024-11-15,28
STUDY001,LB,STUDY001-SUBJ0002,49,L00049,ALP,Alkaline Phosphatase,CHEMISTRY,84.7,U/L,44.0,147.0,84.7,84.7,U/L,44.0,147.0,NORMAL,,WEEK 4,5,2024-11-15,28
STUDY001,LB,STUDY001-SUBJ0002,50,L00050,ALT,Alanine Aminotransferase,CHEMISTRY,33.38,U/L,7.0,56.0,33.38,33.38,U/L,7.0,56.0,NORMAL,,WEEK 4,5,2024-11-15,28
STUDY001,LB,STUDY001-SUBJ0002,51,L00051,HGB,Hemoglobin,HEMATOLOGY,15.61,g/dL,13.5,17.5,15.61,15.61,g/dL,13.5,17.5,NORMAL,,WEEK 8,6,2024-12-13,56
STUDY001,LB,STUDY001-SUBJ0002,52,L00052,HCT,Hematocrit,HEMATOLOGY,45.41,%,41.0,51.0,45.41,45.41,%,41.0,51.0,NORMAL,,WEEK 8,6,2024-12-13,56
STUDY001,LB,STUDY001-SUBJ0002,53,L00053,WBC,White Blood Cell Count,HEMATOLOGY,6.29,10^9/L,4.5,11.0,6.29,6.29,10^9/L,4.5,11.0,NORMAL,,WEEK 8,6,2024-12-13,56
STUDY001,LB,STUDY001-SUBJ0002,54,L00054,PLT,Platelet Count,HEMATOLOGY,214.72,10^9/L,150.0,450.0,214.72,214.72,10^9/L,150.0,450.0,NORMAL,,WEEK 8,6,2024-12-13,56
STUDY001,LB,STUDY001-SUBJ0002,55,L00055,GLUC,Glucose,CHEMISTRY,63.66,mg/dL,70.0,100.0,63.66,63.66,mg/dL,70.0,100.0,LOW,,WEEK 8,6,2024-12-13,56
STUDY001,LB,STUDY001-SUBJ0002,56,L00056,BUN,Blood Urea Nitrogen,CHEMISTRY,10.36,mg/dL,7.0,20.0,10.36,10.36,mg/dL,7.0,20.0,NORMAL,,WEEK 8,6,2024-12-13,56
STUDY001,LB,STUDY001-SUBJ0002,57,L00057,CREAT,Creatinine,CHEMISTRY,1.15,mg/dL,0.6,1.2,1.15,1.15,mg/dL,0.6,1.2,NORMAL,,WEEK 8,6,2024-12-13,56
STUDY001,LB,STUDY001-SUBJ0002,58,L00058,BILI,Total Bilirubin,CHEMISTRY,0.54,mg/dL,0.1,1.2,0.54,0.54,mg/dL,0.1,1.2,NORMAL,,WEEK 8,6,2024-12-13,56
STUDY001,LB,STUDY001-SUBJ0002,59,L00059,ALP,Alkaline Phosphatase,CHEMISTRY,85.13,U/L,44.0,147.0,85.13,85.13,U/L,44.0,147.0,NORMAL,,WEEK 8,6,2024-12-13,56
STUDY001,LB,STUDY001-SUBJ0002,60,L00060,ALT,Alanine Aminotransferase,CHEMISTRY,33.49,U/L,7.0,56.0,33.49,33.49,U/L,7.0,56.0,NORMAL,,WEEK 8,6,2024-12-13,56
STUDY001,LB,STUDY001-SUBJ0002,61,L00061,HGB,Hemoglobin,HEMATOLOGY,15.47,g/dL,13.5,17.5,15.47,15.47,g/dL,13.5,17.5,NORMAL,,WEEK 12,7,2025-01-10,84
STUDY001,LB,STUDY001-SUBJ0002,62,L00062,HCT,Hematocrit,HEMATOLOGY,45.76,%,41.0,51.0,45.76,45.76,%,41.0,51.0,NORMAL,,WEEK 12,7,2025-01-10,84
STUDY001,LB,STUDY001-SUBJ0002,63,L00063,WBC,White Blood Cell Count,HEMATOLOGY,6.14,10^9/L,4.5,11.0,6.14,6.14,10^9/L,4.5,11.0,NORMAL,,WEEK 12,7,2025-01-10,84
STUDY001,LB,STUDY001-SUBJ0002,64,L00064,PLT,Platelet Count,HEMATOLOGY,228.13,10^9/L,150.0,450.0,228.13,228.13,10^9/L,150.0,450.0,NORMAL,,WEEK 12,7,2025-01-10,84
STUDY001,LB,STUDY001-SUBJ0002,65,L00065,GLUC,Glucose,CHEMISTRY,63.63,mg/dL,70.0,100.0,63.63,63.63,mg/dL,70.0,100.0,LOW,,WEEK 12,7,2025-01-10,84
STUDY001,LB,STUDY001-SUBJ0002,66,L00066,BUN,Blood Urea Nitrogen,CHEMISTRY,9.71,mg/dL,7.0,20.0,9.71,9.71,mg/dL,7.0,20.0,NORMAL,,WEEK 12,7,2025-01-10,84
STUDY001,LB,STUDY001-SUBJ0002,67,L00067,CREAT,Creatinine,CHEMISTRY,1.1,mg/dL,0.6,1.2,1.1,1.1,mg/dL,0.6,1.2,NORMAL,,WEEK 12,7,2025-01-10,84
STUDY001,LB,STUDY001-SUBJ0002,68,L00068,BILI,Total Bilirubin,CHEMISTRY,0.5,mg/dL,0.1,1.2,0.5,0.5,mg/dL,0.1,1.2,NORMAL,,WEEK 12,7,2025-01-10,84
STUDY001,LB,STUDY001-SUBJ0002,69,L00069,ALP,Alkaline Phosphatase,CHEMISTRY,81.45,U/L,44.0,147.0,81.45,81.45,U/L,44.0,147.0,NORMAL,,WEEK 12,7,2025-01-10,84
STUDY001,LB,STUDY001-SUBJ0002,70,L00070,ALT,Alanine Aminotransferase,CHEMISTRY,34.92,U/L,7.0,56.0,34.92,34.92,U/L,7.0,56.0,NORMAL,,WEEK 12,7,2025-01-10,84
STUDY001,LB,STUDY001-SUBJ0002,71,L00071,HGB,Hemoglobin,HEMATOLOGY,15.58,g/dL,13.5,17.5,15.58,15.58,g/dL,13.5,17.5,NORMAL,,WEEK 16,8,2025-02-07,112
STUDY001,LB,STUDY001-SUBJ0002,72,L00072,HCT,Hematocrit,HEMATOLOGY,45.49,%,41.0,51.0,45.49,45.49,%,41.0,51.0,NORMAL,,WEEK 16,8,2025-02-07,112
STUDY001,LB,STUDY001-SUBJ0002,73,L00073,WBC,White Blood Cell Count,HEMATOLOGY,6.57,10^9/L,4.5,11.0,6.57,6.57,10^9/L,4.5,11.0,NORMAL,,WEEK 16,8,2025-02-07,112
STUDY001,LB,STUDY001-SUBJ0002,74,L00074,PLT,Platelet Count,HEMATOLOGY,218.85,10^9/L,150.0,450.0,218.85,218.85,10^9/L,150.0,450.0,NORMAL,,WEEK 16,8,2025-02-07,112
STUDY001,LB,STUDY001-SUBJ0002,75,L00075,GLUC,Glucose,CHEMISTRY,64.4,mg/dL,70.0,100.0,64.4,64.4,mg/dL,70.0,100.0,LOW,,WEEK 16,8,2025-02-07,112
STUDY001,LB,STUDY001-SUBJ0002,76,L00076,BUN,Blood Urea Nitrogen,CHEMISTRY,10.79,mg/dL,7.0,20.0,10.79,10.79,mg/dL,7.0,20.0,NORMAL,,WEEK 16,8,2025-02-07,112
STUDY001,LB,STUDY001-SUBJ0002,77,L00077,CREAT,Creatinine,CHEMISTRY,1.13,mg/dL,0.6,1.2,1.13,1.13,mg/dL,0.6,1.2,NORMAL,,WEEK 16,8,2025-02-07,112
STUDY001,LB,STUDY001-SUBJ0002,78,L00078,BILI,Total Bilirubin,CHEMISTRY,0.53,mg/dL,0.1,1.2,0.53,0.53,mg/dL,0.1,1.2,NORMAL,,WEEK 16,8,2025-02-07,112
STUDY001,LB,STUDY001-SUBJ0002,79,L00079,ALP,Alkaline Phosphatase,CHEMISTRY,84.1,U/L,44.0,147.0,84.1,84.1,U/L,44.0,147.0,NORMAL,,WEEK 16,8,2025-02-07,112
STUDY001,LB,STUDY001-SUBJ0002,80,L00080,ALT,Alanine Aminotransferase,CHEMISTRY,34.18,U/L,7.0,56.0,34.18,34.18,U/L,7.0,56.0,NORMAL,,WEEK 16,8,2025-02-07,112
STUDY001,LB,STUDY001-SUBJ0002,81,L00081,HGB,Hemoglobin,HEMATOLOGY,15.7,g/dL,13.5,17.5,15.7,15.7,g/dL,13.5,17.5,NORMAL,,END OF TREATMENT,9,2025-03-07,140
STUDY001,LB,STUDY001-SUBJ0002,82,L00082,HCT,Hematocrit,HEMATOLOGY,46.27,%,41.0,51.0,46.27,46.27,%,41.0,51.0,NORMAL,,END OF TREATMENT,9,2025-03-07,140
STUDY001,LB,STUDY001-SUBJ0002,83,L00083,WBC,White Blood Cell Count,HEMATOLOGY,6.2,10^9/L,4.5,11.0,6.2,6.2,10^9/L,4.5,11.0,NORMAL,,END OF TREATMENT,9,2025-03-07,140
STUDY001,LB,STUDY001-SUBJ0002,84,L00084,PLT,Platelet Count,HEMATOLOGY,220.28,10^9/L,150.0,450.0,220.28,220.28,10^9/L,150.0,450.0,NORMAL,,END OF TREATMENT,9,2025-03-07,140
STUDY001,LB,STUDY001-SUBJ0002,85,L00085,GLUC,Glucose,CHEMISTRY,64.68,mg/dL,70.0,100.0,64.68,64.68,mg/dL,70.0,100.0,LOW,,END OF TREATMENT,9,2025-03-07,140
STUDY001,LB,STUDY001-SUBJ0002,86,L00086,BUN,Blood Urea Nitrogen,CHEMISTRY,10.01,mg/dL,7.0,20.0,10.01,10.01,mg/dL,7.0,20.0,NORMAL,,END OF TREATMENT,9,2025-03-07,140
STUDY001,LB,STUDY001-SUBJ0002,87,L00087,CREAT,Creatinine,CHEMISTRY,1.13,mg/dL,0.6,1.2,1.13,1.13,mg/dL,0.6,1.2,NORMAL,,END OF TREATMENT,9,2025-03-07,140
STUDY001,LB,STUDY001-SUBJ0002,88,L00088,BILI,Total Bilirubin,CHEMISTRY,0.52,mg/dL,0.1,1.2,0.52,0.52,mg/dL,0.1,1.2,NORMAL,,END OF TREATMENT,9,2025-03-07,140
STUDY001,LB,STUDY001-SUBJ0002,89,L00089,ALP,Alkaline Phosphatase,CHEMISTRY,87.03,U/L,44.0,147.0,87.03,87.03,U/L,44.0,147.0,NORMAL,,END OF TREATMENT,9,2025-03-07,140
STUDY001,LB,STUDY001-SUBJ0002,90,L00090,ALT,Alanine Aminotransferase,CHEMISTRY,33.8,U/L,7.0,56.0,33.8,33.8,U/L,7.0,56.0,NORMAL,,END OF TREATMENT,9,2025-03-07,140
STUDY001,LB,STUDY001-SUBJ0003,1,L00001,HGB,Hemoglobin,HEMATOLOGY,15.81,g/dL,13.5,17.5,15.81,15.81,g/dL,13.5,17.5,NORMAL,,SCREENING,1,2024-11-13,-14
STUDY001,LB,STUDY001-SUBJ0003,2,L00002,HCT,Hematocrit,HEMATOLOGY,50.14,%,41.0,51.0,50.14,50.14,%,41.0,51.0,NORMAL,,SCREENING,1,2024-11-13,-14
STUDY001,LB,STUDY001-SUBJ0003,3,L00003,WBC,White Blood Cell Count,HEMATOLOGY,7.61,10^9/L,4.5,11.0,7.61,7.61,10^9/L,4.5,11.0,NORMAL,,SCREENING,1,2024-11-13,-14
STUDY001,LB,STUDY001-SUBJ0003,4,L00004,PLT,Platelet Count,HEMATOLOGY,266.28,10^9/L,150.0,450.0,266.28,266.28,10^9/L,150.0,450.0,NORMAL,,SCREENING,1,2024-11-13,-14
STUDY001,LB,STUDY001-SUBJ0003,5,L00005,GLUC,Glucose,CHEMISTRY,98.88,mg/dL,70.0,100.0,98.88,98.88,mg/dL,70.0,100.0,NORMAL,,SCREENING,1,2024-11-13,-14
STUDY001,LB,STUDY001-SUBJ0003,6,L00006,BUN,Blood Urea Nitrogen,CHEMISTRY,19.63,mg/dL,7.0,20.0,19.63,19.63,mg/dL,7.0,20.0,NORMAL,,SCREENING,1,2024-11-13,-14
STUDY001,LB,STUDY001-SUBJ0003,7,L00007,CREAT,Creatinine,CHEMISTRY,1.05,mg/dL,0.6,1.2,1.05,1.05,mg/dL,0.6,1.2,NORMAL,,SCREENING,1,2024-11-13,-14
STUDY001,LB,STUDY001-SUBJ0003,8,L00008,BILI,Total Bilirubin,CHEMISTRY,0.53,mg/dL,0.1,1.2,0.53,0.53,mg/dL,0.1,1.2,NORMAL,,SCREENING,1,2024-11-13,-14
STUDY001,LB,STUDY001-SUBJ0003,9,L00009,ALP,Alkaline Phosphatase,CHEMISTRY,56.05,U/L,44.0,147.0,56.05,56.05,U/L,44.0,147.0,NORMAL,,SCREENING,1,2024-11-13,-14
STUDY001,LB,STUDY001-SUBJ0003,10,L00010,ALT,Alanine Aminotransferase,CHEMISTRY,8.15,U/L,7.0,56.0,8.15,8.15,U/L,7.0,56.0,NORMAL,,SCREENING,1,2024-11-13,-14
STUDY001,LB,STUDY001-SUBJ0003,11,L00011,HGB,Hemoglobin,HEMATOLOGY,15.82,g/dL,13.5,17.5,15.82,15.82,g/dL,13.5,17.5,NORMAL,Y,BASELINE,2,2024-11-27,1
STUDY001,LB,STUDY001-SUBJ0003,12,L00012,HCT,Hematocrit,HEMATOLOGY,50.78,%,41.0,51.0,50.78,50.78,%,41.0,51.0,NORMAL,Y,BASELINE,2,2024-11-27,1
STUDY001,LB,STUDY001-SUBJ0003,13,L00013,WBC,White Blood Cell Count,HEMATOLOGY,7.52,10^9/L,4.5,11.0,7.52,7.52,10^9/L,4.5,11.0,NORMAL,Y,BASELINE,2,2024-11-27,1
STUDY001,LB,STUDY001-SUBJ0003,14,L00014,PLT,Platelet Count,HEMATOLOGY,271.08,10^9/L,150.0,450.0,271.08,271.08,10^9/L,150.0,450.0,NORMAL,Y,BASELINE,2,2024-11-27,1
STUDY001,LB,STUDY001-SUBJ0003,15,L00015,GLUC,Glucose,CHEMISTRY,99.11,mg/dL,70.0,100.0,99.11,99.11,mg/dL,70.0,100.0,NORMAL,Y,BASELINE,2,2024-11-27,1
STUDY001,LB,STUDY001-SUBJ0003,16,L00016,BUN,Blood Urea Nitrogen,CHEMISTRY,19.91,mg/dL,7.0,20.0,19.91,19.91,mg/dL,7.0,20.0,NORMAL,Y,BASELINE,2,2024-11-27,1
STUDY001,LB,STUDY001-SUBJ0003,17,L00017,CREAT,Creatinine,CHEMISTRY,1.02,mg/dL,0.6,1.2,1.02,1.02,mg/dL,0.6,1.2,NORMAL,Y,BASELINE,2,2024-11-27,1
STUDY001,LB,STUDY001-SUBJ0003,18,L00018,BILI,Total Bilirubin,CHEMISTRY,0.52,mg/dL,0.1,1.2,0.52,0.52,mg/dL,0.1,1.2,NORMAL,Y,BASELINE,2,2024-11-27,1
STUDY001,LB,STUDY001-SUBJ0003,19,L00019,ALP,Alkaline Phosphatase,CHEMISTRY,58.03,U/L,44.0,147.0,58.03,58.03,U/L,44.0,147.0,NORMAL,Y,BASELINE,2,2024-11-27,1
STUDY001,LB,STUDY001-SUBJ0003,20,L00020,ALT,Alanine Aminotransferase,CHEMISTRY,8.06,U/L,7.0,56.0,8.06,8.06,U/L,7.0,56.0,NORMAL,Y,BASELINE,2,2024-11-27,1
STUDY001,LB,STUDY001-SUBJ0003,21,L00021,HGB,Hemoglobin,HEMATOLOGY,15.83,g/dL,13.5,17.5,15.83,15.83,g/dL,13.5,17.5,NORMAL,,WEEK 1,3,2024-12-03,7
STUDY001,LB,STUDY001-SUBJ0003,22,L00022,HCT,Hematocrit,HEMATOLOGY,50.13,%,41.0,51.0,50.13,50.13,%,41.0,51.0,NORMAL,,WEEK 1,3,2024-12-03,7
STUDY001,LB,STUDY001-SUBJ0003,23,L00023,WBC,White Blood Cell Count,HEMATOLOGY,7.43,10^9/L,4.5,11.0,7.43,7.43,10^9/L,4.5,11.0,NORMAL,,WEEK 1,3,2024-12-03,7
STUDY001,LB,STUDY001-SUBJ0003,24,L00024,PLT,Platelet Count,HEMATOLOGY,273.64,10^9/L,150.0,450.0,273.64,273.64,10^9/L,150.0,450.0,NORMAL,,WEEK 1,3,2024-12-03,7
STUDY001,LB,STUDY001-SUBJ0003,25,L00025,GLUC,Glucose,CHEMISTRY,100.12,mg/dL,70.0,100.0,100.12,100.12,mg/dL,70.0,100.0,HIGH,,WEEK 1,3,2024-12-03,7
STUDY001,LB,STUDY001-SUBJ0003,26,L00026,BUN,Blood Urea Nitrogen,CHEMISTRY,19.55,mg/dL,7.0,20.0,19.55,19.55,mg/dL,7.0,20.0,NORMAL,,WEEK 1,3,2024-12-03,7
STUDY001,LB,STUDY001-SUBJ0003,27,L00027,CREAT,Creatinine,CHEMISTRY,1.02,mg/dL,0.6,1.2,1.02,1.02,mg/dL,0.6,1.2,NORMAL,,WEEK 1,3,2024-12-03,7
STUDY001,LB,STUDY001-SUBJ0003,28,L00028,BILI,Total Bilirubin,CHEMISTRY,0.49,mg/dL,0.1,1.2,0.49,0.49,mg/dL,0.1,1.2,NORMAL,,WEEK 1,3,2024-12-03,7
STUDY001,LB,STUDY001-SUBJ0003,29,L00029,ALP,Alkaline Phosphatase,CHEMISTRY,54.56,U/L,44.0,147.0,54.56,54.56,U/L,44.0,147.0,NORMAL,,WEEK 1,3,2024-12-03,7
STUDY001,LB,STUDY001-SUBJ0003,30,L00030,ALT,Alanine Aminotransferase,CHEMISTRY,7.63,U/L,7.0,56.0,7.63,7.63,U/L,7.0,56.0,NORMAL,,WEEK 1,3,2024-12-03,7
STUDY001,LB,STUDY001-SUBJ0003,31,L00031,HGB,Hemoglobin,HEMATOLOGY,16.03,g/dL,13.5,17.5,16.03,16.03,g/dL,13.5,17.5,NORMAL,,WEEK 2,4,2024-12-10,14
STUDY001,LB,STUDY001-SUBJ0003,32,L00032,HCT,Hematocrit,HEMATOLOGY,50.65,%,41.0,51.0,50.65,50.65,%,41.0,51.0,NORMAL,,WEEK 2,4,2024-12-10,14
STUDY001,LB,STUDY001-SUBJ0003,33,L00033,WBC,White Blood Cell Count,HEMATOLOGY,7.54,10^9/L,4.5,11.0,7.54,7.54,10^9/L,4.5,11.0,NORMAL,,WEEK 2,4,2024-12-10,14
STUDY001,LB,STUDY001-SUBJ0003,34,L00034,PLT,Platelet Count,HEMATOLOGY,264.12,10^9/L,150.0,450.0,264.12,264.12,10^9/L,150.0,450.0,NORMAL,,WEEK 2,4,2024-12-10,14
STUDY001,LB,STUDY001-SUBJ0003,35,L00035,GLUC,Glucose,CHEMISTRY,99.16,mg/dL,70.0,100.0,99.16,99.16,mg/dL,70.0,100.0,NORMAL,,WEEK 2,4,2024-12-10,14
STUDY001,LB,STUDY001-SUBJ0003,36,L00036,BUN,Blood Urea Nitrogen,CHEMISTRY,20.64,mg/dL,7.0,20.0,20.64,20.64,mg/dL,7.0,20.0,HIGH,,WEEK 2,4,2024-12-10,14
STUDY001,LB,STUDY001-SUBJ0003,37,L00037,CREAT,Creatinine,CHEMISTRY,1.03,mg/dL,0.6,1.2,1.03,1.03,mg/dL,0.6,1.2,NORMAL,,WEEK 2,4,2024-12-10,14
STUDY001,LB,STUDY001-SUBJ0003,38,L00038,BILI,Total Bilirubin,CHEMISTRY,0.5,mg/dL,0.1,1.2,0.5,0.5,mg/dL,0.1,1.2,NORMAL,,WEEK 2,4,2024-12-10,14
STUDY001,LB,STUDY001-SUBJ0003,39,L00039,ALP,Alkaline Phosphatase,CHEMISTRY,59.0,U/L,44.0,147.0,59.0,59.0,U/L,44.0,147.0,NORMAL,,WEEK 2,4,2024-12-10,14
STUDY001,LB,STUDY001-SUBJ0003,40,L00040,ALT,Alanine Aminotransferase,CHEMISTRY,9.41,U/L,7.0,56.0,9.41,9.41,U/L,7.0,56.0,NORMAL,,WEEK 2,4,2024-12-10,14
STUDY001,LB,STUDY001-SUBJ0003,41,L00041,HGB,Hemoglobin,HEMATOLOGY,15.6,g/dL,13.5,17.5,15.6,15.6,g/dL,13.5,17.5,NORMAL,,WEEK 4,5,2024-12-24,28
STUDY001,LB,STUDY001-SUBJ0003,42,L00042,HCT,Hematocrit,HEMATOLOGY,50.76,%,41.0,51.0,50.76,50.76,%,41.0,51.0,NORMAL,,WEEK 4,5,2024-12-24,28
STUDY001,LB,STUDY001-SUBJ0003,43,L00043,WBC,White Blood Cell Count,HEMATOLOGY,7.9,10^9/L,4.5,11.0,7.9,7.9,10^9/L,4.5,11.0,NORMAL,,WEEK 4,5,2024-12-24,28
STUDY001,LB,STUDY001-SUBJ0003,44,L00044,PLT,Platelet Count,HEMATOLOGY,269.06,10^9/L,150.0,450.0,269.06,269.06,10^9/L,150.0,450.0,NORMAL,,WEEK 4,5,2024-12-24,28
STUDY001,LB,STUDY001-SUBJ0003,45,L00045,GLUC,Glucose,CHEMISTRY,100.47,mg/dL,70.0,100.0,100.47,100.47,mg/dL,70.0,100.0,HIGH,,WEEK 4,5,2024-12-24,28
STUDY001,LB,STUDY001-SUBJ0003,46,L00046,BUN,Blood Urea Nitrogen,CHEMISTRY,19.32,mg/dL,7.0,20.0,19.32,19.32,mg/dL,7.0,20.0,NORMAL,,WEEK 4,5,2024-12-24,28
STUDY001,LB,STUDY001-SUBJ0003,47,L00047,CREAT,Creatinine,CHEMISTRY,1.01,mg/dL,0.6,1.2,1.01,1.01,mg/dL,0.6,1.2,NORMAL,,WEEK 4,5,2024-12-24,28
STUDY001,LB,STUDY001-SUBJ0003,48,L00048,BILI,Total Bilirubin,CHEMISTRY,0.53,mg/dL,0.1,1.2,0.53,0.53,mg/dL,0.1,1.2,NORMAL,,WEEK 4,5,2024-12-24,28
STUDY001,LB,STUDY001-SUBJ0003,49,L00049,ALP,Alkaline Phosphatase,CHEMISTRY,50.37,U/L,44.0,147.0,50.37,50.37,U/L,44.0,147.0,NORMAL,,WEEK 4,5,2024-12-24,28
STUDY001,LB,STUDY001-SUBJ0003,50,L00050,ALT,Alanine Aminotransferase,CHEMISTRY,10.0,U/L,7.0,56.0,10.0,10.0,U/L,7.0,56.0,NORMAL,,WEEK 4,5,2024-12-24,28
STUDY001,LB,STUDY001-SUBJ0003,51,L00051,HGB,Hemoglobin,HEMATOLOGY,15.88,g/dL,13.5,17.5,15.88,15.88,g/dL,13.5,17.5,NORMAL,,WEEK 8,6,2025-01-21,56
STUDY001,LB,STUDY001-SUBJ0003,52,L00052,HCT,Hematocrit,HEMATOLOGY,50.44,%,41.0,51.0,50.44,50.44,%,41.0,51.0,NORMAL,,WEEK 8,6,2025-01-21,56
STUDY001,LB,STUDY001-SUBJ0003,53,L00053,WBC,White Blood Cell Count,HEMATOLOGY,7.43,10^9/L,4.5,11.0,7.43,7.43,10^9/L,4.5,11.0,NORMAL,,WEEK 8,6,2025-01-21,56
STUDY001,LB,STUDY001-SUBJ0003,54,L00054,PLT,Platelet Count,HEMATOLOGY,269.71,10^9/L,150.0,450.0,269.71,269.71,10^9/L,150.0,450.0,NORMAL,,WEEK 8,6,2025-01-21,56
STUDY001,LB,STUDY001-SUBJ0003,55,L00055,GLUC,Glucose,CHEMISTRY,98.46,mg/dL,70.0,100.0,98.46,98.46,mg/dL,70.0,100.0,NORMAL,,WEEK 8,6,2025-01-21,56
STUDY001,LB,STUDY001-SUBJ0003,56,L00056,BUN,Blood Urea Nitrogen,CHEMISTRY,19.87,mg/dL,7.0,20.0,19.87,19.87,mg/dL,7.0,20.0,NORMAL,,WEEK 8,6,2025-01-21,56
STUDY001,LB,STUDY001-SUBJ0003,57,L00057,CREAT,Creatinine,CHEMISTRY,0.99,mg/dL,0.6,1.2,0.99,0.99,mg/dL,0.6,1.2,NORMAL,,WEEK 8,6,2025-01-21,56
STUDY001,LB,STUDY001-SUBJ0003,58,L00058,BILI,Total Bilirubin,CHEMISTRY,0.44,mg/dL,0.1,1.2,0.44,0.44,mg/dL,0.1,1.2,NORMAL,,WEEK 8,6,2025-01-21,56
STUDY001,LB,STUDY001-SUBJ0003,59,L00059,ALP,Alkaline Phosphatase,CHEMISTRY,54.34,U/L,44.0,147.0,54.34,54.34,U/L,44.0,147.0,NORMAL,,WEEK 8,6,2025-01-21,56
STUDY001,LB,STUDY001-SUBJ0003,60,L00060,ALT,Alanine Aminotransferase,CHEMISTRY,6.79,U/L,7.0,56.0,6.79,6.79,U/L,7.0,56.0,LOW,,WEEK 8,6,2025-01-21,56
STUDY001,LB,STUDY001-SUBJ0003,61,L00061,HGB,Hemoglobin,HEMATOLOGY,15.77,g/dL,13.5,17.5,15.77,15.77,g/dL,13.5,17.5,NORMAL,,WEEK 12,7,2025-02-18,84
STUDY001,LB,STUDY001-SUBJ0003,62,L00062,HCT,Hematocrit,HEMATOLOGY,50.4,%,41.0,51.0,50.4,50.4,%,41.0,51.0,NORMAL,,WEEK 12,7,2025-02-18,84
STUDY001,LB,STUDY001-SUBJ0003,63,L00063,WBC,White Blood Cell Count,HEMATOLOGY,7.4,10^9/L,4.5,11.0,7.4,7.4,10^9/L,4.5,11.0,NORMAL,,WEEK 12,7,2025-02-18,84
STUDY001,LB,STUDY001-SUBJ0003,64,L00064,PLT,Platelet Count,HEMATOLOGY,273.23,10^9/L,150.0,450.0,273.23,273.23,10^9/L,150.0,450.0,NORMAL,,WEEK 12,7,2025-02-18,84
STUDY001,LB,STUDY001-SUBJ0003,65,L00065,GLUC,Glucose,CHEMISTRY,99.94,mg/dL,70.0,100.0,99.94,99.94,mg/dL,70.0,100.0,NORMAL,,WEEK 12,7,2025-02-18,84
STUDY001,LB,STUDY001-SUBJ0003,66,L00066,BUN,Blood Urea Nitrogen,CHEMISTRY,20.13,mg/dL,7.0,20.0,20.13,20.13,mg/dL,7.0,20.0,HIGH,,WEEK 12,7,2025-02-18,84
STUDY001,LB,STUDY001-SUBJ0003,67,L00067,CREAT,Creatinine,CHEMISTRY,1.01,mg/dL,0.6,1.2,1.01,1.01,mg/dL,0.6,1.2,NORMAL,,WEEK 12,7,2025-02-18,84
STUDY001,LB,STUDY001-SUBJ0003,68,L00068,BILI,Total Bilirubin,CHEMISTRY,0.5,mg/dL,0.1,1.2,0.5,0.5,mg/dL,0.1,1.2,NORMAL,,WEEK 12,7,2025-02-18,84
STUDY001,LB,STUDY001-SUBJ0003,69,L00069,ALP,Alkaline Phosphatase,CHEMISTRY,54.75,U/L,44.0,147.0,54.75,54.75,U/L,44.0,147.0,NORMAL,,WEEK 12,7,2025-02-18,84
STUDY001,LB,STUDY001-SUBJ0003,70,L00070,ALT,Alanine Aminotransferase,CHEMISTRY,7.26,U/L,7.0,56.0,7.26,7.26,U/L,7.0,56.0,NORMAL,,WEEK 12,7,2025-02-18,84
STUDY001,LB,STUDY001-SUBJ0003,71,L00071,HGB,Hemoglobin,HEMATOLOGY,15.9,g/dL,13.5,17.5,15.9,15.9,g/dL,13.5,17.5,NORMAL,,WEEK 16,8,2025-03-18,112
STUDY001,LB,STUDY001-SUBJ0003,72,L00072,HCT,Hematocrit,HEMATOLOGY,51.24,%,41.0,51.0,51.24,51.24,%,41.0,51.0,HIGH,,WEEK 16,8,2025-03-18,112
STUDY001,LB,STUDY001-SUBJ0003,73,L00073,WBC,White Blood Cell Count,HEMATOLOGY,8.08,10^9/L,4.5,11.0,8.08,8.08,10^9/L,4.5,11.0,NORMAL,,WEEK 16,8,2025-03-18,112
STUDY001,LB,STUDY001-SUBJ0003,74,L00074,PLT,Platelet Count,HEMATOLOGY,268.14,10^9/L,150.0,450.0,268.14,268.14,10^9/L,150.0,450.0,NORMAL,,WEEK 16,8,2025-03-18,112
STUDY001,LB,STUDY001-SUBJ0003,75,L00075,GLUC,Glucose,CHEMISTRY,98.88,mg/dL,70.0,100.0,98.88,98.88,mg/dL,70.0,100.0,NORMAL,,WEEK 16,8,2025-03-18,112
STUDY001,LB,STUDY001-SUBJ0003,76,L00076,BUN,Blood Urea Nitrogen,CHEMISTRY,19.71,mg/dL,7.0,20.0,19.71,19.71,mg/dL,7.0,20.0,NORMAL,,WEEK 16,8,2025-03-18,112
STUDY001,LB,STUDY001-SUBJ0003,77,L00077,CREAT,Creatinine,CHEMISTRY,1.03,mg/dL,0.6,1.2,1.03,1.03,mg/dL,0.6,1.2,NORMAL,,WEEK 16,8,2025-03-18,112
STUDY001,LB,STUDY001-SUBJ0003,78,L00078,BILI,Total Bilirubin,CHEMISTRY,0.45,mg/dL,0.1,1.2,0.45,0.45,mg/dL,0.1,1.2,NORMAL,,WEEK 16,8,2025-03-18,112
STUDY001,LB,STUDY001-SUBJ0003,79,L00079,ALP,Alkaline Phosphatase,CHEMISTRY,53.29,U/L,44.0,147.0,53.29,53.29,U/L,44.0,147.0,NORMAL,,WEEK 16,8,2025-03-18,112
STUDY001,LB,STUDY001-SUBJ0003,80,L00080,ALT,Alanine Aminotransferase,CHEMISTRY,7.76,U/L,7.0,56.0,7.76,7.76,U/L,7.0,56.0,NORMAL,,WEEK 16,8,2025-03-18,112
STUDY001,LB,STUDY001-SUBJ0003,81,L00081,HGB,Hemoglobin,HEMATOLOGY,15.84,g/dL,13.5,17.5,15.84,15.84,g/dL,13.5,17.5,NORMAL,,END OF TREATMENT,9,2025-04-15,140
STUDY001,LB,STUDY001-SUBJ0003,82,L00082,HCT,Hematocrit,HEMATOLOGY,50.45,%,41.0,51.0,50.45,50.45,%,41.0,51.0,NORMAL,,END OF TREATMENT,9,2025-04-15,140
STUDY001,LB,STUDY001-SUBJ0003,83,L00083,WBC,White Blood Cell Count,HEMATOLOGY,7.49,10^9/L,4.5,11.0,7.49,7.49,10^9/L,4.5,11.0,NORMAL,,END OF TREATMENT,9,2025-04-15,140
STUDY001,LB,STUDY001-SUBJ0003,84,L00084,PLT,Platelet Count,HEMATOLOGY,271.99,10^9/L,150.0,450.0,271.99,271.99,10^9/L,150.0,450.0,NORMAL,,END OF TREATMENT,9,2025-04-15,140
STUDY001,LB,STUDY001-SUBJ0003,85,L00085,GLUC,Glucose,CHEMISTRY,98.61,mg/dL,70.0,100.0,98.61,98.61,mg/dL,70.0,100.0,NORMAL,,END OF TREATMENT,9,2025-04-15,140
STUDY001,LB,STUDY001-SUBJ0003,86,L00086,BUN,Blood Urea Nitrogen,CHEMISTRY,19.4,mg/dL,7.0,20.0,19.4,19.4,mg/dL,7.0,20.0,NORMAL,,END OF TREATMENT,9,2025-04-15,140
STUDY001,LB,STUDY001-SUBJ0003,87,L00087,CREAT,Creatinine,CHEMISTRY,1.0,mg/dL,0.6,1.2,1.0,1.0,mg/dL,0.6,1.2,NORMAL,,END OF TREATMENT,9,2025-04-15,140
STUDY001,LB,STUDY001-SUBJ0003,88,L00088,BILI,Total Bilirubin,CHEMISTRY,0.5,mg/dL,0.1,1.2,0.5,0.5,mg/dL,0.1,1.2,NORMAL,,END OF TREATMENT,9,2025-04-15,140
STUDY001,LB,STUDY001-SUBJ0003,89,L00089,ALP,Alkaline Phosphatase,CHEMISTRY,50.8,U/L,44.0,147.0,50.8,50.8,U/L,44.0,147.0,NORMAL,,END OF TREATMENT,9,2025-04-15,140
STUDY001,LB,STUDY001-SUBJ0003,90,L00090,ALT,Alanine Aminotransferase,CHEMISTRY,8.75,U/L,7.0,56.0,8.75,8.75,U/L,7.0,56.0,NORMAL,,END OF TREATMENT,9,2025-04-15,140
STUDY001,LB,STUDY001-SUBJ0004,1,L00001,HGB,Hemoglobin,HEMATOLOGY,15.1,g/dL,13.5,17.5,15.1,15.1,g/dL,13.5,17.5,NORMAL,,SCREENING,1,2024-08-12,-14
STUDY001,LB,STUDY001-SUBJ0004,2,L00002,HCT,Hematocrit,HEMATOLOGY,43.61,%,41.0,51.0,43.61,43.61,%,41.0,51.0,NORMAL,,SCREENING,1,2024-08-12,-14
STUDY001,LB,STUDY001-SUBJ0004,3,L00003,WBC,White Blood Cell Count,HEMATOLOGY,5.65,10^9/L,4.5,11.0,5.65,5.65,10^9/L,4.5,11.0,NORMAL,,SCREENING,1,2024-08-12,-14
STUDY001,LB,STUDY001-SUBJ0004,4,L00004,PLT,Platelet Count,HEMATOLOGY,272.48,10^9/L,150.0,450.0,272.48,272.48,10^9/L,150.0,450.0,NORMAL,,SCREENING,1,2024-08-12,-14
STUDY001,LB,STUDY001-SUBJ0004,5,L00005,GLUC,Glucose,CHEMISTRY,91.74,mg/dL,70.0,100.0,91.74,91.74,mg/dL,70.0,100.0,NORMAL,,SCREENING,1,2024-08-12,-14
STUDY001,LB,STUDY001-SUBJ0004,6,L00006,BUN,Blood Urea Nitrogen,CHEMISTRY,20.65,mg/dL,7.0,20.0,20.65,20.65,mg/dL,7.0,20.0,HIGH,,SCREENING,1,2024-08-12,-14
STUDY001,LB,STUDY001-SUBJ0004,7,L00007,CREAT,Creatinine,CHEMISTRY,0.86,mg/dL,0.6,1.2,0.86,0.86,mg/dL,0.6,1.2,NORMAL,,SCREENING,1,2024-08-12,-14
STUDY001,LB,STUDY001-SUBJ0004,8,L00008,BILI,Total Bilirubin,CHEMISTRY,0.8,mg/dL,0.1,1.2,0.8,0.8,mg/dL,0.1,1.2,NORMAL,,SCREENING,1,2024-08-12,-14
STUDY001,LB,STUDY001-SUBJ0004,9,L00009,ALP,Alkaline Phosphatase,CHEMISTRY,101.88,U/L,44.0,147.0,101.88,101.88,U/L,44.0,147.0,NORMAL,,SCREENING,1,2024-08-12,-14
STUDY001,LB,STUDY001-SUBJ0004,10,L00010,ALT,Alanine Aminotransferase,CHEMISTRY,23.08,U/L,7.0,56.0,23.08,23.08,U/L,7.0,56.0,NORMAL,,SCREENING,1,2024-08-12,-14
STUDY001,LB,STUDY001-SUBJ0004,11,L00011,HGB,Hemoglobin,HEMATOLOGY,15.13,g/dL,13.5,17.5,15.13,15.13,g/dL,13.5,17.5,NORMAL,Y,BASELINE,2,2024-08-26,1
STUDY001,LB,STUDY001-SUBJ0004,12,L00012,HCT,Hematocrit,HEMATOLOGY,43.25,%,41.0,51.0,43.25,43.25,%,41.0,51.0,NORMAL,Y,BASELINE,2,2024-08-26,1
STUDY001,LB,STUDY001-SUBJ0004,13,L00013,WBC,White Blood Cell Count,HEMATOLOGY,5.87,10^9/L,4.5,11.0,5.87,5.87,10^9/L,4.5,11.0,NORMAL,Y,BASELINE,2,2024-08-26,1
STUDY001,LB,STUDY001-SUBJ0004,14,L00014,PLT,Platelet Count,HEMATOLOGY,267.14,10^9/L,150.0,450.0,267.14,267.14,10^9/L,150.0,450.0,NORMAL,Y,BASELINE,2,2024-08-26,1
STUDY001,LB,STUDY001-SUBJ0004,15,L00015,GLUC,Glucose,CHEMISTRY,93.21,mg/dL,70.0,100.0,93.21,93.21,mg/dL,70.0,100.0,NORMAL,Y,BASELINE,2,2024-08-26,1
STUDY001,LB,STUDY001-SUBJ0004,16,L00016,BUN,Blood Urea Nitrogen,CHEMISTRY,18.84,mg/dL,7.0,20.0,18.84,18.84,mg/dL,7.0,20.0,NORMAL,Y,BASELINE,2,2024-08-26,1
STUDY001,LB,STUDY001-SUBJ0004,17,L00017,CREAT,Creatinine,CHEMISTRY,0.86,mg/dL,0.6,1.2,0.86,0.86,mg/dL,0.6,1.2,NORMAL,Y,BASELINE,2,2024-08-26,1
STUDY001,LB,STUDY001-SUBJ0004,18,L00018,BILI,Total Bilirubin,CHEMISTRY,0.9,mg/dL,0.1,1.2,0.9,0.9,mg/dL,0.1,1.2,NORMAL,Y,BASELINE,2,2024-08-26,1
STUDY001,LB,STUDY001-SUBJ0004,19,L00019,ALP,Alkaline Phosphatase,CHEMISTRY,103.92,U/L,44.0,147.0,103.92,103.92,U/L,44.0,147.0,NORMAL,Y,BASELINE,2,2024-08-26,1
STUDY001,LB,STUDY001-SUBJ0004,20,L00020,ALT,Alanine Aminotransferase,CHEMISTRY,22.45,U/L,7.0,56.0,22.45,22.45,U/L,7.0,56.0,NORMAL,Y,BASELINE,2,2024-08-26,1
STUDY001,LB,STUDY001-SUBJ0004,21,L00021,HGB,Hemoglobin,HEMATOLOGY,15.24,g/dL,13.5,17.5,15.24,15.24,g/dL,13.5,17.5,NORMAL,,WEEK 1,3,2024-09-01,7
STUDY001,LB,STUDY001-SUBJ0004,22,L00022,HCT,Hematocrit,HEMATOLOGY,43.52,%,41.0,51.0,43.52,43.52,%,41.0,51.0,NORMAL,,WEEK 1,3,2024-09-01,7
STUDY001,LB,STUDY001-SUBJ0004,23,L00023,WBC,White Blood Cell Count,HEMATOLOGY,5.72,10^9/L,4.5,11.0,5.72,5.72,10^9/L,4.5,11.0,NORMAL,,WEEK 1,3,2024-09-01,7
STUDY001,LB,STUDY001-SUBJ0004,24,L00024,PLT,Platelet Count,HEMATOLOGY,260.89,10^9/L,150.0,450.0,260.89,260.89,10^9/L,150.0,450.0,NORMAL,,WEEK 1,3,2024-09-01,7
STUDY001,LB,STUDY001-SUBJ0004,25,L00025,GLUC,Glucose,CHEMISTRY,93.76,mg/dL,70.0,100.0,93.76,93.76,mg/dL,70.0,100.0,NORMAL,,WEEK 1,3,2024-09-01,7
STUDY001,LB,STUDY001-SUBJ0004,26,L00026,BUN,Blood Urea Nitrogen,CHEMISTRY,19.2,mg/dL,7.0,20.0,19.2,19.2,mg/dL,7.0,20.0,NORMAL,,WEEK 1,3,2024-09-01,7
STUDY001,LB,STUDY001-SUBJ0004,27,L00027,CREAT,Creatinine,CHEMISTRY,0.86,mg/dL,0.6,1.2,0.86,0.86,mg/dL,0.6,1.2,NORMAL,,WEEK 1,3,2024-09-01,7
STUDY001,LB,STUDY001-SUBJ0004,28,L00028,BILI,Total Bilirubin,CHEMISTRY,0.87,mg/dL,0.1,1.2,0.87,0.87,mg/dL,0.1,1.2,NORMAL,,WEEK 1,3,2024-09-01,7
STUDY001,LB,STUDY001-SUBJ0004,29,L00029,ALP,Alkaline Phosphatase,CHEMISTRY,104.69,U/L,44.0,147.0,104.69,104.69,U/L,44.0,147.0,NORMAL,,WEEK 1,3,2024-09-01,7
STUDY001,LB,STUDY001-SUBJ0004,30,L00030,ALT,Alanine Aminotransferase,CHEMISTRY,21.39,U/L,7.0,56.0,21.39,21.39,U/L,7.0,56.0,NORMAL,,WEEK 1,3,2024-09-01,7
STUDY001,LB,STUDY001-SUBJ0004,31,L00031,HGB,Hemoglobin,HEMATOLOGY,15.24,g/dL,13.5,17.5,15.24,15.24,g/dL,13.5,17.5,NORMAL,,WEEK 2,4,2024-09-08,14
STUDY001,LB,STUDY001-SUBJ0004,32,L00032,HCT,Hematocrit,HEMATOLOGY,43.5,%,41.0,51.0,43.5,43.5,%,41.0,51.0,NORMAL,,WEEK 2,4,2024-09-08,14
STUDY001,LB,STUDY001-SUBJ0004,33,L00033,WBC,White Blood Cell Count,HEMATOLOGY,5.52,10^9/L,4.5,11.0,5.52,5.52,10^9/L,4.5,11.0,NORMAL,,WEEK 2,4,2024-09-08,14
STUDY001,LB,STUDY001-SUBJ0004,34,L00034,PLT,Platelet Count,HEMATOLOGY,265.03,10^9/L,150.0,450.0,265.03,265.03,10^9/L,150.0,450.0,NORMAL,,WEEK 2,4,2024-09-08,14
STUDY001,LB,STUDY001-SUBJ0004,35,L00035,GLUC,Glucose,CHEMISTRY,90.88,mg/dL,70.0,100.0,90.88,90.88,mg/dL,70.0,100.0,NORMAL,,WEEK 2,4,2024-09-08,14
STUDY001,LB,STUDY001-SUBJ0004,36,L00036,BUN,Blood Urea Nitrogen,CHEMISTRY,19.33,mg/dL,7.0,20.0,19.33,19.33,mg/dL,7.0,20.0,NORMAL,,WEEK 2,4,2024-09-08,14
STUDY001,LB,STUDY001-SUBJ0004,37,L00037,CREAT,Creatinine,CHEMISTRY,0.84,mg/dL,0.6,1.2,0.84,0.84,mg/dL,0.6,1.2,NORMAL,,WEEK 2,4,2024-09-08,14
STUDY001,LB,STUDY001-SUBJ0004,38,L00038,BILI,Total Bilirubin,CHEMISTRY,0.83,mg/dL,0.1,1.2,0.83,0.83,mg/dL,0.1,1.2,NORMAL,,WEEK 2,4,2024-09-08,14
STUDY001,LB,STUDY001-SUBJ0004,39,L00039,ALP,Alkaline Phosphatase,CHEMISTRY,103.37,U/L,44.0,147.0,103.37,103.37,U/L,44.0,147.0,NORMAL,,WEEK 2,4,2024-09-08,14
STUDY001,LB,STUDY001-SUBJ0004,40,L00040,ALT,Alanine Aminotransferase,CHEMISTRY,22.57,U/L,7.0,56.0,22.57,22.57,U/L,7.0,56.0,NORMAL,,WEEK 2,4,2024-09-08,14
STUDY001,LB,STUDY001-SUBJ0004,41,L00041,HGB,Hemoglobin,HEMATOLOGY,14.98,g/dL,13.5,17.5,14.98,14.98,g/dL,13.5,17.5,NORMAL,,WEEK 4,5,2024-09-22,28
STUDY001,LB,STUDY001-SUBJ0004,42,L00042,HCT,Hematocrit,HEMATOLOGY,43.57,%,41.0,51.0,43.57,43.57,%,41.0,51.0,NORMAL,,WEEK 4,5,2024-09-22,28
STUDY001,LB,STUDY001-SUBJ0004,43,L00043,WBC,White Blood Cell Count,HEMATOLOGY,5.39,10^9/L,4.5,11.0,5.39,5.39,10^9/L,4.5,11.0,NORMAL,,WEEK 4,5,2024-09-22,28
STUDY001,LB,STUDY001-SUBJ0004,44,L00044,PLT,Platelet Count,HEMATOLOGY,270.85,10^9/L,150.0,450.0,270.85,270.85,10^9/L,150.0,450.0,NORMAL,,WEEK 4,5,2024-09-22,28
STUDY001,LB,STUDY001-SUBJ0004,45,L00045,GLUC,Glucose,CHEMISTRY,92.16,mg/dL,70.0,100.0,92.16,92.16,mg/dL,70.0,100.0,NORMAL,,WEEK 4,5,2024-09-22,28
STUDY001,LB,STUDY001-SUBJ0004,46,L00046,BUN,Blood Urea Nitrogen,CHEMISTRY,20.01,mg/dL,7.0,20.0,20.01,20.01,mg/dL,7.0,20.0,HIGH,,WEEK 4,5,2024-09-22,28
STUDY001,LB,STUDY001-SUBJ0004,47,L00047,CREAT,Creatinine,CHEMISTRY,0.87,mg/dL,0.6,1.2,0.87,0.87,mg/dL,0.6,1.2,NORMAL,,WEEK 4,5,2024-09-22,28
STUDY001,LB,STUDY001-SUBJ0004,48,L00048,BILI,Total Bilirubin,CHEMISTRY,0.85,mg/dL,0.1,1.2,0.85,0.85,mg/dL,0.1,1.2,NORMAL,,WEEK 4,5,2024-09-22,28
STUDY001,LB,STUDY001-SUBJ0004,49,L00049,ALP,Alkaline Phosphatase,CHEMISTRY,102.53,U/L,44.0,147.0,102.53,102.53,U/L,44.0,147.0,NORMAL,,WEEK 4,5,2024-09-22,28
STUDY001,LB,STUDY001-SUBJ0004,50,L00050,ALT,Alanine Aminotransferase,CHEMISTRY,22.13,U/L,7.0,56.0,22.13,22.13,U/L,7.0,56.0,NORMAL,,WEEK 4,5,2024-09-22,28
STUDY001,LB,STUDY001-SUBJ0004,51,L00051,HGB,Hemoglobin,HEMATOLOGY,15.01,g/dL,13.5,17.5,15.01,15.01,g/dL,13.5,17.5,NORMAL,,WEEK 8,6,2024-10-20,56
STUDY001,LB,STUDY001-SUBJ0004,52,L00052,HCT,Hematocrit,HEMATOLOGY,43.46,%,41.0,51.0,43.46,43.46,%,41.0,51.0,NORMAL,,WEEK 8,6,2024-10-20,56
STUDY001,LB,STUDY001-SUBJ0004,53,L00053,WBC,White Blood Cell Count,HEMATOLOGY,5.69,10^9/L,4.5,11.0,5.69,5.69,10^9/L,4.5,11.0,NORMAL,,WEEK 8,6,2024-10-20,56
STUDY001,LB,STUDY001-SUBJ0004,54,L00054,PLT,Platelet Count,HEMATOLOGY,266.1,10^9/L,150.0,450.0,266.1,266.1,10^9/L,150.0,450.0,NORMAL,,WEEK 8,6,2024-10-20,56
STUDY001,LB,STUDY001-SUBJ0004,55,L00055,GLUC,Glucose,CHEMISTRY,93.06,mg/dL,70.0,100.0,93.06,93.06,mg/dL,70.0,100.0,NORMAL,,WEEK 8,6,2024-10-20,56
STUDY001,LB,STUDY001-SUBJ0004,56,L00056,BUN,Blood Urea Nitrogen,CHEMISTRY,18.94,mg/dL,7.0,20.0,18.94,18.94,mg/dL,7.0,20.0,NORMAL,,WEEK 8,6,2024-10-20,56
STUDY001,LB,STUDY001-SUBJ0004,57,L00057,CREAT,Creatinine,CHEMISTRY,0.86,mg/dL,0.6,1.2,0.86,0.86,mg/dL,0.6,1.2,NORMAL,,WEEK 8,6,2024-10-20,56
STUDY001,LB,STUDY001-SUBJ0004,58,L00058,BILI,Total Bilirubin,CHEMISTRY,0.84,mg/dL,0.1,1.2,0.84,0.84,mg/dL,0.1,1.2,NORMAL,,WEEK 8,6,2024-10-20,56
STUDY001,LB,STUDY001-SUBJ0004,59,L00059,ALP,Alkaline Phosphatase,CHEMISTRY,103.0,U/L,44.0,147.0,103.0,103.0,U/L,44.0,147.0,NORMAL,,WEEK 8,6,2024-10-20,56
STUDY001,LB,STUDY001-SUBJ0004,60,L00060,ALT,Alanine Aminotransferase,CHEMISTRY,20.58,U/L,7.0,56.0,20.58,20.58,U/L,7.0,56.0,NORMAL,,WEEK 8,6,2024-10-20,56
STUDY001,LB,STUDY001-SUBJ0004,61,L00061,HGB,Hemoglobin,HEMATOLOGY,15.25,g/dL,13.5,17.5,15.25,15.25,g/dL,13.5,17.5,NORMAL,,WEEK 12,7,2024-11-17,84
STUDY001,LB,STUDY001-SUBJ0004,62,L00062,HCT,Hematocrit,HEMATOLOGY,43.49,%,41.0,51.0,43.49,43.49,%,41.0,51.0,NORMAL,,WEEK 12,7,2024-11-17,84
STUDY001,LB,STUDY001-SUBJ0004,63,L00063,WBC,White Blood Cell Count,HEMATOLOGY,5.6,10^9/L,4.5,11.0,5.6,5.6,10^9/L,4.5,11.0,NORMAL,,WEEK 12,7,2024-11-17,84
STUDY001,LB,STUDY001-SUBJ0004,64,L00064,PLT,Platelet Count,HEMATOLOGY,263.95,10^9/L,150.0,450.0,263.95,263.95,10^9/L,150.0,450.0,NORMAL,,WEEK 12,7,2024-11-17,84
STUDY001,LB,STUDY001-SUBJ0004,65,L00065,GLUC,Glucose,CHEMISTRY,93.95,mg/dL,70.0,100.0,93.95,93.95,mg/dL,70.0,100.0,NORMAL,,WEEK 12,7,2024-11-17,84
STUDY001,LB,STUDY001-SUBJ0004,66,L00066,BUN,Blood Urea Nitrogen,CHEMISTRY,19.42,mg/dL,7.0,20.0,19.42,19.42,mg/dL,7.0,20.0,NORMAL,,WEEK 12,7,2024-11-17,84
STUDY001,LB,STUDY001-SUBJ0004,67,L00067,CREAT,Creatinine,CHEMISTRY,0.84,mg/dL,0.6,1.2,0.84,0.84,mg/dL,0.6,1.2,NORMAL,,WEEK 12,7,2024-11-17,84
STUDY001,LB,STUDY001-SUBJ0004,68,L00068,BILI,Total Bilirubin,CHEMISTRY,0.85,mg/dL,0.1,1.2,0.85,0.85,mg/dL,0.1,1.2,NORMAL,,WEEK 12,7,2024-11-17,84
STUDY001,LB,STUDY001-SUBJ0004,69,L00069,ALP,Alkaline Phosphatase,CHEMISTRY,102.29,U/L,44.0,147.0,102.29,102.29,U/L,44.0,147.0,NORMAL,,WEEK 12,7,2024-11-17,84
STUDY001,LB,STUDY001-SUBJ0004,70,L00070,ALT,Alanine Aminotransferase,CHEMISTRY,22.03,U/L,7.0,56.0,22.03,22.03,U/L,7.0,56.0,NORMAL,,WEEK 12,7,2024-11-17,84
STUDY001,LB,STUDY001-SUBJ0004,71,L00071,HGB,Hemoglobin,HEMATOLOGY,15.12,g/dL,13.5,17.5,15.12,15.12,g/dL,13.5,17.5,NORMAL,,WEEK 16,8,2024-12-15,112
STUDY001,LB,STUDY001-SUBJ0004,72,L00072,HCT,Hematocrit,HEMATOLOGY,43.64,%,41.0,51.0,43.64,43.64,%,41.0,51.0,NORMAL,,WEEK 16,8,2024-12-15,112
STUDY001,LB,STUDY001-SUBJ0004,73,L00073,WBC,White Blood Cell Count,HEMATOLOGY,5.64,10^9/L,4.5,11.0,5.64,5.64,10^9/L,4.5,11.0,NORMAL,,WEEK 16,8,2024-12-15,112
STUDY001,LB,STUDY001-SUBJ0004,74,L00074,PLT,Platelet Count,HEMATOLOGY,263.98,10^9/L,150.0,450.0,263.98,263.98,10^9/L,150.0,450.0,NORMAL,,WEEK 16,8,2024-12-15,112
STUDY001,LB,STUDY001-SUBJ0004,75,L00075,GLUC,Glucose,CHEMISTRY,92.64,mg/dL,70.0,100.0,92.64,92.64,mg/dL,70.0,100.0,NORMAL,,WEEK 16,8,2024-12-15,112
STUDY001,LB,STUDY001-SUBJ0004,76,L00076,BUN,Blood Urea Nitrogen,CHEMISTRY,19.07,mg/dL,7.0,20.0,19.07,19.07,mg/dL,7.0,20.0,NORMAL,,WEEK 16,8,2024-12-15,112
STUDY001,LB,STUDY001-SUBJ0004,77,L00077,CREAT,Creatinine,CHEMISTRY,0.85,mg/dL,0.6,1.2,0.85,0.85,mg/dL,0.6,1.2,NORMAL,,WEEK 16,8,2024-12-15,112
STUDY001,LB,STUDY001-SUBJ0004,78,L00078,BILI,Total Bilirubin,CHEMISTRY,0.86,mg/dL,0.1,1.2,0.86,0.86,mg/dL,0.1,1.2,NORMAL,,WEEK 16,8,2024-12-15,112
STUDY001,LB,STUDY001-SUBJ0004,79,L00079,ALP,Alkaline Phosphatase,CHEMISTRY,105.19,U/L,44.0,147.0,105.19,105.19,U/L,44.0,147.0,NORMAL,,WEEK 16,8,2024-12-15,112
STUDY001,LB,STUDY001-SUBJ0004,80,L00080,ALT,Alanine Aminotransferase,CHEMISTRY,21.79,U/L,7.0,56.0,21.79,21.79,U/L,7.0,56.0,NORMAL,,WEEK 16,8,2024-12-15,112
STUDY001,LB,STUDY001-SUBJ0004,81,L00081,HGB,Hemoglobin,HEMATOLOGY,15.18,g/dL,13.5,17.5,15.18,15.18,g/dL,13.5,17.5,NORMAL,,END OF TREATMENT,9,2025-01-12,140
STUDY001,LB,STUDY001-SUBJ0004,82,L00082,HCT,Hematocrit,HEMATOLOGY,43.74,%,41.0,51.0,43.74,43.74,%,41.0,51.0,NORMAL,,END OF TREATMENT,9,2025-01-12,140
STUDY001,LB,STUDY001-SUBJ0004,83,L00083,WBC,White Blood Cell Count,HEMATOLOGY,5.51,10^9/L,4.5,11.0,5.51,5.51,10^9/L,4.5,11.0,NORMAL,,END OF TREATMENT,9,2025-01-12,140
STUDY001,LB,STUDY001-SUBJ0004,84,L00084,PLT,Platelet Count,HEMATOLOGY,258.59,10^9/L,150.0,450.0,258.59,258.59,10^9/L,150.0,450.0,NORMAL,,END OF TREATMENT,9,2025-01-12,140
STUDY001,LB,STUDY001-SUBJ0004,85,L00085,GLUC,Glucose,CHEMISTRY,91.66,mg/dL,70.0,100.0,91.66,91.66,mg/dL,70.0,100.0,NORMAL,,END OF TREATMENT,9,2025-01-12,140
STUDY001,LB,STUDY001-SUBJ0004,86,L00086,BUN,Blood Urea Nitrogen,CHEMISTRY,19.9,mg/dL,7.0,20.0,19.9,19.9,mg/dL,7.0,20.0,NORMAL,,END OF TREATMENT,9,2025-01-12,140
STUDY001,LB,STUDY001-SUBJ0004,87,L00087,CREAT,Creatinine,CHEMISTRY,0.87,mg/dL,0.6,1.2,0.87,0.87,mg/dL,0.6,1.2,NORMAL,,END OF TREATMENT,9,2025-01-12,140
STUDY001,LB,STUDY001-SUBJ0004,88,L00088,BILI,Total Bilirubin,CHEMISTRY,0.86,mg/dL,0.1,1.2,0.86,0.86,mg/dL,0.1,1.2,NORMAL,,END OF TREATMENT,9,2025-01-12,140
STUDY001,LB,STUDY001-SUBJ0004,89,L00089,ALP,Alkaline Phosphatase,CHEMISTRY,101.47,U/L,44.0,147.0,101.47,101.47,U/L,44.0,147.0,NORMAL,,END OF TREATMENT,9,2025-01-12,140
STUDY001,LB,STUDY001-SUBJ0004,90,L00090,ALT,Alanine Aminotransferase,CHEMISTRY,22.35,U/L,7.0,56.0,22.35,22.35,U/L,7.0,56.0,NORMAL,,END OF TREATMENT,9,2025-01-12,140
STUDY001,LB,STUDY001-SUBJ0005,1,L00001,HGB,Hemoglobin,HEMATOLOGY,14.84,g/dL,13.5,17.5,14.84,14.84,g/dL,13.5,17.5,NORMAL,,SCREENING,1,2024-09-01,-14
STUDY001,LB,STUDY001-SUBJ0005,2,L00002,HCT,Hematocrit,HEMATOLOGY,51.63,%,41.0,51.0,51.63,51.63,%,41.0,51.0,HIGH,,SCREENING,1,2024-09-01,-14
STUDY001,LB,STUDY001-SUBJ0005,3,L00003,WBC,White Blood Cell Count,HEMATOLOGY,5.56,10^9/L,4.5,11.0,5.56,5.56,10^9/L,4.5,11.0,NORMAL,,SCREENING,1,2024-09-01,-14
STUDY001,LB,STUDY001-SUBJ0005,4,L00004,PLT,Platelet Count,HEMATOLOGY,245.65,10^9/L,150.0,450.0,245.65,245.65,10^9/L,150.0,450.0,NORMAL,,SCREENING,1,2024-09-01,-14
STUDY001,LB,STUDY001-SUBJ0005,5,L00005,GLUC,Glucose,CHEMISTRY,71.67,mg/dL,70.0,100.0,71.67,71.67,mg/dL,70.0,100.0,NORMAL,,SCREENING,1,2024-09-01,-14
STUDY001,LB,STUDY001-SUBJ0005,6,L00006,BUN,Blood Urea Nitrogen,CHEMISTRY,19.41,mg/dL,7.0,20.0,19.41,19.41,mg/dL,7.0,20.0,NORMAL,,SCREENING,1,2024-09-01,-14
STUDY001,LB,STUDY001-SUBJ0005,7,L00007,CREAT,Creatinine,CHEMISTRY,0.95,mg/dL,0.6,1.2,0.95,0.95,mg/dL,0.6,1.2,NORMAL,,SCREENING,1,2024-09-01,-14
STUDY001,LB,STUDY001-SUBJ0005,8,L00008,BILI,Total Bilirubin,CHEMISTRY,0.93,mg/dL,0.1,1.2,0.93,0.93,mg/dL,0.1,1.2,NORMAL,,SCREENING,1,2024-09-01,-14
STUDY001,LB,STUDY001-SUBJ0005,9,L00009,ALP,Alkaline Phosphatase,CHEMISTRY,83.95,U/L,44.0,147.0,83.95,83.95,U/L,44.0,147.0,NORMAL,,SCREENING,1,2024-09-01,-14
STUDY001,LB,STUDY001-SUBJ0005,10,L00010,ALT,Alanine Aminotransferase,CHEMISTRY,27.02,U/L,7.0,56.0,27.02,27.02,U/L,7.0,56.0,NORMAL,,SCREENING,1,2024-09-01,-14
STUDY001,LB,STUDY001-SUBJ0005,11,L00011,HGB,Hemoglobin,HEMATOLOGY,14.94,g/dL,13.5,17.5,14.94,14.94,g/dL,13.5,17.5,NORMAL,Y,BASELINE,2,2024-09-15,1
STUDY001,LB,STUDY001-SUBJ0005,12,L00012,HCT,Hematocrit,HEMATOLOGY,51.31,%,41.0,51.0,51.31,51.31,%,41.0,51.0,HIGH,Y,BASELINE,2,2024-09-15,1
STUDY001,LB,STUDY001-SUBJ0005,13,L00013,WBC,White Blood Cell Count,HEMATOLOGY,5.98,10^9/L,4.5,11.0,5.98,5.98,10^9/L,4.5,11.0,NORMAL,Y,BASELINE,2,2024-09-15,1
STUDY001,LB,STUDY001-SUBJ0005,14,L00014,PLT,Platelet Count,HEMATOLOGY,244.39,10^9/L,150.0,450.0,244.39,244.39,10^9/L,150.0,450.0,NORMAL,Y,BASELINE,2,2024-09-15,1
STUDY001,LB,STUDY001-SUBJ0005,15,L00015,GLUC,Glucose,CHEMISTRY,74.08,mg/dL,70.0,100.0,74.08,74.08,mg/dL,70.0,100.0,NORMAL,Y,BASELINE,2,2024-09-15,1
STUDY001,LB,STUDY001-SUBJ0005,16,L00016,BUN,Blood Urea Nitrogen,CHEMISTRY,19.8,mg/dL,7.0,20.0,19.8,19.8,mg/dL,7.0,20.0,NORMAL,Y,BASELINE,2,2024-09-15,1
STUDY001,LB,STUDY001-SUBJ0005,17,L00017,CREAT,Creatinine,CHEMISTRY,0.97,mg/dL,0.6,1.2,0.97,0.97,mg/dL,0.6,1.2,NORMAL,Y,BASELINE,2,2024-09-15,1
STUDY001,LB,STUDY001-SUBJ0005,18,L00018,BILI,Total Bilirubin,CHEMISTRY,0.88,mg/dL,0.1,1.2,0.88,0.88,mg/dL,0.1,1.2,NORMAL,Y,BASELINE,2,2024-09-15,1
STUDY001,LB,STUDY001-SUBJ0005,19,L00019,ALP,Alkaline Phosphatase,CHEMISTRY,86.04,U/L,44.0,147.0,86.04,86.04,U/L,44.0,147.0,NORMAL,Y,BASELINE,2,2024-09-15,1
STUDY001,LB,STUDY001-SUBJ0005,20,L00020,ALT,Alanine Aminotransferase,CHEMISTRY,28.25,U/L,7.0,56.0,28.25,28.25,U/L,7.0,56.0,NORMAL,Y,BASELINE,2,2024-09-15,1
STUDY001,LB,STUDY001-SUBJ0005,21,L00021,HGB,Hemoglobin,HEMATOLOGY,14.88,g/dL,13.5,17.5,14.88,14.88,g/dL,13.5,17.5,NORMAL,,WEEK 1,3,2024-09-21,7
STUDY001,LB,STUDY001-SUBJ0005,22,L00022,HCT,Hematocrit,HEMATOLOGY,51.46,%,41.0,51.0,51.46,51.46,%,41.0,51.0,HIGH,,WEEK 1,3,2024-09-21,7
STUDY001,LB,STUDY001-SUBJ0005,23,L00023,WBC,White Blood Cell Count,HEMATOLOGY,5.89,10^9/L,4.5,11.0,5.89,5.89,10^9/L,4.5,11.0,NORMAL,,WEEK 1,3,2024-09-21,7
STUDY001,LB,STUDY001-SUBJ0005,24,L00024,PLT,Platelet Count,HEMATOLOGY,250.67,10^9/L,150.0,450.0,250.67,250.67,10^9/L,150.0,450.0,NORMAL,,WEEK 1,3,2024-09-21,7
STUDY001,LB,STUDY001-SUBJ0005,25,L00025,GLUC,Glucose,CHEMISTRY,74.12,mg/dL,70.0,100.0,74.12,74.12,mg/dL,70.0,100.0,NORMAL,,WEEK 1,3,2024-09-21,7
STUDY001,LB,STUDY001-SUBJ0005,26,L00026,BUN,Blood Urea Nitrogen,CHEMISTRY,20.33,mg/dL,7.0,20.0,20.33,20.33,mg/dL,7.0,20.0,HIGH,,WEEK 1,3,2024-09-21,7
STUDY001,LB,STUDY001-SUBJ0005,27,L00027,CREAT,Creatinine,CHEMISTRY,0.93,mg/dL,0.6,1.2,0.93,0.93,mg/dL,0.6,1.2,NORMAL,,WEEK 1,3,2024-09-21,7
STUDY001,LB,STUDY001-SUBJ0005,28,L00028,BILI,Total Bilirubin,CHEMISTRY,0.9,mg/dL,0.1,1.2,0.9,0.9,mg/dL,0.1,1.2,NORMAL,,WEEK 1,3,2024-09-21,7
STUDY001,LB,STUDY001-SUBJ0005,29,L00029,ALP,Alkaline Phosphatase,CHEMISTRY,86.91,U/L,44.0,147.0,86.91,86.91,U/L,44.0,147.0,NORMAL,,WEEK 1,3,2024-09-21,7
STUDY001,LB,STUDY001-SUBJ0005,30,L00030,ALT,Alanine Aminotransferase,CHEMISTRY,28.02,U/L,7.0,56.0,28.02,28.02,U/L,7.0,56.0,NORMAL,,WEEK 1,3,2024-09-21,7
STUDY001,LB,STUDY001-SUBJ0005,31,L00031,HGB,Hemoglobin,HEMATOLOGY,15.12,g/dL,13.5,17.5,15.12,15.12,g/dL,13.5,17.5,NORMAL,,WEEK 2,4,2024-09-28,14
STUDY001,LB,STUDY001-SUBJ0005,32,L00032,HCT,Hematocrit,HEMATOLOGY,51.4,%,41.0,51.0,51.4,51.4,%,41.0,51.0,HIGH,,WEEK 2,4,2024-09-28,14
STUDY001,LB,STUDY001-SUBJ0005,33,L00033,WBC,White Blood Cell Count,HEMATOLOGY,5.75,10^9/L,4.5,11.0,5.75,5.75,10^9/L,4.5,11.0,NORMAL,,WEEK 2,4,2024-09-28,14
STUDY001,LB,STUDY001-SUBJ0005,34,L00034,PLT,Platelet Count,HEMATOLOGY,242.8,10^9/L,150.0,450.0,242.8,242.8,10^9/L,150.0,450.0,NORMAL,,WEEK 2,4,2024-09-28,14
STUDY001,LB,STUDY001-SUBJ0005,35,L00035,GLUC,Glucose,CHEMISTRY,72.45,mg/dL,70.0,100.0,72.45,72.45,mg/dL,70.0,100.0,NORMAL,,WEEK 2,4,2024-09-28,14
STUDY001,LB,STUDY001-SUBJ0005,36,L00036,BUN,Blood Urea Nitrogen,CHEMISTRY,20.17,mg/dL,7.0,20.0,20.17,20.17,mg/dL,7.0,20.0,HIGH,,WEEK 2,4,2024-09-28,14
STUDY001,LB,STUDY001-SUBJ0005,37,L00037,CREAT,Creatinine,CHEMISTRY,0.96,mg/dL,0.6,1.2,0.96,0.96,mg/dL,0.6,1.2,NORMAL,,WEEK 2,4,2024-09-28,14
STUDY001,LB,STUDY001-SUBJ0005,38,L00038,BILI,Total Bilirubin,CHEMISTRY,0.91,mg/dL,0.1,1.2,0.91,0.91,mg/dL,0.1,1.2,NORMAL,,WEEK 2,4,2024-09-28,14
STUDY001,LB,STUDY001-SUBJ0005,39,L00039,ALP,Alkaline Phosphatase,CHEMISTRY,83.11,U/L,44.0,147.0,83.11,83.11,U/L,44.0,147.0,NORMAL,,WEEK 2,4,2024-09-28,14
STUDY001,LB,STUDY001-SUBJ0005,40,L00040,ALT,Alanine Aminotransferase,CHEMISTRY,28.21,U/L,7.0,56.0,28.21,28.21,U/L,7.0,56.0,NORMAL,,WEEK 2,4,2024-09-28,14
STUDY001,LB,STUDY001-SUBJ0005,41,L00041,HGB,Hemoglobin,HEMATOLOGY,14.92,g/dL,13.5,17.5,14.92,14.92,g/dL,13.5,17.5,NORMAL,,WEEK 4,5,2024-10-12,28
STUDY001,LB,STUDY001-SUBJ0005,42,L00042,HCT,Hematocrit,HEMATOLOGY,51.62,%,41.0,51.0,51.62,51.62,%,41.0,51.0,HIGH,,WEEK 4,5,2024-10-12,28
STUDY001,LB,STUDY001-SUBJ0005,43,L00043,WBC,White Blood Cell Count,HEMATOLOGY,5.96,10^9/L,4.5,11.0,5.96,5.96,10^9/L,4.5,11.0,NORMAL,,WEEK 4,5,2024-10-12,28
STUDY001,LB,STUDY001-SUBJ0005,44,L00044,PLT,Platelet Count,HEMATOLOGY,242.08,10^9/L,150.0,450.0,242.08,242.08,10^9/L,150.0,450.0,NORMAL,,WEEK 4,5,2024-10-12,28
STUDY001,LB,STUDY001-SUBJ0005,45,L00045,GLUC,Glucose,CHEMISTRY,73.17,mg/dL,70.0,100.0,73.17,73.17,mg/dL,70.0,100.0,NORMAL,,WEEK 4,5,2024-10-12,28
STUDY001,LB,STUDY001-SUBJ0005,46,L00046,BUN,Blood Urea Nitrogen,CHEMISTRY,20.42,mg/dL,7.0,20.0,20.42,20.42,mg/dL,7.0,20.0,HIGH,,WEEK 4,5,2024-10-12,28
STUDY001,LB,STUDY001-SUBJ0005,47,L00047,CREAT,Creatinine,CHEMISTRY,0.95,mg/dL,0.6,1.2,0.95,0.95,mg/dL,0.6,1.2,NORMAL,,WEEK 4,5,2024-10-12,28
STUDY001,LB,STUDY001-SUBJ0005,48,L00048,BILI,Total Bilirubin,CHEMISTRY,0.95,mg/dL,0.1,1.2,0.95,0.95,mg/dL,0.1,1.2,NORMAL,,WEEK 4,5,2024-10-12,28
STUDY001,LB,STUDY001-SUBJ0005,49,L00049,ALP,Alkaline Phosphatase,CHEMISTRY,84.25,U/L,44.0,147.0,84.25,84.25,U/L,44.0,147.0,NORMAL,,WEEK 4,5,2024-10-12,28
STUDY001,LB,STUDY001-SUBJ0005,50,L00050,ALT,Alanine Aminotransferase,CHEMISTRY,28.09,U/L,7.0,56.0,28.09,28.09,U/L,7.0,56.0,NORMAL,,WEEK 4,5,2024-10-12,28
STUDY001,LB,STUDY001-SUBJ0005,51,L00051,HGB,Hemoglobin,HEMATOLOGY,14.91,g/dL,13.5,17.5,14.91,14.91,g/dL,13.5,17.5,NORMAL,,WEEK 8,6,2024-11-09,56
STUDY001,LB,STUDY001-SUBJ0005,52,L00052,HCT,Hematocrit,HEMATOLOGY,51.41,%,41.0,51.0,51.41,51.41,%,41.0,51.0,HIGH,,WEEK 8,6,2024-11-09,56
STUDY001,LB,STUDY001-SUBJ0005,53,L00053,WBC,White Blood Cell Count,HEMATOLOGY,5.81,10^9/L,4.5,11.0,5.81,5.81,10^9/L,4.5,11.0,NORMAL,,WEEK 8,6,2024-11-09,56
STUDY001,LB,STUDY001-SUBJ0005,54,L00054,PLT,Platelet Count,HEMATOLOGY,235.4,10^9/L,150.0,450.0,235.4,235.4,10^9/L,150.0,450.0,NORMAL,,WEEK 8,6,2024-11-09,56
STUDY001,LB,STUDY001-SUBJ0005,55,L00055,GLUC,Glucose,CHEMISTRY,72.12,mg/dL,70.0,100.0,72.12,72.12,mg/dL,70.0,100.0,NORMAL,,WEEK 8,6,2024-11-09,56
STUDY001,LB,STUDY001-SUBJ0005,56,L00056,BUN,Blood Urea Nitrogen,CHEMISTRY,20.26,mg/dL,7.0,20.0,20.26,20.26,mg/dL,7.0,20.0,HIGH,,WEEK 8,6,2024-11-09,56
STUDY001,LB,STUDY001-SUBJ0005,57,L00057,CREAT,Creatinine,CHEMISTRY,0.98,mg/dL,0.6,1.2,0.98,0.98,mg/dL,0.6,1.2,NORMAL,,WEEK 8,6,2024-11-09,56
STUDY001,LB,STUDY001-SUBJ0005,58,L00058,BILI,Total Bilirubin,CHEMISTRY,0.91,mg/dL,0.1,1.2,0.91,0.91,mg/dL,0.1,1.2,NORMAL,,WEEK 8,6,2024-11-09,56
STUDY001,LB,STUDY001-SUBJ0005,59,L00059,ALP,Alkaline Phosphatase,CHEMISTRY,84.19,U/L,44.0,147.0,84.19,84.19,U/L,44.0,147.0,NORMAL,,WEEK 8,6,2024-11-09,56
STUDY001,LB,STUDY001-SUBJ0005,60,L00060,ALT,Alanine Aminotransferase,CHEMISTRY,28.55,U/L,7.0,56.0,28.55,28.55,U/L,7.0,56.0,NORMAL,,WEEK 8,6,2024-11-09,56
STUDY001,LB,STUDY001-SUBJ0005,61,L00061,HGB,Hemoglobin,HEMATOLOGY,14.93,g/dL,13.5,17.5,14.93,14.93,g/dL,13.5,17.5,NORMAL,,WEEK 12,7,2024-12-07,84
STUDY001,LB,STUDY001-SUBJ0005,62,L00062,HCT,Hematocrit,HEMATOLOGY,51.55,%,41.0,51.0,51.55,51.55,%,41.0,51.0,HIGH,,WEEK 12,7,2024-12-07,84
STUDY001,LB,STUDY001-SUBJ0005,63,L00063,WBC,White Blood Cell Count,HEMATOLOGY,5.82,10^9/L,4.5,11.0,5.82,5.82,10^9/L,4.5,11.0,NORMAL,,WEEK 12,7,2024-12-07,84
STUDY001,LB,STUDY001-SUBJ0005,64,L00064,PLT,Platelet Count,HEMATOLOGY,240.34,10^9/L,150.0,450.0,240.34,240.34,10^9/L,150.0,450.0,NORMAL,,WEEK 12,7,2024-12-07,84
STUDY001,LB,STUDY001-SUBJ0005,65,L00065,GLUC,Glucose,CHEMISTRY,73.8,mg/dL,70.0,100.0,73.8,73.8,mg/dL,70.0,100.0,NORMAL,,WEEK 12,7,2024-12-07,84
STUDY001,LB,STUDY001-SUBJ0005,66,L00066,BUN,Blood Urea Nitrogen,CHEMISTRY,20.86,mg/dL,7.0,20.0,20.86,20.86,mg/dL,7.0,20.0,HIGH,,WEEK 12,7,2024-12-07,84
STUDY001,LB,STUDY001-SUBJ0005,67,L00067,CREAT,Creatinine,CHEMISTRY,0.94,mg/dL,0.6,1.2,0.94,0.94,mg/dL,0.6,1.2,NORMAL,,WEEK 12,7,2024-12-07,84
STUDY001,LB,STUDY001-SUBJ0005,68,L00068,BILI,Total Bilirubin,CHEMISTRY,0.91,mg/dL,0.1,1.2,0.91,0.91,mg/dL,0.1,1.2,NORMAL,,WEEK 12,7,2024-12-07,84
STUDY001,LB,STUDY001-SUBJ0005,69,L00069,ALP,Alkaline Phosphatase,CHEMISTRY,84.87,U/L,44.0,147.0,84.87,84.87,U/L,44.0,147.0,NORMAL,,WEEK 12,7,2024-12-07,84
STUDY001,LB,STUDY001-SUBJ0005,70,L00070,ALT,Alanine Aminotransferase,CHEMISTRY,27.45,U/L,7.0,56.0,27.45,27.45,U/L,7.0,56.0,NORMAL,,WEEK 12,7,2024-12-07,84
STUDY001,LB,STUDY001-SUBJ0005,71,L00071,HGB,Hemoglobin,HEMATOLOGY,14.94,g/dL,13.5,17.5,14.94,14.94,g/dL,13.5,17.5,NORMAL,,WEEK 16,8,2025-01-04,112
STUDY001,LB,STUDY001-SUBJ0005,72,L00072,HCT,Hematocrit,HEMATOLOGY,51.54,%,41.0,51.0,51.54,51.54,%,41.0,51.0,HIGH,,WEEK 16,8,2025-01-04,112
STUDY001,LB,STUDY001-SUBJ0005,73,L00073,WBC,White Blood Cell Count,HEMATOLOGY,5.64,10^9/L,4.5,11.0,5.64,5.64,10^9/L,4.5,11.0,NORMAL,,WEEK 16,8,2025-01-04,112
STUDY001,LB,STUDY001-SUBJ0005,74,L00074,PLT,Platelet Count,HEMATOLOGY,242.9,10^9/L,150.0,450.0,242.9,242.9,10^9/L,150.0,450.0,NORMAL,,WEEK 16,8,2025-01-04,112
STUDY001,LB,STUDY001-SUBJ0005,75,L00075,GLUC,Glucose,CHEMISTRY,71.48,mg/dL,70.0,100.0,71.48,71.48,mg/dL,70.0,100.0,NORMAL,,WEEK 16,8,2025-01-04,112
STUDY001,LB,STUDY001-SUBJ0005,76,L00076,BUN,Blood Urea Nitrogen,CHEMISTRY,19.94,mg/dL,7.0,20.0,19.94,19.94,mg/dL,7.0,20.0,NORMAL,,WEEK 16,8,2025-01-04,112
STUDY001,LB,STUDY001-SUBJ0005,77,L00077,CREAT,Creatinine,CHEMISTRY,0.93,mg/dL,0.6,1.2,0.93,0.93,mg/dL,0.6,1.2,NORMAL,,WEEK 16,8,2025-01-04,112
STUDY001,LB,STUDY001-SUBJ0005,78,L00078,BILI,Total Bilirubin,CHEMISTRY,0.88,mg/dL,0.1,1.2,0.88,0.88,mg/dL,0.1,1.2,NORMAL,,WEEK 16,8,2025-01-04,112
STUDY001,LB,STUDY001-SUBJ0005,79,L00079,ALP,Alkaline Phosphatase,CHEMISTRY,84.21,U/L,44.0,147.0,84.21,84.21,U/L,44.0,147.0,NORMAL,,WEEK 16,8,2025-01-04,112
STUDY001,LB,STUDY001-SUBJ0005,80,L00080,ALT,Alanine Aminotransferase,CHEMISTRY,26.28,U/L,7.0,56.0,26.28,26.28,U/L,7.0,56.0,NORMAL,,WEEK 16,8,2025-01-04,112
STUDY001,LB,STUDY001-SUBJ0005,81,L00081,HGB,Hemoglobin,HEMATOLOGY,15.1,g/dL,13.5,17.5,15.1,15.1,g/dL,13.5,17.5,NORMAL,,END OF TREATMENT,9,2025-02-01,140
STUDY001,LB,STUDY001-SUBJ0005,82,L00082,HCT,Hematocrit,HEMATOLOGY,51.98,%,41.0,51.0,51.98,51.98,%,41.0,51.0,HIGH,,END OF TREATMENT,9,2025-02-01,140
STUDY001,LB,STUDY001-SUBJ0005,83,L00083,WBC,White Blood Cell Count,HEMATOLOGY,5.68,10^9/L,4.5,11.0,5.68,5.68,10^9/L,4.5,11.0,NORMAL,,END OF TREATMENT,9,2025-02-01,140
STUDY001,LB,STUDY001-SUBJ0005,84,L00084,PLT,Platelet Count,HEMATOLOGY,236.74,10^9/L,150.0,450.0,236.74,236.74,10^9/L,150.0,450.0,NORMAL,,END OF TREATMENT,9,2025-02-01,140
STUDY001,LB,STUDY001-SUBJ0005,85,L00085,GLUC,Glucose,CHEMISTRY,72.71,mg/dL,70.0,100.0,72.71,72.71,mg/dL,70.0,100.0,NORMAL,,END OF TREATMENT,9,2025-02-01,140
STUDY001,LB,STUDY001-SUBJ0005,86,L00086,BUN,Blood Urea Nitrogen,CHEMISTRY,19.78,mg/dL,7.0,20.0,19.78,19.78,mg/dL,7.0,20.0,NORMAL,,END OF TREATMENT,9,2025-02-01,140
STUDY001,LB,STUDY001-SUBJ0005,87,L00087,CREAT,Creatinine,CHEMISTRY,0.97,mg/dL,0.6,1.2,0.97,0.97,mg/dL,0.6,1.2,NORMAL,,END OF TREATMENT,9,2025-02-01,140
STUDY001,LB,STUDY001-SUBJ0005,88,L00088,BILI,Total Bilirubin,CHEMISTRY,0.9,mg/dL,0.1,1.2,0.9,0.9,mg/dL,0.1,1.2,NORMAL,,END OF TREATMENT,9,2025-02-01,140
STUDY001,LB,STUDY001-SUBJ0005,89,L00089,ALP,Alkaline Phosphatase,CHEMISTRY,85.06,U/L,44.0,147.0,85.06,85.06,U/L,44.0,147.0,NORMAL,,END OF TREATMENT,9,2025-02-01,140
STUDY001,LB,STUDY001-SUBJ0005,90,L00090,ALT,Alanine Aminotransferase,CHEMISTRY,27.4,U/L,7.0,56.0,27.4,27.4,U/L,7.0,56.0,NORMAL,,END OF TREATMENT,9,2025-02-01,140
STUDY001,LB,STUDY001-SUBJ0006,1,L00001,HGB,Hemoglobin,HEMATOLOGY,15.73,g/dL,13.5,17.5,15.73,15.73,g/dL,13.5,17.5,NORMAL,,SCREENING,1,2025-05-29,-14
STUDY001,LB,STUDY001-SUBJ0006,2,L00002,HCT,Hematocrit,HEMATOLOGY,45.65,%,41.0,51.0,45.65,45.65,%,41.0,51.0,NORMAL,,SCREENING,1,2025-05-29,-14
STUDY001,LB,STUDY001-SUBJ0006,3,L00003,WBC,White Blood Cell Count,HEMATOLOGY,7.8,10^9/L,4.5,11.0,7.8,7.8,10^9/L,4.5,11.0,NORMAL,,SCREENING,1,2025-05-29,-14
STUDY001,LB,STUDY001-SUBJ0006,4,L00004,PLT,Platelet Count,HEMATOLOGY,325.4,10^9/L,150.0,450.0,325.4,325.4,10^9/L,150.0,450.0,NORMAL,,SCREENING,1,2025-05-29,-14
STUDY001,LB,STUDY001-SUBJ0006,5,L00005,GLUC,Glucose,CHEMISTRY,78.58,mg/dL,70.0,100.0,78.58,78.58,mg/dL,70.0,100.0,NORMAL,,SCREENING,1,2025-05-29,-14
STUDY001,LB,STUDY001-SUBJ0006,6,L00006,BUN,Blood Urea Nitrogen,CHEMISTRY,12.41,mg/dL,7.0,20.0,12.41,12.41,mg/dL,7.0,20.0,NORMAL,,SCREENING,1,2025-05-29,-14
STUDY001,LB,STUDY001-SUBJ0006,7,L00007,CREAT,Creatinine,CHEMISTRY,0.8,mg/dL,0.6,1.2,0.8,0.8,mg/dL,0.6,1.2,NORMAL,,SCREENING,1,2025-05-29,-14
STUDY001,LB,STUDY001-SUBJ0006,8,L00008,BILI,Total Bilirubin,CHEMISTRY,0.97,mg/dL,0.1,1.2,0.97,0.97,mg/dL,0.1,1.2,NORMAL,,SCREENING,1,2025-05-29,-14
STUDY001,LB,STUDY001-SUBJ0006,9,L00009,ALP,Alkaline Phosphatase,CHEMISTRY,74.2,U/L,44.0,147.0,74.2,74.2,U/L,44.0,147.0,NORMAL,,SCREENING,1,2025-05-29,-14
STUDY001,LB,STUDY001-SUBJ0006,10,L00010,ALT,Alanine Aminotransferase,CHEMISTRY,22.94,U/L,7.0,56.0,22.94,22.94,U/L,7.0,56.0,NORMAL,,SCREENING,1,2025-05-29,-14
STUDY001,LB,STUDY001-SUBJ0006,11,L00011,HGB,Hemoglobin,HEMATOLOGY,15.94,g/dL,13.5,17.5,15.94,15.94,g/dL,13.5,17.5,NORMAL,Y,BASELINE,2,2025-06-12,1
STUDY001,LB,STUDY001-SUBJ0006,12,L00012,HCT,Hematocrit,HEMATOLOGY,45.32,%,41.0,51.0,45.32,45.32,%,41.0,51.0,NORMAL,Y,BASELINE,2,2025-06-12,1
STUDY001,LB,STUDY001-SUBJ0006,13,L00013,WBC,White Blood Cell Count,HEMATOLOGY,7.52,10^9/L,4.5,11.0,7.52,7.52,10^9/L,4.5,11.0,NORMAL,Y,BASELINE,2,2025-06-12,1
STUDY001,LB,STUDY001-SUBJ0006,14,L00014,PLT,Platelet Count,HEMATOLOGY,316.6,10^9/L,150.0,450.0,316.6,316.6,10^9/L,150.0,450.0,NORMAL,Y,BASELINE,2,2025-06-12,1
STUDY001,LB,STUDY001-SUBJ0006,15,L00015,GLUC,Glucose,CHEMISTRY,81.7,mg/dL,70.0,100.0,81.7,81.7,mg/dL,70.0,100.0,NORMAL,Y,BASELINE,2,2025-06-12,1
STUDY001,LB,STUDY001-SUBJ0006,16,L00016,BUN,Blood Urea Nitrogen,CHEMISTRY,12.13,mg/dL,7.0,20.0,12.13,12.13,mg/dL,7.0,20.0,NORMAL,Y,BASELINE,2,2025-06-12,1
STUDY001,LB,STUDY001-SUBJ0006,17,L00017,CREAT,Creatinine,CHEMISTRY,0.8,mg/dL,0.6,1.2,0.8,0.8,mg/dL,0.6,1.2,NORMAL,Y,BASELINE,2,2025-06-12,1
STUDY001,LB,STUDY001-SUBJ0006,18,L00018,BILI,Total Bilirubin,CHEMISTRY,1.0,mg/dL,0.1,1.2,1.0,1.0,mg/dL,0.1,1.2,NORMAL,Y,BASELINE,2,2025-06-12,1
STUDY001,LB,STUDY001-SUBJ0006,19,L00019,ALP,Alkaline Phosphatase,CHEMISTRY,75.44,U/L,44.0,147.0,75.44,75.44,U/L,44.0,147.0,NORMAL,Y,BASELINE,2,2025-06-12,1
STUDY001,LB,STUDY001-SUBJ0006,20,L00020,ALT,Alanine Aminotransferase,CHEMISTRY,24.06,U/L,7.0,56.0,24.06,24.06,U/L,7.0,56.0,NORMAL,Y,BASELINE,2,2025-06-12,1
STUDY001,LB,STUDY001-SUBJ0006,21,L00021,HGB,Hemoglobin,HEMATOLOGY,16.01,g/dL,13.5,17.5,16.01,16.01,g/dL,13.5,17.5,NORMAL,,WEEK 1,3,2025-06-18,7
STUDY001,LB,STUDY001-SUBJ0006,22,L00022,HCT,Hematocrit,HEMATOLOGY,45.2,%,41.0,51.0,45.2,45.2,%,41.0,51.0,NORMAL,,WEEK 1,3,2025-06-18,7
STUDY001,LB,STUDY001-SUBJ0006,23,L00023,WBC,White Blood Cell Count,HEMATOLOGY,7.88,10^9/L,4.5,11.0,7.88,7.88,10^9/L,4.5,11.0,NORMAL,,WEEK 1,3,2025-06-18,7
STUDY001,LB,STUDY001-SUBJ0006,24,L00024,PLT,Platelet Count,HEMATOLOGY,327.3,10^9/L,150.0,450.0,327.3,327.3,10^9/L,150.0,450.0,NORMAL,,WEEK 1,3,2025-06-18,7
STUDY001,LB,STUDY001-SUBJ0006,25,L00025,GLUC,Glucose,CHEMISTRY,80.26,mg/dL,70.0,100.0,80.26,80.26,mg/dL,70.0,100.0,NORMAL,,WEEK 1,3,2025-06-18,7
STUDY001,LB,STUDY001-SUBJ0006,26,L00026,BUN,Blood Urea Nitrogen,CHEMISTRY,12.71,mg/dL,7.0,20.0,12.71,12.71,mg/dL,7.0,20.0,NORMAL,,WEEK 1,3,2025-06-18,7
STUDY001,LB,STUDY001-SUBJ0006,27,L00027,CREAT,Creatinine,CHEMISTRY,0.8,mg/dL,0.6,1.2,0.8,0.8,mg/dL,0.6,1.2,NORMAL,,WEEK 1,3,2025-06-18,7
STUDY001,LB,STUDY001-SUBJ0006,28,L00028,BILI,Total Bilirubin,CHEMISTRY,1.0,mg/dL,0.1,1.2,1.0,1.0,mg/dL,0.1,1.2,NORMAL,,WEEK 1,3,2025-06-18,7
STUDY001,LB,STUDY001-SUBJ0006,29,L00029,ALP,Alkaline Phosphatase,CHEMISTRY,75.41,U/L,44.0,147.0,75.41,75.41,U/L,44.0,147.0,NORMAL,,WEEK 1,3,2025-06-18,7
STUDY001,LB,STUDY001-SUBJ0006,30,L00030,ALT,Alanine Aminotransferase,CHEMISTRY,23.59,U/L,7.0,56.0,23.59,23.59,U/L,7.0,56.0,NORMAL,,WEEK 1,3,2025-06-18,7
STUDY001,LB,STUDY001-SUBJ0006,31,L00031,HGB,Hemoglobin,HEMATOLOGY,15.65,g/dL,13.5,17.5,15.65,15.65,g/dL,13.5,17.5,NORMAL,,WEEK 2,4,2025-06-25,14
STUDY001,LB,STUDY001-SUBJ0006,32,L00032,HCT,Hematocrit,HEMATOLOGY,45.15,%,41.0,51.0,45.15,45.15,%,41.0,51.0,NORMAL,,WEEK 2,4,2025-06-25,14
STUDY001,LB,STUDY001-SUBJ0006,33,L00033,WBC,White Blood Cell Count,HEMATOLOGY,7.69,10^9/L,4.5,11.0,7.69,7.69,10^9/L,4.5,11.0,NORMAL,,WEEK 2,4,2025-06-25,14
STUDY001,LB,STUDY001-SUBJ0006,34,L00034,PLT,Platelet Count,HEMATOLOGY,324.05,10^9/L,150.0,450.0,324.05,324.05,10^9/L,150.0,450.0,NORMAL,,WEEK 2,4,2025-06-25,14
STUDY001,LB,STUDY001-SUBJ0006,35,L00035,GLUC,Glucose,CHEMISTRY,79.4,mg/dL,70.0,100.0,79.4,79.4,mg/dL,70.0,100.0,NORMAL,,WEEK 2,4,2025-06-25,14
STUDY001,LB,STUDY001-SUBJ0006,36,L00036,BUN,Blood Urea Nitrogen,CHEMISTRY,12.82,mg/dL,7.0,20.0,12.82,12.82,mg/dL,7.0,20.0,NORMAL,,WEEK 2,4,2025-06-25,14
STUDY001,LB,STUDY001-SUBJ0006,37,L00037,CREAT,Creatinine,CHEMISTRY,0.8,mg/dL,0.6,1.2,0.8,0.8,mg/dL,0.6,1.2,NORMAL,,WEEK 2,4,2025-06-25,14
STUDY001,LB,STUDY001-SUBJ0006,38,L00038,BILI,Total Bilirubin,CHEMISTRY,0.97,mg/dL,0.1,1.2,0.97,0.97,mg/dL,0.1,1.2,NORMAL,,WEEK 2,4,2025-06-25,14
STUDY001,LB,STUDY001-SUBJ0006,39,L00039,ALP,Alkaline Phosphatase,CHEMISTRY,75.29,U/L,44.0,147.0,75.29,75.29,U/L,44.0,147.0,NORMAL,,WEEK 2,4,2025-06-25,14
STUDY001,LB,STUDY001-SUBJ0006,40,L00040,ALT,Alanine Aminotransferase,CHEMISTRY,20.94,U/L,7.0,56.0,20.94,20.94,U/L,7.0,56.0,NORMAL,,WEEK 2,4,2025-06-25,14
STUDY001,LB,STUDY001-SUBJ0006,41,L00041,HGB,Hemoglobin,HEMATOLOGY,15.84,g/dL,13.5,17.5,15.84,15.84,g/dL,13.5,17.5,NORMAL,,WEEK 4,5,2025-07-09,28
STUDY001,LB,STUDY001-SUBJ0006,42,L00042,HCT,Hematocrit,HEMATOLOGY,45.9,%,41.0,51.0,45.9,45.9,%,41.0,51.0,NORMAL,,WEEK 4,5,2025-07-09,28
STUDY001,LB,STUDY001-SUBJ0006,43,L00043,WBC,White Blood Cell Count,HEMATOLOGY,7.85,10^9/L,4.5,11.0,7.85,7.85,10^9/L,4.5,11.0,NORMAL,,WEEK 4,5,2025-07-09,28
STUDY001,LB,STUDY001-SUBJ0006,44,L00044,PLT,Platelet Count,HEMATOLOGY,318.56,10^9/L,150.0,450.0,318.56,318.56,10^9/L,150.0,450.0,NORMAL,,WEEK 4,5,2025-07-09,28
STUDY001,LB,STUDY001-SUBJ0006,45,L00045,GLUC,Glucose,CHEMISTRY,78.89,mg/dL,70.0,100.0,78.89,78.89,mg/dL,70.0,100.0,NORMAL,,WEEK 4,5,2025-07-09,28
STUDY001,LB,STUDY001-SUBJ0006,46,L00046,BUN,Blood Urea Nitrogen,CHEMISTRY,12.4,mg/dL,7.0,20.0,12.4,12.4,mg/dL,7.0,20.0,NORMAL,,WEEK 4,5,2025-07-09,28
STUDY001,LB,STUDY001-SUBJ0006,47,L00047,CREAT,Creatinine,CHEMISTRY,0.77,mg/dL,0.6,1.2,0.77,0.77,mg/dL,0.6,1.2,NORMAL,,WEEK 4,5,2025-07-09,28
STUDY001,LB,STUDY001-SUBJ0006,48,L00048,BILI,Total Bilirubin,CHEMISTRY,0.99,mg/dL,0.1,1.2,0.99,0.99,mg/dL,0.1,1.2,NORMAL,,WEEK 4,5,2025-07-09,28
STUDY001,LB,STUDY001-SUBJ0006,49,L00049,ALP,Alkaline Phosphatase,CHEMISTRY,74.81,U/L,44.0,147.0,74.81,74.81,U/L,44.0,147.0,NORMAL,,WEEK 4,5,2025-07-09,28
STUDY001,LB,STUDY001-SUBJ0006,50,L00050,ALT,Alanine Aminotransferase,CHEMISTRY,22.75,U/L,7.0,56.0,22.75,22.75,U/L,7.0,56.0,NORMAL,,WEEK 4,5,2025-07-09,28
STUDY001,LB,STUDY001-SUBJ0006,51,L00051,HGB,Hemoglobin,HEMATOLOGY,15.81,g/dL,13.5,17.5,15.81,15.81,g/dL,13.5,17.5,NORMAL,,WEEK 8,6,2025-08-06,56
STUDY001,LB,STUDY001-SUBJ0006,52,L00052,HCT,Hematocrit,HEMATOLOGY,45.83,%,41.0,51.0,45.83,45.83,%,41.0,51.0,NORMAL,,WEEK 8,6,2025-08-06,56
STUDY001,LB,STUDY001-SUBJ0006,53,L00053,WBC,White Blood Cell Count,HEMATOLOGY,7.94,10^9/L,4.5,11.0,7.94,7.94,10^9/L,4.5,11.0,NORMAL,,WEEK 8,6,2025-08-06,56
STUDY001,LB,STUDY001-SUBJ0006,54,L00054,PLT,Platelet Count,HEMATOLOGY,319.73,10^9/L,150.0,450.0,319.73,319.73,10^9/L,150.0,450.0,NORMAL,,WEEK 8,6,2025-08-06,56
STUDY001,LB,STUDY001-SUBJ0006,55,L00055,GLUC,Glucose,CHEMISTRY,79.94,mg/dL,70.0,100.0,79.94,79.94,mg/dL,70.0,100.0,NORMAL,,WEEK 8,6,2025-08-06,56
STUDY001,LB,STUDY001-SUBJ0006,56,L00056,BUN,Blood Urea Nitrogen,CHEMISTRY,12.26,mg/dL,7.0,20.0,12.26,12.26,mg/dL,7.0,20.0,NORMAL,,WEEK 8,6,2025-08-06,56
STUDY001,LB,STUDY001-SUBJ0006,57,L00057,CREAT,Creatinine,CHEMISTRY,0.77,mg/dL,0.6,1.2,0.77,0.77,mg/dL,0.6,1.2,NORMAL,,WEEK 8,6,2025-08-06,56
STUDY001,LB,STUDY001-SUBJ0006,58,L00058,BILI,Total Bilirubin,CHEMISTRY,0.98,mg/dL,0.1,1.2,0.98,0.98,mg/dL,0.1,1.2,NORMAL,,WEEK 8,6,2025-08-06,56
STUDY001,LB,STUDY001-SUBJ0006,59,L00059,ALP,Alkaline Phosphatase,CHEMISTRY,79.11,U/L,44.0,147.0,79.11,79.11,U/L,44.0,147.0,NORMAL,,WEEK 8,6,2025-08-06,56
STUDY001,LB,STUDY001-SUBJ0006,60,L00060,ALT,Alanine Aminotransferase,CHEMISTRY,24.5,U/L,7.0,56.0,24.5,24.5,U/L,7.0,56.0,NORMAL,,WEEK 8,6,2025-08-06,56
STUDY001,LB,STUDY001-SUBJ0006,61,L00061,HGB,Hemoglobin,HEMATOLOGY,15.73,g/dL,13.5,17.5,15.73,15.73,g/dL,13.5,17.5,NORMAL,,WEEK 12,7,2025-09-03,84
STUDY001,LB,STUDY001-SUBJ0006,62,L00062,HCT,Hematocrit,HEMATOLOGY,45.35,%,41.0,51.0,45.35,45.35,%,41.0,51.0,NORMAL,,WEEK 12,7,2025-09-03,84
STUDY001,LB,STUDY001-SUBJ0006,63,L00063,WBC,White Blood Cell Count,HEMATOLOGY,7.75,10^9/L,4.5,11.0,7.75,7.75,10^9/L,4.5,11.0,NORMAL,,WEEK 12,7,2025-09-03,84
STUDY001,LB,STUDY001-SUBJ0006,64,L00064,PLT,Platelet Count,HEMATOLOGY,319.75,10^9/L,150.0,450.0,319.75,319.75,10^9/L,150.0,450.0,NORMAL,,WEEK 12,7,2025-09-03,84
STUDY001,LB,STUDY001-SUBJ0006,65,L00065,GLUC,Glucose,CHEMISTRY,79.51,mg/dL,70.0,100.0,79.51,79.51,mg/dL,70.0,100.0,NORMAL,,WEEK 12,7,2025-09-03,84
STUDY001,LB,STUDY001-SUBJ0006,66,L00066,BUN,Blood Urea Nitrogen,CHEMISTRY,12.45,mg/dL,7.0,20.0,12.45,12.45,mg/dL,7.0,20.0,NORMAL,,WEEK 12,7,2025-09-03,84
STUDY001,LB,STUDY001-SUBJ0006,67,L00067,CREAT,Creatinine,CHEMISTRY,0.78,mg/dL,0.6,1.2,0.78,0.78,mg/dL,0.6,1.2,NORMAL,,WEEK 12,7,2025-09-03,84
STUDY001,LB,STUDY001-SUBJ0006,68,L00068,BILI,Total Bilirubin,CHEMISTRY,0.98,mg/dL,0.1,1.2,0.98,0.98,mg/dL,0.1,1.2,NORMAL,,WEEK 12,7,2025-09-03,84
STUDY001,LB,STUDY001-SUBJ0006,69,L00069,ALP,Alkaline Phosphatase,CHEMISTRY,75.04,U/L,44.0,147.0,75.04,75.04,U/L,44.0,147.0,NORMAL,,WEEK 12,7,2025-09-03,84
STUDY001,LB,STUDY001-SUBJ0006,70,L00070,ALT,Alanine Aminotransferase,CHEMISTRY,22.78,U/L,7.0,56.0,22.78,22.78,U/L,7.0,56.0,NORMAL,,WEEK 12,7,2025-09-03,84
STUDY001,LB,STUDY001-SUBJ0006,71,L00071,HGB,Hemoglobin,HEMATOLOGY,15.91,g/dL,13.5,17.5,15.91,15.91,g/dL,13.5,17.5,NORMAL,,WEEK 16,8,2025-10-01,112
STUDY001,LB,STUDY001-SUBJ0006,72,L00072,HCT,Hematocrit,HEMATOLOGY,45.57,%,41.0,51.0,45.57,45.57,%,41.0,51.0,NORMAL,,WEEK 16,8,2025-10-01,112
STUDY001,LB,STUDY001-SUBJ0006,73,L00073,WBC,White Blood Cell Count,HEMATOLOGY,8.06,10^9/L,4.5,11.0,8.06,8.06,10^9/L,4.5,11.0,NORMAL,,WEEK 16,8,2025-10-01,112
STUDY001,LB,STUDY001-SUBJ0006,74,L00074,PLT,Platelet Count,HEMATOLOGY,332.3,10^9/L,150.0,450.0,332.3,332.3,10^9/L,150.0,450.0,NORMAL,,WEEK 16,8,2025-10-01,112
STUDY001,LB,STUDY001-SUBJ0006,75,L00075,GLUC,Glucose,CHEMISTRY,80.03,mg/dL,70.0,100.0,80.03,80.03,mg/dL,70.0,100.0,NORMAL,,WEEK 16,8,2025-10-01,112
STUDY001,LB,STUDY001-SUBJ0006,76,L00076,BUN,Blood Urea Nitrogen,CHEMISTRY,13.02,mg/dL,7.0,20.0,13.02,13.02,mg/dL,7.0,20.0,NORMAL,,WEEK 16,8,2025-10-01,112
STUDY001,LB,STUDY001-SUBJ0006,77,L00077,CREAT,Creatinine,CHEMISTRY,0.8,mg/dL,0.6,1.2,0.8,0.8,mg/dL,0.6,1.2,NORMAL,,WEEK 16,8,2025-10-01,112
STUDY001,LB,STUDY001-SUBJ0006,78,L00078,BILI,Total Bilirubin,CHEMISTRY,0.98,mg/dL,0.1,1.2,0.98,0.98,mg/dL,0.1,1.2,NORMAL,,WEEK 16,8,2025-10-01,112
STUDY001,LB,STUDY001-SUBJ0006,79,L00079,ALP,Alkaline Phosphatase,CHEMISTRY,74.76,U/L,44.0,147.0,74.76,74.76,U/L,44.0,147.0,NORMAL,,WEEK 16,8,2025-10-01,112
STUDY001,LB,STUDY001-SUBJ0006,80,L00080,ALT,Alanine Aminotransferase,CHEMISTRY,22.19,U/L,7.0,56.0,22.19,22.19,U/L,7.0,56.0,NORMAL,,WEEK 16,8,2025-10-01,112
STUDY001,LB,STUDY001-SUBJ0006,81,L00081,HGB,Hemoglobin,HEMATOLOGY,15.81,g/dL,13.5,17.5,15.81,15.81,g/dL,13.5,17.5,NORMAL,,END OF TREATMENT,9,2025-10-29,140
STUDY001,LB,STUDY001-SUBJ0006,82,L00082,HCT,Hematocrit,HEMATOLOGY,45.58,%,41.0,51.0,45.58,45.58,%,41.0,51.0,NORMAL,,END OF TREATMENT,9,2025-10-29,140
STUDY001,LB,STUDY001-SUBJ0006,83,L00083,WBC,White Blood Cell Count,HEMATOLOGY,7.73,10^9/L,4.5,11.0,7.73,7.73,10^9/L,4.5,11.0,NORMAL,,END OF TREATMENT,9,2025-10-29,140
STUDY001,LB,STUDY001-SUBJ0006,84,L00084,PLT,Platelet Count,HEMATOLOGY,315.46,10^9/L,150.0,450.0,315.46,315.46,10^9/L,150.0,450.0,NORMAL,,END OF TREATMENT,9,2025-10-29,140
STUDY001,LB,STUDY001-SUBJ0006,85,L00085,GLUC,Glucose,CHEMISTRY,78.72,mg/dL,70.0,100.0,78.72,78.72,mg/dL,70.0,100.0,NORMAL,,END OF TREATMENT,9,2025-10-29,140
STUDY001,LB,STUDY001-SUBJ0006,86,L00086,BUN,Blood Urea Nitrogen,CHEMISTRY,12.95,mg/dL,7.0,20.0,12.95,12.95,mg/dL,7.0,20.0,NORMAL,,END OF TREATMENT,9,2025-10-29,140
STUDY001,LB,STUDY001-SUBJ0006,87,L00087,CREAT,Creatinine,CHEMISTRY,0.77,mg/dL,0.6,1.2,0.77,0.77,mg/dL,0.6,1.2,NORMAL,,END OF TREATMENT,9,2025-10-29,140
STUDY001,LB,STUDY001-SUBJ0006,88,L00088,BILI,Total Bilirubin,CHEMISTRY,0.98,mg/dL,0.1,1.2,0.98,0.98,mg/dL,0.1,1.2,NORMAL,,END OF TREATMENT,9,2025-10-29,140
STUDY001,LB,STUDY001-SUBJ0006,89,L00089,ALP,Alkaline Phosphatase,CHEMISTRY,74.8,U/L,44.0,147.0,74.8,74.8,U/L,44.0,147.0,NORMAL,,END OF TREATMENT,9,2025-10-29,140
STUDY001,LB,STUDY001-SUBJ0006,90,L00090,ALT,Alanine Aminotransferase,CHEMISTRY,22.92,U/L,7.0,56.0,22.92,22.92,U/L,7.0,56.0,NORMAL,,END OF TREATMENT,9,2025-10-29,140
STUDY001,LB,STUDY001-SUBJ0007,1,L00001,HGB,Hemoglobin,HEMATOLOGY,14.18,g/dL,13.5,17.5,14.18,14.18,g/dL,13.5,17.5,NORMAL,,SCREENING,1,2024-09-05,-14
STUDY001,LB,STUDY001-SUBJ0007,2,L00002,HCT,Hematocrit,HEMATOLOGY,40.53,%,41.0,51.0,40.53,40.53,%,41.0,51.0,LOW,,SCREENING,1,2024-09-05,-14
STUDY001,LB,STUDY001-SUBJ0007,3,L00003,WBC,White Blood Cell Count,HEMATOLOGY,5.61,10^9/L,4.5,11.0,5.61,5.61,10^9/L,4.5,11.0,NORMAL,,SCREENING,1,2024-09-05,-14
STUDY001,LB,STUDY001-SUBJ0007,4,L00004,PLT,Platelet Count,HEMATOLOGY,205.48,10^9/L,150.0,450.0,205.48,205.48,10^9/L,150.0,450.0,NORMAL,,SCREENING,1,2024-09-05,-14
STUDY001,LB,STUDY001-SUBJ0007,5,L00005,GLUC,Glucose,CHEMISTRY,91.17,mg/dL,70.0,100.0,91.17,91.17,mg/dL,70.0,100.0,NORMAL,,SCREENING,1,2024-09-05,-14
STUDY001,LB,STUDY001-SUBJ0007,6,L00006,BUN,Blood Urea Nitrogen,CHEMISTRY,14.71,mg/dL,7.0,20.0,14.71,14.71,mg/dL,7.0,20.0,NORMAL,,SCREENING,1,2024-09-05,-14
STUDY001,LB,STUDY001-SUBJ0007,7,L00007,CREAT,Creatinine,CHEMISTRY,0.79,mg/dL,0.6,1.2,0.79,0.79,mg/dL,0.6,1.2,NORMAL,,SCREENING,1,2024-09-05,-14
STUDY001,LB,STUDY001-SUBJ0007,8,L00008,BILI,Total Bilirubin,CHEMISTRY,0.44,mg/dL,0.1,1.2,0.44,0.44,mg/dL,0.1,1.2,NORMAL,,SCREENING,1,2024-09-05,-14
STUDY001,LB,STUDY001-SUBJ0007,9,L00009,ALP,Alkaline Phosphatase,CHEMISTRY,83.34,U/L,44.0,147.0,83.34,83.34,U/L,44.0,147.0,NORMAL,,SCREENING,1,2024-09-05,-14
STUDY001,LB,STUDY001-SUBJ0007,10,L00010,ALT,Alanine Aminotransferase,CHEMISTRY,26.34,U/L,7.0,56.0,26.34,26.34,U/L,7.0,56.0,NORMAL,,SCREENING,1,2024-09-05,-14
STUDY001,LB,STUDY001-SUBJ0007,11,L00011,HGB,Hemoglobin,HEMATOLOGY,14.17,g/dL,13.5,17.5,14.17,14.17,g/dL,13.5,17.5,NORMAL,Y,BASELINE,2,2024-09-19,1
STUDY001,LB,STUDY001-SUBJ0007,12,L00012,HCT,Hematocrit,HEMATOLOGY,40.95,%,41.0,51.0,40.95,40.95,%,41.0,51.0,LOW,Y,BASELINE,2,2024-09-19,1
STUDY001,LB,STUDY001-SUBJ0007,13,L00013,WBC,White Blood Cell Count,HEMATOLOGY,5.44,10^9/L,4.5,11.0,5.44,5.44,10^9/L,4.5,11.0,NORMAL,Y,BASELINE,2,2024-09-19,1
STUDY001,LB,STUDY001-SUBJ0007,14,L00014,PLT,Platelet Count,HEMATOLOGY,202.9,10^9/L,150.0,450.0,202.9,202.9,10^9/L,150.0,450.0,NORMAL,Y,BASELINE,2,2024-09-19,1
STUDY001,LB,STUDY001-SUBJ0007,15,L00015,GLUC,Glucose,CHEMISTRY,89.39,mg/dL,70.0,100.0,89.39,89.39,mg/dL,70.0,100.0,NORMAL,Y,BASELINE,2,2024-09-19,1
STUDY001,LB,STUDY001-SUBJ0007,16,L00016,BUN,Blood Urea Nitrogen,CHEMISTRY,14.46,mg/dL,7.0,20.0,14.46,14.46,mg/dL,7.0,20.0,NORMAL,Y,BASELINE,2,2024-09-19,1
STUDY001,LB,STUDY001-SUBJ0007,17,L00017,CREAT,Creatinine,CHEMISTRY,0.84,mg/dL,0.6,1.2,0.84,0.84,mg/dL,0.6,1.2,NORMAL,Y,BASELINE,2,2024-09-19,1
STUDY001,LB,STUDY001-SUBJ0007,18,L00018,BILI,Total Bilirubin,CHEMISTRY,0.45,mg/dL,0.1,1.2,0.45,0.45,mg/dL,0.1,1.2,NORMAL,Y,BASELINE,2,2024-09-19,1
STUDY001,LB,STUDY001-SUBJ0007,19,L00019,ALP,Alkaline Phosphatase,CHEMISTRY,80.53,U/L,44.0,147.0,80.53,80.53,U/L,44.0,147.0,NORMAL,Y,BASELINE,2,2024-09-19,1
STUDY001,LB,STUDY001-SUBJ0007,20,L00020,ALT,Alanine Aminotransferase,CHEMISTRY,27.16,U/L,7.0,56.0,27.16,27.16,U/L,7.0,56.0,NORMAL,Y,BASELINE,2,2024-09-19,1
STUDY001,LB,STUDY001-SUBJ0007,21,L00021,HGB,Hemoglobin,HEMATOLOGY,14.17,g/dL,13.5,17.5,14.17,14.17,g/dL,13.5,17.5,NORMAL,,WEEK 1,3,2024-09-25,7
STUDY001,LB,STUDY001-SUBJ0007,22,L00022,HCT,Hematocrit,HEMATOLOGY,40.78,%,41.0,51.0,40.78,40.78,%,41.0,51.0,LOW,,WEEK 1,3,2024-09-25,7
STUDY001,LB,STUDY001-SUBJ0007,23,L00023,WBC,White Blood Cell Count,HEMATOLOGY,5.72,10^9/L,4.5,11.0,5.72,5.72,10^9/L,4.5,11.0,NORMAL,,WEEK 1,3,2024-09-25,7
STUDY001,LB,STUDY001-SUBJ0007,24,L00024,PLT,Platelet Count,HEMATOLOGY,212.46,10^9/L,150.0,450.0,212.46,212.46,10^9/L,150.0,450.0,NORMAL,,WEEK 1,3,2024-09-25,7
STUDY001,LB,STUDY001-SUBJ0007,25,L00025,GLUC,Glucose,CHEMISTRY,90.44,mg/dL,70.0,100.0,90.44,90.44,mg/dL,70.0,100.0,NORMAL,,WEEK 1,3,2024-09-25,7
STUDY001,LB,STUDY001-SUBJ0007,26,L00026,BUN,Blood Urea Nitrogen,CHEMISTRY,14.33,mg/dL,7.0,20.0,14.33,14.33,mg/dL,7.0,20.0,NORMAL,,WEEK 1,3,2024-09-25,7
STUDY001,LB,STUDY001-SUBJ0007,27,L00027,CREAT,Creatinine,CHEMISTRY,0.84,mg/dL,0.6,1.2,0.84,0.84,mg/dL,0.6,1.2,NORMAL,,WEEK 1,3,2024-09-25,7
STUDY001,LB,STUDY001-SUBJ0007,28,L00028,BILI,Total Bilirubin,CHEMISTRY,0.43,mg/dL,0.1,1.2,0.43,0.43,mg/dL,0.1,1.2,NORMAL,,WEEK 1,3,2024-09-25,7
STUDY001,LB,STUDY001-SUBJ0007,29,L00029,ALP,Alkaline Phosphatase,CHEMISTRY,84.54,U/L,44.0,147.0,84.54,84.54,U/L,44.0,147.0,NORMAL,,WEEK 1,3,2024-09-25,7
STUDY001,LB,STUDY001-SUBJ0007,30,L00030,ALT,Alanine Aminotransferase,CHEMISTRY,26.19,U/L,7.0,56.0,26.19,26.19,U/L,7.0,56.0,NORMAL,,WEEK 1,3,2024-09-25,7
STUDY001,LB,STUDY001-SUBJ0007,31,L00031,HGB,Hemoglobin,HEMATOLOGY,14.1,g/dL,13.5,17.5,14.1,14.1,g/dL,13.5,17.5,NORMAL,,WEEK 2,4,2024-10-02,14
STUDY001,LB,STUDY001-SUBJ0007,32,L00032,HCT,Hematocrit,HEMATOLOGY,40.46,%,41.0,51.0,40.46,40.46,%,41.0,51.0,LOW,,WEEK 2,4,2024-10-02,14
STUDY001,LB,STUDY001-SUBJ0007,33,L00033,WBC,White Blood Cell Count,HEMATOLOGY,5.18,10^9/L,4.5,11.0,5.18,5.18,10^9/L,4.5,11.0,NORMAL,,WEEK 2,4,2024-10-02,14
STUDY001,LB,STUDY001-SUBJ0007,34,L00034,PLT,Platelet Count,HEMATOLOGY,213.78,10^9/L,150.0,450.0,213.78,213.78,10^9/L,150.0,450.0,NORMAL,,WEEK 2,4,2024-10-02,14
STUDY001,LB,STUDY001-SUBJ0007,35,L00035,GLUC,Glucose,CHEMISTRY,92.39,mg/dL,70.0,100.0,92.39,92.39,mg/dL,70.0,100.0,NORMAL,,WEEK 2,4,2024-10-02,14
STUDY001,LB,STUDY001-SUBJ0007,36,L00036,BUN,Blood Urea Nitrogen,CHEMISTRY,14.41,mg/dL,7.0,20.0,14.41,14.41,mg/dL,7.0,20.0,NORMAL,,WEEK 2,4,2024-10-02,14
STUDY001,LB,STUDY001-SUBJ0007,37,L00037,CREAT,Creatinine,CHEMISTRY,0.82,mg/dL,0.6,1.2,0.82,0.82,mg/dL,0.6,1.2,NORMAL,,WEEK 2,4,2024-10-02,14
STUDY001,LB,STUDY001-SUBJ0007,38,L00038,BILI,Total Bilirubin,CHEMISTRY,0.46,mg/dL,0.1,1.2,0.46,0.46,mg/dL,0.1,1.2,NORMAL,,WEEK 2,4,2024-10-02,14
STUDY001,LB,STUDY001-SUBJ0007,39,L00039,ALP,Alkaline Phosphatase,CHEMISTRY,83.59,U/L,44.0,147.0,83.59,83.59,U/L,44.0,147.0,NORMAL,,WEEK 2,4,2024-10-02,14
STUDY001,LB,STUDY001-SUBJ0007,40,L00040,ALT,Alanine Aminotransferase,CHEMISTRY,25.74,U/L,7.0,56.0,25.74,25.74,U/L,7.0,56.0,NORMAL,,WEEK 2,4,2024-10-02,14
STUDY001,LB,STUDY001-SUBJ0007,41,L00041,HGB,Hemoglobin,HEMATOLOGY,14.08,g/dL,13.5,17.5,14.08,14.08,g/dL,13.5,17.5,NORMAL,,WEEK 4,5,2024-10-16,28
STUDY001,LB,STUDY001-SUBJ0007,42,L00042,HCT,Hematocrit,HEMATOLOGY,40.96,%,41.0,51.0,40.96,40.96,%,41.0,51.0,LOW,,WEEK 4,5,2024-10-16,28
STUDY001,LB,STUDY001-SUBJ0007,43,L00043,WBC,White Blood Cell Count,HEMATOLOGY,5.33,10^9/L,4.5,11.0,5.33,5.33,10^9/L,4.5,11.0,NORMAL,,WEEK 4,5,2024-10-16,28
STUDY001,LB,STUDY001-SUBJ0007,44,L00044,PLT,Platelet Count,HEMATOLOGY,214.47,10^9/L,150.0,450.0,214.47,214.47,10^9/L,150.0,450.0,NORMAL,,WEEK 4,5,2024-10-16,28
STUDY001,LB,STUDY001-SUBJ0007,45,L00045,GLUC,Glucose,CHEMISTRY,90.16,mg/dL,70.0,100.0,90.16,90.16,mg/dL,70.0,100.0,NORMAL,,WEEK 4,5,2024-10-16,28
STUDY001,LB,STUDY001-SUBJ0007,46,L00046,BUN,Blood Urea Nitrogen,CHEMISTRY,14.69,mg/dL,7.0,20.0,14.69,14.69,mg/dL,7.0,20.0,NORMAL,,WEEK 4,5,2024-10-16,28
STUDY001,LB,STUDY001-SUBJ0007,47,L00047,CREAT,Creatinine,CHEMISTRY,0.84,mg/dL,0.6,1.2,0.84,0.84,mg/dL,0.6,1.2,NORMAL,,WEEK 4,5,2024-10-16,28
STUDY001,LB,STUDY001-SUBJ0007,48,L00048,BILI,Total Bilirubin,CHEMISTRY,0.46,mg/dL,0.1,1.2,0.46,0.46,mg/dL,0.1,1.2,NORMAL,,WEEK 4,5,2024-10-16,28
STUDY001,LB,STUDY001-SUBJ0007,49,L00049,ALP,Alkaline Phosphatase,CHEMISTRY,82.66,U/L,44.0,147.0,82.66,82.66,U/L,44.0,147.0,NORMAL,,WEEK 4,5,2024-10-16,28
STUDY001,LB,STUDY001-SUBJ0007,50,L00050,ALT,Alanine Aminotransferase,CHEMISTRY,26.85,U/L,7.0,56.0,26.85,26.85,U/L,7.0,56.0,NORMAL,,WEEK 4,5,2024-10-16,28
STUDY001,LB,STUDY001-SUBJ0007,51,L00051,HGB,Hemoglobin,HEMATOLOGY,14.2,g/dL,13.5,17.5,14.2,14.2,g/dL,13.5,17.5,NORMAL,,WEEK 8,6,2024-11-13,56
STUDY001,LB,STUDY001-SUBJ0007,52,L00052,HCT,Hematocrit,HEMATOLOGY,40.89,%,41.0,51.0,40.89,40.89,%,41.0,51.0,LOW,,WEEK 8,6,2024-11-13,56
STUDY001,LB,STUDY001-SUBJ0007,53,L00053,WBC,White Blood Cell Count,HEMATOLOGY,5.7,10^9/L,4.5,11.0,5.7,5.7,10^9/L,4.5,11.0,NORMAL,,WEEK 8,6,2024-11-13,56
STUDY001,LB,STUDY001-SUBJ0007,54,L00054,PLT,Platelet Count,HEMATOLOGY,211.9,10^9/L,150.0,450.0,211.9,211.9,10^9/L,150.0,450.0,NORMAL,,WEEK 8,6,2024-11-13,56
STUDY001,LB,STUDY001-SUBJ0007,55,L00055,GLUC,Glucose,CHEMISTRY,90.24,mg/dL,70.0,100.0,90.24,90.24,mg/dL,70.0,100.0,NORMAL,,WEEK 8,6,2024-11-13,56
STUDY001,LB,STUDY001-SUBJ0007,56,L00056,BUN,Blood Urea Nitrogen,CHEMISTRY,14.19,mg/dL,7.0,20.0,14.19,14.19,mg/dL,7.0,20.0,NORMAL,,WEEK 8,6,2024-11-13,56
STUDY001,LB,STUDY001-SUBJ0007,57,L00057,CREAT,Creatinine,CHEMISTRY,0.85,mg/dL,0.6,1.2,0.85,0.85,mg/dL,0.6,1.2,NORMAL,,WEEK 8,6,2024-11-13,56
STUDY001,LB,STUDY001-SUBJ0007,58,L00058,BILI,Total Bilirubin,CHEMISTRY,0.47,mg/dL,0.1,1.2,0.47,0.47,mg/dL,0.1,1.2,NORMAL,,WEEK 8,6,2024-11-13,56
STUDY001,LB,STUDY001-SUBJ0007,59,L00059,ALP,Alkaline Phosphatase,CHEMISTRY,81.16,U/L,44.0,147.0,81.16,81.16,U/L,44.0,147.0,NORMAL,,WEEK 8,6,2024-11-13,56
STUDY001,LB,STUDY001-SUBJ0007,60,L00060,ALT,Alanine Aminotransferase,CHEMISTRY,25.98,U/L,7.0,56.0,25.98,25.98,U/L,7.0,56.0,NORMAL,,WEEK 8,6,2024-11-13,56
STUDY001,LB,STUDY001-SUBJ0007,61,L00061,HGB,Hemoglobin,HEMATOLOGY,14.07,g/dL,13.5,17.5,14.07,14.07,g/dL,13.5,17.5,NORMAL,,WEEK 12,7,2024-12-11,84
STUDY001,LB,STUDY001-SUBJ0007,62,L00062,HCT,Hematocrit,HEMATOLOGY,40.87,%,41.0,51.0,40.87,40.87,%,41.0,51.0,LOW,,WEEK 12,7,2024-12-11,84
STUDY001,LB,STUDY001-SUBJ0007,63,L00063,WBC,White Blood Cell Count,HEMATOLOGY,5.22,10^9/L,4.5,11.0,5.22,5.22,10^9/L,4.5,11.0,NORMAL,,WEEK 12,7,2024-12-11,84
STUDY001,LB,STUDY001-SUBJ0007,64,L00064,PLT,Platelet Count,HEMATOLOGY,208.06,10^9/L,150.0,450.0,208.06,208.06,10^9/L,150.0,450.0,NORMAL,,WEEK 12,7,2024-12-11,84
STUDY001,LB,STUDY001-SUBJ0007,65,L00065,GLUC,Glucose,CHEMISTRY,90.16,mg/dL,70.0,100.0,90.16,90.16,mg/dL,70.0,100.0,NORMAL,,WEEK 12,7,2024-12-11,84
STUDY001,LB,STUDY001-SUBJ0007,66,L00066,BUN,Blood Urea Nitrogen,CHEMISTRY,14.32,mg/dL,7.0,20.0,14.32,14.32,mg/dL,7.0,20.0,NORMAL,,WEEK 12,7,2024-12-11,84
STUDY001,LB,STUDY001-SUBJ0007,67,L00067,CREAT,Creatinine,CHEMISTRY,0.83,mg/dL,0.6,1.2,0.83,0.83,mg/dL,0.6,1.2,NORMAL,,WEEK 12,7,2024-12-11,84
STUDY001,LB,STUDY001-SUBJ0007,68,L00068,BILI,Total Bilirubin,CHEMISTRY,0.47,mg/dL,0.1,1.2,0.47,0.47,mg/dL,0.1,1.2,NORMAL,,WEEK 12,7,2024-12-11,84
STUDY001,LB,STUDY001-SUBJ0007,69,L00069,ALP,Alkaline Phosphatase,CHEMISTRY,82.76,U/L,44.0,147.0,82.76,82.76,U/L,44.0,147.0,NORMAL,,WEEK 12,7,2024-12-11,84
STUDY001,LB,STUDY001-SUBJ0007,70,L00070,ALT,Alanine Aminotransferase,CHEMISTRY,26.81,U/L,7.0,56.0,26.81,26.81,U/L,7.0,56.0,NORMAL,,WEEK 12,7,2024-12-11,84
STUDY001,LB,STUDY001-SUBJ0007,71,L00071,HGB,Hemoglobin,HEMATOLOGY,14.18,g/dL,13.5,17.5,14.18,14.18,g/dL,13.5,17.5,NORMAL,,WEEK 16,8,2025-01-08,112
STUDY001,LB,STUDY001-SUBJ0007,72,L00072,HCT,Hematocrit,HEMATOLOGY,40.89,%,41.0,51.0,40.89,40.89,%,41.0,51.0,LOW,,WEEK 16,8,2025-01-08,112
STUDY001,LB,STUDY001-SUBJ0007,73,L00073,WBC,White Blood Cell Count,HEMATOLOGY,5.4,10^9/L,4.5,11.0,5.4,5.4,10^9/L,4.5,11.0,NORMAL,,WEEK 16,8,2025-01-08,112
STUDY001,LB,STUDY001-SUBJ0007,74,L00074,PLT,Platelet Count,HEMATOLOGY,210.17,10^9/L,150.0,450.0,210.17,210.17,10^9/L,150.0,450.0,NORMAL,,WEEK 16,8,2025-01-08,112
STUDY001,LB,STUDY001-SUBJ0007,75,L00075,GLUC,Glucose,CHEMISTRY,90.16,mg/dL,70.0,100.0,90.16,90.16,mg/dL,70.0,100.0,NORMAL,,WEEK 16,8,2025-01-08,112
STUDY001,LB,STUDY001-SUBJ0007,76,L00076,BUN,Blood Urea Nitrogen,CHEMISTRY,14.9,mg/dL,7.0,20.0,14.9,14.9,mg/dL,7.0,20.0,NORMAL,,WEEK 16,8,2025-01-08,112
STUDY001,LB,STUDY001-SUBJ0007,77,L00077,CREAT,Creatinine,CHEMISTRY,0.85,mg/dL,0.6,1.2,0.85,0.85,mg/dL,0.6,1.2,NORMAL,,WEEK 16,8,2025-01-08,112
STUDY001,LB,STUDY001-SUBJ0007,78,L00078,BILI,Total Bilirubin,CHEMISTRY,0.45,mg/dL,0.1,1.2,0.45,0.45,mg/dL,0.1,1.2,NORMAL,,WEEK 16,8,2025-01-08,112
STUDY001,LB,STUDY001-SUBJ0007,79,L00079,ALP,Alkaline Phosphatase,CHEMISTRY,79.62,U/L,44.0,147.0,79.62,79.62,U/L,44.0,147.0,NORMAL,,WEEK 16,8,2025-01-08,112
STUDY001,LB,STUDY001-SUBJ0007,80,L00080,ALT,Alanine Aminotransferase,CHEMISTRY,25.79,U/L,7.0,56.0,25.79,25.79,U/L,7.0,56.0,NORMAL,,WEEK 16,8,2025-01-08,112
STUDY001,LB,STUDY001-SUBJ0007,81,L00081,HGB,Hemoglobin,HEMATOLOGY,14.09,g/dL,13.5,17.5,14.09,14.09,g/dL,13.5,17.5,NORMAL,,END OF TREATMENT,9,2025-02-05,140
STUDY001,LB,STUDY001-SUBJ0007,82,L00082,HCT,Hematocrit,HEMATOLOGY,40.87,%,41.0,51.0,40.87,40.87,%,41.0,51.0,LOW,,END OF TREATMENT,9,2025-02-05,140
STUDY001,LB,STUDY001-SUBJ0007,83,L00083,WBC,White Blood Cell Count,HEMATOLOGY,5.53,10^9/L,4.5,11.0,5.53,5.53,10^9/L,4.5,11.0,NORMAL,,END OF TREATMENT,9,2025-02-05,140
STUDY001,LB,STUDY001-SUBJ0007,84,L00084,PLT,Platelet Count,HEMATOLOGY,205.74,10^9/L,150.0,450.0,205.74,205.74,10^9/L,150.0,450.0,NORMAL,,END OF TREATMENT,9,2025-02-05,140
STUDY001,LB,STUDY001-SUBJ0007,85,L00085,GLUC,Glucose,CHEMISTRY,91.01,mg/dL,70.0,100.0,91.01,91.01,mg/dL,70.0,100.0,NORMAL,,END OF TREATMENT,9,2025-02-05,140
STUDY001,LB,STUDY001-SUBJ0007,86,L00086,BUN,Blood Urea Nitrogen,CHEMISTRY,14.46,mg/dL,7.0,20.0,14.46,14.46,mg/dL,7.0,20.0,NORMAL,,END OF TREATMENT,9,2025-02-05,140
STUDY001,LB,STUDY001-SUBJ0007,87,L00087,CREAT,Creatinine,CHEMISTRY,0.79,mg/dL,0.6,1.2,0.79,0.79,mg/dL,0.6,1.2,NORMAL,,END OF TREATMENT,9,2025-02-05,140
STUDY001,LB,STUDY001-SUBJ0007,88,L00088,BILI,Total Bilirubin,CHEMISTRY,0.44,mg/dL,0.1,1.2,0.44,0.44,mg/dL,0.1,1.2,NORMAL,,END OF TREATMENT,9,2025-02-05,140
STUDY001,LB,STUDY001-SUBJ0007,89,L00089,ALP,Alkaline Phosphatase,CHEMISTRY,85.25,U/L,44.0,147.0,85.25,85.25,U/L,44.0,147.0,NORMAL,,END OF TREATMENT,9,2025-02-05,140
STUDY001,LB,STUDY001-SUBJ0007,90,L00090,ALT,Alanine Aminotransferase,CHEMISTRY,25.37,U/L,7.0,56.0,25.37,25.37,U/L,7.0,56.0,NORMAL,,END OF TREATMENT,9,2025-02-05,140
STUDY001,LB,STUDY001-SUBJ0008,1,L00001,HGB,Hemoglobin,HEMATOLOGY,14.71,g/dL,13.5,17.5,14.71,14.71,g/dL,13.5,17.5,NORMAL,,SCREENING,1,2025-07-09,-14
STUDY001,LB,STUDY001-SUBJ0008,2,L00002,HCT,Hematocrit,HEMATOLOGY,45.06,%,41.0,51.0,45.06,45.06,%,41.0,51.0,NORMAL,,SCREENING,1,2025-07-09,-14
STUDY001,LB,STUDY001-SUBJ0008,3,L00003,WBC,White Blood Cell Count,HEMATOLOGY,7.65,10^9/L,4.5,11.0,7.65,7.65,10^9/L,4.5,11.0,NORMAL,,SCREENING,1,2025-07-09,-14
STUDY001,LB,STUDY001-SUBJ0008,4,L00004,PLT,Platelet Count,HEMATOLOGY,213.15,10^9/L,150.0,450.0,213.15,213.15,10^9/L,150.0,450.0,NORMAL,,SCREENING,1,2025-07-09,-14
STUDY001,LB,STUDY001-SUBJ0008,5,L00005,GLUC,Glucose,CHEMISTRY,101.71,mg/dL,70.0,100.0,101.71,101.71,mg/dL,70.0,100.0,HIGH,,SCREENING,1,2025-07-09,-14
STUDY001,LB,STUDY001-SUBJ0008,6,L00006,BUN,Blood Urea Nitrogen,CHEMISTRY,14.0,mg/dL,7.0,20.0,14.0,14.0,mg/dL,7.0,20.0,NORMAL,,SCREENING,1,2025-07-09,-14
STUDY001,LB,STUDY001-SUBJ0008,7,L00007,CREAT,Creatinine,CHEMISTRY,0.93,mg/dL,0.6,1.2,0.93,0.93,mg/dL,0.6,1.2,NORMAL,,SCREENING,1,2025-07-09,-14
STUDY001,LB,STUDY001-SUBJ0008,8,L00008,BILI,Total Bilirubin,CHEMISTRY,0.67,mg/dL,0.1,1.2,0.67,0.67,mg/dL,0.1,1.2,NORMAL,,SCREENING,1,2025-07-09,-14
STUDY001,LB,STUDY001-SUBJ0008,9,L00009,ALP,Alkaline Phosphatase,CHEMISTRY,99.37,U/L,44.0,147.0,99.37,99.37,U/L,44.0,147.0,NORMAL,,SCREENING,1,2025-07-09,-14
STUDY001,LB,STUDY001-SUBJ0008,10,L00010,ALT,Alanine Aminotransferase,CHEMISTRY,32.97,U/L,7.0,56.0,32.97,32.97,U/L,7.0,56.0,NORMAL,,SCREENING,1,2025-07-09,-14
STUDY001,LB,STUDY001-SUBJ0008,11,L00011,HGB,Hemoglobin,HEMATOLOGY,14.81,g/dL,13.5,17.5,14.81,14.81,g/dL,13.5,17.5,NORMAL,Y,BASELINE,2,2025-07-23,1
STUDY001,LB,STUDY001-SUBJ0008,12,L00012,HCT,Hematocrit,HEMATOLOGY,44.84,%,41.0,51.0,44.84,44.84,%,41.0,51.0,NORMAL,Y,BASELINE,2,2025-07-23,1
STUDY001,LB,STUDY001-SUBJ0008,13,L00013,WBC,White Blood Cell Count,HEMATOLOGY,7.39,10^9/L,4.5,11.0,7.39,7.39,10^9/L,4.5,11.0,NORMAL,Y,BASELINE,2,2025-07-23,1
STUDY001,LB,STUDY001-SUBJ0008,14,L00014,PLT,Platelet Count,HEMATOLOGY,215.32,10^9/L,150.0,450.0,215.32,215.32,10^9/L,150.0,450.0,NORMAL,Y,BASELINE,2,2025-07-23,1
STUDY001,LB,STUDY001-SUBJ0008,15,L00015,GLUC,Glucose,CHEMISTRY,100.61,mg/dL,70.0,100.0,100.61,100.61,mg/dL,70.0,100.0,HIGH,Y,BASELINE,2,2025-07-23,1
STUDY001,LB,STUDY001-SUBJ0008,16,L00016,BUN,Blood Urea Nitrogen,CHEMISTRY,14.3,mg/dL,7.0,20.0,14.3,14.3,mg/dL,7.0,20.0,NORMAL,Y,BASELINE,2,2025-07-23,1
STUDY001,LB,STUDY001-SUBJ0008,17,L00017,CREAT,Creatinine,CHEMISTRY,0.92,mg/dL,0.6,1.2,0.92,0.92,mg/dL,0.6,1.2,NORMAL,Y,BASELINE,2,2025-07-23,1
STUDY001,LB,STUDY001-SUBJ0008,18,L00018,BILI,Total Bilirubin,CHEMISTRY,0.71,mg/dL,0.1,1.2,0.71,0.71,mg/dL,0.1,1.2,NORMAL,Y,BASELINE,2,2025-07-23,1
STUDY001,LB,STUDY001-SUBJ0008,19,L00019,ALP,Alkaline Phosphatase,CHEMISTRY,95.67,U/L,44.0,147.0,95.67,95.67,U/L,44.0,147.0,NORMAL,Y,BASELINE,2,2025-07-23,1
STUDY001,LB,STUDY001-SUBJ0008,20,L00020,ALT,Alanine Aminotransferase,CHEMISTRY,33.75,U/L,7.0,56.0,33.75,33.75,U/L,7.0,56.0,NORMAL,Y,BASELINE,2,2025-07-23,1
STUDY001,LB,STUDY001-SUBJ0008,21,L00021,HGB,Hemoglobin,HEMATOLOGY,14.82,g/dL,13.5,17.5,14.82,14.82,g/dL,13.5,17.5,NORMAL,,WEEK 1,3,2025-07-29,7
STUDY001,LB,STUDY001-SUBJ0008,22,L00022,HCT,Hematocrit,HEMATOLOGY,44.98,%,41.0,51.0,44.98,44.98,%,41.0,51.0,NORMAL,,WEEK 1,3,2025-07-29,7
STUDY001,LB,STUDY001-SUBJ0008,23,L00023,WBC,White Blood Cell Count,HEMATOLOGY,7.07,10^9/L,4.5,11.0,7.07,7.07,10^9/L,4.5,11.0,NORMAL,,WEEK 1,3,2025-07-29,7
STUDY001,LB,STUDY001-SUBJ0008,24,L00024,PLT,Platelet Count,HEMATOLOGY,214.12,10^9/L,150.0,450.0,214.12,214.12,10^9/L,150.0,450.0,NORMAL,,WEEK 1,3,2025-07-29,7
STUDY001,LB,STUDY001-SUBJ0008,25,L00025,GLUC,Glucose,CHEMISTRY,101.01,mg/dL,70.0,100.0,101.01,101.01,mg/dL,70.0,100.0,HIGH,,WEEK 1,3,2025-07-29,7
STUDY001,LB,STUDY001-SUBJ0008,26,L00026,BUN,Blood Urea Nitrogen,CHEMISTRY,14.61,mg/dL,7.0,20.0,14.61,14.61,mg/dL,7.0,20.0,NORMAL,,WEEK 1,3,2025-07-29,7
STUDY001,LB,STUDY001-SUBJ0008,27,L00027,CREAT,Creatinine,CHEMISTRY,0.92,mg/dL,0.6,1.2,0.92,0.92,mg/dL,0.6,1.2,NORMAL,,WEEK 1,3,2025-07-29,7
STUDY001,LB,STUDY001-SUBJ0008,28,L00028,BILI,Total Bilirubin,CHEMISTRY,0.67,mg/dL,0.1,1.2,0.67,0.67,mg/dL,0.1,1.2,NORMAL,,WEEK 1,3,2025-07-29,7
STUDY001,LB,STUDY001-SUBJ0008,29,L00029,ALP,Alkaline Phosphatase,CHEMISTRY,97.6,U/L,44.0,147.0,97.6,97.6,U/L,44.0,147.0,NORMAL,,WEEK 1,3,2025-07-29,7
STUDY001,LB,STUDY001-SUBJ0008,30,L00030,ALT,Alanine Aminotransferase,CHEMISTRY,34.35,U/L,7.0,56.0,34.35,34.35,U/L,7.0,56.0,NORMAL,,WEEK 1,3,2025-07-29,7
STUDY001,LB,STUDY001-SUBJ0008,31,L00031,HGB,Hemoglobin,HEMATOLOGY,14.68,g/dL,13.5,17.5,14.68,14.68,g/dL,13.5,17.5,NORMAL,,WEEK 2,4,2025-08-05,14
STUDY001,LB,STUDY001-SUBJ0008,32,L00032,HCT,Hematocrit,HEMATOLOGY,44.93,%,41.0,51.0,44.93,44.93,%,41.0,51.0,NORMAL,,WEEK 2,4,2025-08-05,14
STUDY001,LB,STUDY001-SUBJ0008,33,L00033,WBC,White Blood Cell Count,HEMATOLOGY,7.38,10^9/L,4.5,11.0,7.38,7.38,10^9/L,4.5,11.0,NORMAL,,WEEK 2,4,2025-08-05,14
STUDY001,LB,STUDY001-SUBJ0008,34,L00034,PLT,Platelet Count,HEMATOLOGY,211.92,10^9/L,150.0,450.0,211.92,211.92,10^9/L,150.0,450.0,NORMAL,,WEEK 2,4,2025-08-05,14
STUDY001,LB,STUDY001-SUBJ0008,35,L00035,GLUC,Glucose,CHEMISTRY,101.42,mg/dL,70.0,100.0,101.42,101.42,mg/dL,70.0,100.0,HIGH,,WEEK 2,4,2025-08-05,14
STUDY001,LB,STUDY001-SUBJ0008,36,L00036,BUN,Blood Urea Nitrogen,CHEMISTRY,14.48,mg/dL,7.0,20.0,14.48,14.48,mg/dL,7.0,20.0,NORMAL,,WEEK 2,4,2025-08-05,14
STUDY001,LB,STUDY001-SUBJ0008,37,L00037,CREAT,Creatinine,CHEMISTRY,0.94,mg/dL,0.6,1.2,0.94,0.94,mg/dL,0.6,1.2,NORMAL,,WEEK 2,4,2025-08-05,14
STUDY001,LB,STUDY001-SUBJ0008,38,L00038,BILI,Total Bilirubin,CHEMISTRY,0.68,mg/dL,0.1,1.2,0.68,0.68,mg/dL,0.1,1.2,NORMAL,,WEEK 2,4,2025-08-05,14
STUDY001,LB,STUDY001-SUBJ0008,39,L00039,ALP,Alkaline Phosphatase,CHEMISTRY,95.77,U/L,44.0,147.0,95.77,95.77,U/L,44.0,147.0,NORMAL,,WEEK 2,4,2025-08-05,14
STUDY001,LB,STUDY001-SUBJ0008,40,L00040,ALT,Alanine Aminotransferase,CHEMISTRY,34.11,U/L,7.0,56.0,34.11,34.11,U/L,7.0,56.0,NORMAL,,WEEK 2,4,2025-08-05,14
STUDY001,LB,STUDY001-SUBJ0008,41,L00041,HGB,Hemoglobin,HEMATOLOGY,14.76,g/dL,13.5,17.5,14.76,14.76,g/dL,13.5,17.5,NORMAL,,WEEK 4,5,2025-08-19,28
STUDY001,LB,STUDY001-SUBJ0008,42,L00042,HCT,Hematocrit,HEMATOLOGY,45.03,%,41.0,51.0,45.03,45.03,%,41.0,51.0,NORMAL,,WEEK 4,5,2025-08-19,28
STUDY001,LB,STUDY001-SUBJ0008,43,L00043,WBC,White Blood Cell Count,HEMATOLOGY,7.55,10^9/L,4.5,11.0,7.55,7.55,10^9/L,4.5,11.0,NORMAL,,WEEK 4,5,2025-08-19,28
STUDY001,LB,STUDY001-SUBJ0008,44,L00044,PLT,Platelet Count,HEMATOLOGY,215.69,10^9/L,150.0,450.0,215.69,215.69,10^9/L,150.0,450.0,NORMAL,,WEEK 4,5,2025-08-19,28
STUDY001,LB,STUDY001-SUBJ0008,45,L00045,GLUC,Glucose,CHEMISTRY,102.25,mg/dL,70.0,100.0,102.25,102.25,mg/dL,70.0,100.0,HIGH,,WEEK 4,5,2025-08-19,28
STUDY001,LB,STUDY001-SUBJ0008,46,L00046,BUN,Blood Urea Nitrogen,CHEMISTRY,14.38,mg/dL,7.0,20.0,14.38,14.38,mg/dL,7.0,20.0,NORMAL,,WEEK 4,5,2025-08-19,28
STUDY001,LB,STUDY001-SUBJ0008,47,L00047,CREAT,Creatinine,CHEMISTRY,0.93,mg/dL,0.6,1.2,0.93,0.93,mg/dL,0.6,1.2,NORMAL,,WEEK 4,5,2025-08-19,28
STUDY001,LB,STUDY001-SUBJ0008,48,L00048,BILI,Total Bilirubin,CHEMISTRY,0.7,mg/dL,0.1,1.2,0.7,0.7,mg/dL,0.1,1.2,NORMAL,,WEEK 4,5,2025-08-19,28
STUDY001,LB,STUDY001-SUBJ0008,49,L00049,ALP,Alkaline Phosphatase,CHEMISTRY,95.56,U/L,44.0,147.0,95.56,95.56,U/L,44.0,147.0,NORMAL,,WEEK 4,5,2025-08-19,28
STUDY001,LB,STUDY001-SUBJ0008,50,L00050,ALT,Alanine Aminotransferase,CHEMISTRY,33.42,U/L,7.0,56.0,33.42,33.42,U/L,7.0,56.0,NORMAL,,WEEK 4,5,2025-08-19,28
STUDY001,LB,STUDY001-SUBJ0008,51,L00051,HGB,Hemoglobin,HEMATOLOGY,15.01,g/dL,13.5,17.5,15.01,15.01,g/dL,13.5,17.5,NORMAL,,WEEK 8,6,2025-09-16,56
STUDY001,LB,STUDY001-SUBJ0008,52,L00052,HCT,Hematocrit,HEMATOLOGY,44.39,%,41.0,51.0,44.39,44.39,%,41.0,51.0,NORMAL,,WEEK 8,6,2025-09-16,56
STUDY001,LB,STUDY001-SUBJ0008,53,L00053,WBC,White Blood Cell Count,HEMATOLOGY,7.85,10^9/L,4.5,11.0,7.85,7.85,10^9/L,4.5,11.0,NORMAL,,WEEK 8,6,2025-09-16,56
STUDY001,LB,STUDY001-SUBJ0008,54,L00054,PLT,Platelet Count,HEMATOLOGY,214.94,10^9/L,150.0,450.0,214.94,214.94,10^9/L,150.0,450.0,NORMAL,,WEEK 8,6,2025-09-16,56
STUDY001,LB,STUDY001-SUBJ0008,55,L00055,GLUC,Glucose,CHEMISTRY,101.14,mg/dL,70.0,100.0,101.14,101.14,mg/dL,70.0,100.0,HIGH,,WEEK 8,6,2025-09-16,56
STUDY001,LB,STUDY001-SUBJ0008,56,L00056,BUN,Blood Urea Nitrogen,CHEMISTRY,14.01,mg/dL,7.0,20.0,14.01,14.01,mg/dL,7.0,20.0,NORMAL,,WEEK 8,6,2025-09-16,56
STUDY001,LB,STUDY001-SUBJ0008,57,L00057,CREAT,Creatinine,CHEMISTRY,0.91,mg/dL,0.6,1.2,0.91,0.91,mg/dL,0.6,1.2,NORMAL,,WEEK 8,6,2025-09-16,56
STUDY001,LB,STUDY001-SUBJ0008,58,L00058,BILI,Total Bilirubin,CHEMISTRY,0.7,mg/dL,0.1,1.2,0.7,0.7,mg/dL,0.1,1.2,NORMAL,,WEEK 8,6,2025-09-16,56
STUDY001,LB,STUDY001-SUBJ0008,59,L00059,ALP,Alkaline Phosphatase,CHEMISTRY,94.27,U/L,44.0,147.0,94.27,94.27,U/L,44.0,147.0,NORMAL,,WEEK 8,6,2025-09-16,56
STUDY001,LB,STUDY001-SUBJ0008,60,L00060,ALT,Alanine Aminotransferase,CHEMISTRY,33.0,U/L,7.0,56.0,33.0,33.0,U/L,7.0,56.0,NORMAL,,WEEK 8,6,2025-09-16,56
STUDY001,LB,STUDY001-SUBJ0008,61,L00061,HGB,Hemoglobin,HEMATOLOGY,14.85,g/dL,13.5,17.5,14.85,14.85,g/dL,13.5,17.5,NORMAL,,WEEK 12,7,2025-10-14,84
STUDY001,LB,STUDY001-SUBJ0008,62,L00062,HCT,Hematocrit,HEMATOLOGY,44.48,%,41.0,51.0,44.48,44.48,%,41.0,51.0,NORMAL,,WEEK 12,7,2025-10-14,84
STUDY001,LB,STUDY001-SUBJ0008,63,L00063,WBC,White Blood Cell Count,HEMATOLOGY,7.73,10^9/L,4.5,11.0,7.73,7.73,10^9/L,4.5,11.0,NORMAL,,WEEK 12,7,2025-10-14,84
STUDY001,LB,STUDY001-SUBJ0008,64,L00064,PLT,Platelet Count,HEMATOLOGY,208.74,10^9/L,150.0,450.0,208.74,208.74,10^9/L,150.0,450.0,NORMAL,,WEEK 12,7,2025-10-14,84
STUDY001,LB,STUDY001-SUBJ0008,65,L00065,GLUC,Glucose,CHEMISTRY,101.33,mg/dL,70.0,100.0,101.33,101.33,mg/dL,70.0,100.0,HIGH,,WEEK 12,7,2025-10-14,84
STUDY001,LB,STUDY001-SUBJ0008,66,L00066,BUN,Blood Urea Nitrogen,CHEMISTRY,13.81,mg/dL,7.0,20.0,13.81,13.81,mg/dL,7.0,20.0,NORMAL,,WEEK 12,7,2025-10-14,84
STUDY001,LB,STUDY001-SUBJ0008,67,L00067,CREAT,Creatinine,CHEMISTRY,0.92,mg/dL,0.6,1.2,0.92,0.92,mg/dL,0.6,1.2,NORMAL,,WEEK 12,7,2025-10-14,84
STUDY001,LB,STUDY001-SUBJ0008,68,L00068,BILI,Total Bilirubin,CHEMISTRY,0.72,mg/dL,0.1,1.2,0.72,0.72,mg/dL,0.1,1.2,NORMAL,,WEEK 12,7,2025-10-14,84
STUDY001,LB,STUDY001-SUBJ0008,69,L00069,ALP,Alkaline Phosphatase,CHEMISTRY,97.39,U/L,44.0,147.0,97.39,97.39,U/L,44.0,147.0,NORMAL,,WEEK 12,7,2025-10-14,84
STUDY001,LB,STUDY001-SUBJ0008,70,L00070,ALT,Alanine Aminotransferase,CHEMISTRY,34.45,U/L,7.0,56.0,34.45,34.45,U/L,7.0,56.0,NORMAL,,WEEK 12,7,2025-10-14,84
STUDY001,LB,STUDY001-SUBJ0008,71,L00071,HGB,Hemoglobin,HEMATOLOGY,14.82,g/dL,13.5,17.5,14.82,14.82,g/dL,13.5,17.5,NORMAL,,WEEK 16,8,2025-11-11,112
STUDY001,LB,STUDY001-SUBJ0008,72,L00072,HCT,Hematocrit,HEMATOLOGY,44.86,%,41.0,51.0,44.86,44.86,%,41.0,51.0,NORMAL,,WEEK 16,8,2025-11-11,112
STUDY001,LB,STUDY001-SUBJ0008,73,L00073,WBC,White Blood Cell Count,HEMATOLOGY,7.46,10^9/L,4.5,11.0,7.46,7.46,10^9/L,4.5,11.0,NORMAL,,WEEK 16,8,2025-11-11,112
STUDY001,LB,STUDY001-SUBJ0008,74,L00074,PLT,Platelet Count,HEMATOLOGY,216.21,10^9/L,150.0,450.0,216.21,216.21,10^9/L,150.0,450.0,NORMAL,,WEEK 16,8,2025-11-11,112
STUDY001,LB,STUDY001-SUBJ0008,75,L00075,GLUC,Glucose,CHEMISTRY,102.89,mg/dL,70.0,100.0,102.89,102.89,mg/dL,70.0,100.0,HIGH,,WEEK 16,8,2025-11-11,112
STUDY001,LB,STUDY001-SUBJ0008,76,L00076,BUN,Blood Urea Nitrogen,CHEMISTRY,14.29,mg/dL,7.0,20.0,14.29,14.29,mg/dL,7.0,20.0,NORMAL,,WEEK 16,8,2025-11-11,112
STUDY001,LB,STUDY001-SUBJ0008,77,L00077,CREAT,Creatinine,CHEMISTRY,0.92,mg/dL,0.6,1.2,0.92,0.92,mg/dL,0.6,1.2,NORMAL,,WEEK 16,8,2025-11-11,112
STUDY001,LB,STUDY001-SUBJ0008,78,L00078,BILI,Total Bilirubin,CHEMISTRY,0.69,mg/dL,0.1,1.2,0.69,0.69,mg/dL,0.1,1.2,NORMAL,,WEEK 16,8,2025-11-11,112
STUDY001,LB,STUDY001-SUBJ0008,79,L00079,ALP,Alkaline Phosphatase,CHEMISTRY,94.47,U/L,44.0,147.0,94.47,94.47,U/L,44.0,147.0,NORMAL,,WEEK 16,8,2025-11-11,112
STUDY001,LB,STUDY001-SUBJ0008,80,L00080,ALT,Alanine Aminotransferase,CHEMISTRY,32.79,U/L,7.0,56.0,32.79,32.79,U/L,7.0,56.0,NORMAL,,WEEK 16,8,2025-11-11,112
STUDY001,LB,STUDY001-SUBJ0008,81,L00081,HGB,Hemoglobin,HEMATOLOGY,14.85,g/dL,13.5,17.5,14.85,14.85,g/dL,13.5,17.5,NORMAL,,END OF TREATMENT,9,2025-12-09,140
STUDY001,LB,STUDY001-SUBJ0008,82,L00082,HCT,Hematocrit,HEMATOLOGY,44.77,%,41.0,51.0,44.77,44.77,%,41.0,51.0,NORMAL,,END OF TREATMENT,9,2025-12-09,140
STUDY001,LB,STUDY001-SUBJ0008,83,L00083,WBC,White Blood Cell Count,HEMATOLOGY,7.34,10^9/L,4.5,11.0,7.34,7.34,10^9/L,4.5,11.0,NORMAL,,END OF TREATMENT,9,2025-12-09,140
STUDY001,LB,STUDY001-SUBJ0008,84,L00084,PLT,Platelet Count,HEMATOLOGY,220.74,10^9/L,150.0,450.0,220.74,220.74,10^9/L,150.0,450.0,NORMAL,,END OF TREATMENT,9,2025-12-09,140
STUDY001,LB,STUDY001-SUBJ0008,85,L00085,GLUC,Glucose,CHEMISTRY,101.12,mg/dL,70.0,100.0,101.12,101.12,mg/dL,70.0,100.0,HIGH,,END OF TREATMENT,9,2025-12-09,140
STUDY001,LB,STUDY001-SUBJ0008,86,L00086,BUN,Blood Urea Nitrogen,CHEMISTRY,14.28,mg/dL,7.0,20.0,14.28,14.28,mg/dL,7.0,20.0,NORMAL,,END OF TREATMENT,9,2025-12-09,140
STUDY001,LB,STUDY001-SUBJ0008,87,L00087,CREAT,Creatinine,CHEMISTRY,0.94,mg/dL,0.6,1.2,0.94,0.94,mg/dL,0.6,1.2,NORMAL,,END OF TREATMENT,9,2025-12-09,140
STUDY001,LB,STUDY001-SUBJ0008,88,L00088,BILI,Total Bilirubin,CHEMISTRY,0.69,mg/dL,0.1,1.2,0.69,0.69,mg/dL,0.1,1.2,NORMAL,,END OF TREATMENT,9,2025-12-09,140
STUDY001,LB,STUDY001-SUBJ0008,89,L00089,ALP,Alkaline Phosphatase,CHEMISTRY,96.06,U/L,44.0,147.0,96.06,96.06,U/L,44.0,147.0,NORMAL,,END OF TREATMENT,9,2025-12-09,140
STUDY001,LB,STUDY001-SUBJ0008,90,L00090,ALT,Alanine Aminotransferase,CHEMISTRY,32.22,U/L,7.0,56.0,32.22,32.22,U/L,7.0,56.0,NORMAL,,END OF TREATMENT,9,2025-12-09,140
STUDY001,LB,STUDY001-SUBJ0009,1,L00001,HGB,Hemoglobin,HEMATOLOGY,13.63,g/dL,13.5,17.5,13.63,13.63,g/dL,13.5,17.5,NORMAL,,SCREENING,1,2025-05-23,-14
STUDY001,LB,STUDY001-SUBJ0009,2,L00002,HCT,Hematocrit,HEMATOLOGY,45.71,%,41.0,51.0,45.71,45.71,%,41.0,51.0,NORMAL,,SCREENING,1,2025-05-23,-14
STUDY001,LB,STUDY001-SUBJ0009,3,L00003,WBC,White Blood Cell Count,HEMATOLOGY,5.46,10^9/L,4.5,11.0,5.46,5.46,10^9/L,4.5,11.0,NORMAL,,SCREENING,1,2025-05-23,-14
STUDY001,LB,STUDY001-SUBJ0009,4,L00004,PLT,Platelet Count,HEMATOLOGY,267.06,10^9/L,150.0,450.0,267.06,267.06,10^9/L,150.0,450.0,NORMAL,,SCREENING,1,2025-05-23,-14
STUDY001,LB,STUDY001-SUBJ0009,5,L00005,GLUC,Glucose,CHEMISTRY,81.03,mg/dL,70.0,100.0,81.03,81.03,mg/dL,70.0,100.0,NORMAL,,SCREENING,1,2025-05-23,-14
STUDY001,LB,STUDY001-SUBJ0009,6,L00006,BUN,Blood Urea Nitrogen,CHEMISTRY,12.69,mg/dL,7.0,20.0,12.69,12.69,mg/dL,7.0,20.0,NORMAL,,SCREENING,1,2025-05-23,-14
STUDY001,LB,STUDY001-SUBJ0009,7,L00007,CREAT,Creatinine,CHEMISTRY,1.04,mg/dL,0.6,1.2,1.04,1.04,mg/dL,0.6,1.2,NORMAL,,SCREENING,1,2025-05-23,-14
STUDY001,LB,STUDY001-SUBJ0009,8,L00008,BILI,Total Bilirubin,CHEMISTRY,0.6,mg/dL,0.1,1.2,0.6,0.6,mg/dL,0.1,1.2,NORMAL,,SCREENING,1,2025-05-23,-14
STUDY001,LB,STUDY001-SUBJ0009,9,L00009,ALP,Alkaline Phosphatase,CHEMISTRY,114.27,U/L,44.0,147.0,114.27,114.27,U/L,44.0,147.0,NORMAL,,SCREENING,1,2025-05-23,-14
STUDY001,LB,STUDY001-SUBJ0009,10,L00010,ALT,Alanine Aminotransferase,CHEMISTRY,28.74,U/L,7.0,56.0,28.74,28.74,U/L,7.0,56.0,NORMAL,,SCREENING,1,2025-05-23,-14
STUDY001,LB,STUDY001-SUBJ0009,11,L00011,HGB,Hemoglobin,HEMATOLOGY,13.86,g/dL,13.5,17.5,13.86,13.86,g/dL,13.5,17.5,NORMAL,Y,BASELINE,2,2025-06-06,1
STUDY001,LB,STUDY001-SUBJ0009,12,L00012,HCT,Hematocrit,HEMATOLOGY,45.18,%,41.0,51.0,45.18,45.18,%,41.0,51.0,NORMAL,Y,BASELINE,2,2025-06-06,1
STUDY001,LB,STUDY001-SUBJ0009,13,L00013,WBC,White Blood Cell Count,HEMATOLOGY,5.34,10^9/L,4.5,11.0,5.34,5.34,10^9/L,4.5,11.0,NORMAL,Y,BASELINE,2,2025-06-06,1
STUDY001,LB,STUDY001-SUBJ0009,14,L00014,PLT,Platelet Count,HEMATOLOGY,263.26,10^9/L,150.0,450.0,263.26,263.26,10^9/L,150.0,450.0,NORMAL,Y,BASELINE,2,2025-06-06,1
STUDY001,LB,STUDY001-SUBJ0009,15,L00015,GLUC,Glucose,CHEMISTRY,79.88,mg/dL,70.0,100.0,79.88,79.88,mg/dL,70.0,100.0,NORMAL,Y,BASELINE,2,2025-06-06,1
STUDY001,LB,STUDY001-SUBJ0009,16,L00016,BUN,Blood Urea Nitrogen,CHEMISTRY,12.98,mg/dL,7.0,20.0,12.98,12.98,mg/dL,7.0,20.0,NORMAL,Y,BASELINE,2,2025-06-06,1
STUDY001,LB,STUDY001-SUBJ0009,17,L00017,CREAT,Creatinine,CHEMISTRY,1.04,mg/dL,0.6,1.2,1.04,1.04,mg/dL,0.6,1.2,NORMAL,Y,BASELINE,2,2025-06-06,1
STUDY001,LB,STUDY001-SUBJ0009,18,L00018,BILI,Total Bilirubin,CHEMISTRY,0.56,mg/dL,0.1,1.2,0.56,0.56,mg/dL,0.1,1.2,NORMAL,Y,BASELINE,2,2025-06-06,1
STUDY001,LB,STUDY001-SUBJ0009,19,L00019,ALP,Alkaline Phosphatase,CHEMISTRY,112.3,U/L,44.0,147.0,112.3,112.3,U/L,44.0,147.0,NORMAL,Y,BASELINE,2,2025-06-06,1
STUDY001,LB,STUDY001-SUBJ0009,20,L00020,ALT,Alanine Aminotransferase,CHEMISTRY,28.79,U/L,7.0,56.0,28.79,28.79,U/L,7.0,56.0,NORMAL,Y,BASELINE,2,2025-06-06,1
STUDY001,LB,STUDY001-SUBJ0009,21,L00021,HGB,Hemoglobin,HEMATOLOGY,13.72,g/dL,13.5,17.5,13.72,13.72,g/dL,13.5,17.5,NORMAL,,WEEK 1,3,2025-06-12,7
STUDY001,LB,STUDY001-SUBJ0009,22,L00022,HCT,Hematocrit,HEMATOLOGY,45.32,%,41.0,51.0,45.32,45.32,%,41.0,51.0,NORMAL,,WEEK 1,3,2025-06-12,7
STUDY001,LB,STUDY001-SUBJ0009,23,L00023,WBC,White Blood Cell Count,HEMATOLOGY,5.4,10^9/L,4.5,11.0,5.4,5.4,10^9/L,4.5,11.0,NORMAL,,WEEK 1,3,2025-06-12,7
STUDY001,LB,STUDY001-SUBJ0009,24,L00024,PLT,Platelet Count,HEMATOLOGY,266.14,10^9/L,150.0,450.0,266.14,266.14,10^9/L,150.0,450.0,NORMAL,,WEEK 1,3,2025-06-12,7
STUDY001,LB,STUDY001-SUBJ0009,25,L00025,GLUC,Glucose,CHEMISTRY,79.36,mg/dL,70.0,100.0,79.36,79.36,mg/dL,70.0,100.0,NORMAL,,WEEK 1,3,2025-06-12,7
STUDY001,LB,STUDY001-SUBJ0009,26,L00026,BUN,Blood Urea Nitrogen,CHEMISTRY,12.28,mg/dL,7.0,20.0,12.28,12.28,mg/dL,7.0,20.0,NORMAL,,WEEK 1,3,2025-06-12,7
STUDY001,LB,STUDY001-SUBJ0009,27,L00027,CREAT,Creatinine,CHEMISTRY,1.07,mg/dL,0.6,1.2,1.07,1.07,mg/dL,0.6,1.2,NORMAL,,WEEK 1,3,2025-06-12,7
STUDY001,LB,STUDY001-SUBJ0009,28,L00028,BILI,Total Bilirubin,CHEMISTRY,0.56,mg/dL,0.1,1.2,0.56,0.56,mg/dL,0.1,1.2,NORMAL,,WEEK 1,3,2025-06-12,7
STUDY001,LB,STUDY001-SUBJ0009,29,L00029,ALP,Alkaline Phosphatase,CHEMISTRY,109.4,U/L,44.0,147.0,109.4,109.4,U/L,44.0,147.0,NORMAL,,WEEK 1,3,2025-06-12,7
STUDY001,LB,STUDY001-SUBJ0009,30,L00030,ALT,Alanine Aminotransferase,CHEMISTRY,29.58,U/L,7.0,56.0,29.58,29.58,U/L,7.0,56.0,NORMAL,,WEEK 1,3,2025-06-12,7
STUDY001,LB,STUDY001-SUBJ0009,31,L00031,HGB,Hemoglobin,HEMATOLOGY,13.76,g/dL,13.5,17.5,13.76,13.76,g/dL,13.5,17.5,NORMAL,,WEEK 2,4,2025-06-19,14
STUDY001,LB,STUDY001-SUBJ0009,32,L00032,HCT,Hematocrit,HEMATOLOGY,45.83,%,41.0,51.0,45.83,45.83,%,41.0,51.0,NORMAL,,WEEK 2,4,2025-06-19,14
STUDY001,LB,STUDY001-SUBJ0009,33,L00033,WBC,White Blood Cell Count,HEMATOLOGY,5.54,10^9/L,4.5,11.0,5.54,5.54,10^9/L,4.5,11.0,NORMAL,,WEEK 2,4,2025-06-19,14
STUDY001,LB,STUDY001-SUBJ0009,34,L00034,PLT,Platelet Count,HEMATOLOGY,261.8,10^9/L,150.0,450.0,261.8,261.8,10^9/L,150.0,450.0,NORMAL,,WEEK 2,4,2025-06-19,14
STUDY001,LB,STUDY001-SUBJ0009,35,L00035,GLUC,Glucose,CHEMISTRY,82.34,mg/dL,70.0,100.0,82.34,82.34,mg/dL,70.0,100.0,NORMAL,,WEEK 2,4,2025-06-19,14
STUDY001,LB,STUDY001-SUBJ0009,36,L00036,BUN,Blood Urea Nitrogen,CHEMISTRY,12.69,mg/dL,7.0,20.0,12.69,12.69,mg/dL,7.0,20.0,NORMAL,,WEEK 2,4,2025-06-19,14
STUDY001,LB,STUDY001-SUBJ0009,37,L00037,CREAT,Creatinine,CHEMISTRY,1.05,mg/dL,0.6,1.2,1.05,1.05,mg/dL,0.6,1.2,NORMAL,,WEEK 2,4,2025-06-19,14
STUDY001,LB,STUDY001-SUBJ0009,38,L00038,BILI,Total Bilirubin,CHEMISTRY,0.61,mg/dL,0.1,1.2,0.61,0.61,mg/dL,0.1,1.2,NORMAL,,WEEK 2,4,2025-06-19,14
STUDY001,LB,STUDY001-SUBJ0009,39,L00039,ALP,Alkaline Phosphatase,CHEMISTRY,113.39,U/L,44.0,147.0,113.39,113.39,U/L,44.0,147.0,NORMAL,,WEEK 2,4,2025-06-19,14
STUDY001,LB,STUDY001-SUBJ0009,40,L00040,ALT,Alanine Aminotransferase,CHEMISTRY,27.66,U/L,7.0,56.0,27.66,27.66,U/L,7.0,56.0,NORMAL,,WEEK 2,4,2025-06-19,14
STUDY001,LB,STUDY001-SUBJ0009,41,L00041,HGB,Hemoglobin,HEMATOLOGY,13.64,g/dL,13.5,17.5,13.64,13.64,g/dL,13.5,17.5,NORMAL,,WEEK 4,5,2025-07-03,28
STUDY001,LB,STUDY001-SUBJ0009,42,L00042,HCT,Hematocrit,HEMATOLOGY,45.73,%,41.0,51.0,45.73,45.73,%,41.0,51.0,NORMAL,,WEEK 4,5,2025-07-03,28
STUDY001,LB,STUDY001-SUBJ0009,43,L00043,WBC,White Blood Cell Count,HEMATOLOGY,5.07,10^9/L,4.5,11.0,5.07,5.07,10^9/L,4.5,11.0,NORMAL,,WEEK 4,5,2025-07-03,28
STUDY001,LB,STUDY001-SUBJ0009,44,L00044,PLT,Platelet Count,HEMATOLOGY,256.78,10^9/L,150.0,450.0,256.78,256.78,10^9/L,150.0,450.0,NORMAL,,WEEK 4,5,2025-07-03,28
STUDY001,LB,STUDY001-SUBJ0009,45,L00045,GLUC,Glucose,CHEMISTRY,80.58,mg/dL,70.0,100.0,80.58,80.58,mg/dL,70.0,100.0,NORMAL,,WEEK 4,5,2025-07-03,28
STUDY001,LB,STUDY001-SUBJ0009,46,L00046,BUN,Blood Urea Nitrogen,CHEMISTRY,11.99,mg/dL,7.0,20.0,11.99,11.99,mg/dL,7.0,20.0,NORMAL,,WEEK 4,5,2025-07-03,28
STUDY001,LB,STUDY001-SUBJ0009,47,L00047,CREAT,Creatinine,CHEMISTRY,1.05,mg/dL,0.6,1.2,1.05,1.05,mg/dL,0.6,1.2,NORMAL,,WEEK 4,5,2025-07-03,28
STUDY001,LB,STUDY001-SUBJ0009,48,L00048,BILI,Total Bilirubin,CHEMISTRY,0.61,mg/dL,0.1,1.2,0.61,0.61,mg/dL,0.1,1.2,NORMAL,,WEEK 4,5,2025-07-03,28
STUDY001,LB,STUDY001-SUBJ0009,49,L00049,ALP,Alkaline Phosphatase,CHEMISTRY,109.87,U/L,44.0,147.0,109.87,109.87,U/L,44.0,147.0,NORMAL,,WEEK 4,5,2025-07-03,28
STUDY001,LB,STUDY001-SUBJ0009,50,L00050,ALT,Alanine Aminotransferase,CHEMISTRY,27.47,U/L,7.0,56.0,27.47,27.47,U/L,7.0,56.0,NORMAL,,WEEK 4,5,2025-07-03,28
STUDY001,LB,STUDY001-SUBJ0009,51,L00051,HGB,Hemoglobin,HEMATOLOGY,13.8,g/dL,13.5,17.5,13.8,13.8,g/dL,13.5,17.5,NORMAL,,WEEK 8,6,2025-07-31,56
STUDY001,LB,STUDY001-SUBJ0009,52,L00052,HCT,Hematocrit,HEMATOLOGY,45.29,%,41.0,51.0,45.29,45.29,%,41.0,51.0,NORMAL,,WEEK 8,6,2025-07-31,56
STUDY001,LB,STUDY001-SUBJ0009,53,L00053,WBC,White Blood Cell Count,HEMATOLOGY,5.4,10^9/L,4.5,11.0,5.4,5.4,10^9/L,4.5,11.0,NORMAL,,WEEK 8,6,2025-07-31,56
STUDY001,LB,STUDY001-SUBJ0009,54,L00054,PLT,Platelet Count,HEMATOLOGY,268.19,10^9/L,150.0,450.0,268.19,268.19,10^9/L,150.0,450.0,NORMAL,,WEEK 8,6,2025-07-31,56
STUDY001,LB,STUDY001-SUBJ0009,55,L00055,GLUC,Glucose,CHEMISTRY,82.47,mg/dL,70.0,100.0,82.47,82.47,mg/dL,70.0,100.0,NORMAL,,WEEK 8,6,2025-07-31,56
STUDY001,LB,STUDY001-SUBJ0009,56,L00056,BUN,Blood Urea Nitrogen,CHEMISTRY,12.27,mg/dL,7.0,20.0,12.27,12.27,mg/dL,7.0,20.0,NORMAL,,WEEK 8,6,2025-07-31,56
STUDY001,LB,STUDY001-SUBJ0009,57,L00057,CREAT,Creatinine,CHEMISTRY,1.06,mg/dL,0.6,1.2,1.06,1.06,mg/dL,0.6,1.2,NORMAL,,WEEK 8,6,2025-07-31,56
STUDY001,LB,STUDY001-SUBJ0009,58,L00058,BILI,Total Bilirubin,CHEMISTRY,0.64,mg/dL,0.1,1.2,0.64,0.64,mg/dL,0.1,1.2,NORMAL,,WEEK 8,6,2025-07-31,56
STUDY001,LB,STUDY001-SUBJ0009,59,L00059,ALP,Alkaline Phosphatase,CHEMISTRY,112.42,U/L,44.0,147.0,112.42,112.42,U/L,44.0,147.0,NORMAL,,WEEK 8,6,2025-07-31,56
STUDY001,LB,STUDY001-SUBJ0009,60,L00060,ALT,Alanine Aminotransferase,CHEMISTRY,27.68,U/L,7.0,56.0,27.68,27.68,U/L,7.0,56.0,NORMAL,,WEEK 8,6,2025-07-31,56
STUDY001,LB,STUDY001-SUBJ0009,61,L00061,HGB,Hemoglobin,HEMATOLOGY,13.67,g/dL,13.5,17.5,13.67,13.67,g/dL,13.5,17.5,NORMAL,,WEEK 12,7,2025-08-28,84
STUDY001,LB,STUDY001-SUBJ0009,62,L00062,HCT,Hematocrit,HEMATOLOGY,45.61,%,41.0,51.0,45.61,45.61,%,41.0,51.0,NORMAL,,WEEK 12,7,2025-08-28,84
STUDY001,LB,STUDY001-SUBJ0009,63,L00063,WBC,White Blood Cell Count,HEMATOLOGY,5.42,10^9/L,4.5,11.0,5.42,5.42,10^9/L,4.5,11.0,NORMAL,,WEEK 12,7,2025-08-28,84
STUDY001,LB,STUDY001-SUBJ0009,64,L00064,PLT,Platelet Count,HEMATOLOGY,268.26,10^9/L,150.0,450.0,268.26,268.26,10^9/L,150.0,450.0,NORMAL,,WEEK 12,7,2025-08-28,84
STUDY001,LB,STUDY001-SUBJ0009,65,L00065,GLUC,Glucose,CHEMISTRY,81.18,mg/dL,70.0,100.0,81.18,81.18,mg/dL,70.0,100.0,NORMAL,,WEEK 12,7,2025-08-28,84
STUDY001,LB,STUDY001-SUBJ0009,66,L00066,BUN,Blood Urea Nitrogen,CHEMISTRY,12.03,mg/dL,7.0,20.0,12.03,12.03,mg/dL,7.0,20.0,NORMAL,,WEEK 12,7,2025-08-28,84
STUDY001,LB,STUDY001-SUBJ0009,67,L00067,CREAT,Creatinine,CHEMISTRY,1.04,mg/dL,0.6,1.2,1.04,1.04,mg/dL,0.6,1.2,NORMAL,,WEEK 12,7,2025-08-28,84
STUDY001,LB,STUDY001-SUBJ0009,68,L00068,BILI,Total Bilirubin,CHEMISTRY,0.61,mg/dL,0.1,1.2,0.61,0.61,mg/dL,0.1,1.2,NORMAL,,WEEK 12,7,2025-08-28,84
STUDY001,LB,STUDY001-SUBJ0009,69,L00069,ALP,Alkaline Phosphatase,CHEMISTRY,110.82,U/L,44.0,147.0,110.82,110.82,U/L,44.0,147.0,NORMAL,,WEEK 12,7,2025-08-28,84
STUDY001,LB,STUDY001-SUBJ0009,70,L00070,ALT,Alanine Aminotransferase,CHEMISTRY,28.0,U/L,7.0,56.0,28.0,28.0,U/L,7.0,56.0,NORMAL,,WEEK 12,7,2025-08-28,84
STUDY001,LB,STUDY001-SUBJ0009,71,L00071,HGB,Hemoglobin,HEMATOLOGY,13.82,g/dL,13.5,17.5,13.82,13.82,g/dL,13.5,17.5,NORMAL,,WEEK 16,8,2025-09-25,112
STUDY001,LB,STUDY001-SUBJ0009,72,L00072,HCT,Hematocrit,HEMATOLOGY,45.44,%,41.0,51.0,45.44,45.44,%,41.0,51.0,NORMAL,,WEEK 16,8,2025-09-25,112
STUDY001,LB,STUDY001-SUBJ0009,73,L00073,WBC,White Blood Cell Count,HEMATOLOGY,5.22,10^9/L,4.5,11.0,5.22,5.22,10^9/L,4.5,11.0,NORMAL,,WEEK 16,8,2025-09-25,112
STUDY001,LB,STUDY001-SUBJ0009,74,L00074,PLT,Platelet Count,HEMATOLOGY,270.46,10^9/L,150.0,450.0,270.46,270.46,10^9/L,150.0,450.0,NORMAL,,WEEK 16,8,2025-09-25,112
STUDY001,LB,STUDY001-SUBJ0009,75,L00075,GLUC,Glucose,CHEMISTRY,80.92,mg/dL,70.0,100.0,80.92,80.92,mg/dL,70.0,100.0,NORMAL,,WEEK 16,8,2025-09-25,112
STUDY001,LB,STUDY001-SUBJ0009,76,L00076,BUN,Blood Urea Nitrogen,CHEMISTRY,12.35,mg/dL,7.0,20.0,12.35,12.35,mg/dL,7.0,20.0,NORMAL,,WEEK 16,8,2025-09-25,112
STUDY001,LB,STUDY001-SUBJ0009,77,L00077,CREAT,Creatinine,CHEMISTRY,1.07,mg/dL,0.6,1.2,1.07,1.07,mg/dL,0.6,1.2,NORMAL,,WEEK 16,8,2025-09-25,112
STUDY001,LB,STUDY001-SUBJ0009,78,L00078,BILI,Total Bilirubin,CHEMISTRY,0.63,mg/dL,0.1,1.2,0.63,0.63,mg/dL,0.1,1.2,NORMAL,,WEEK 16,8,2025-09-25,112
STUDY001,LB,STUDY001-SUBJ0009,79,L00079,ALP,Alkaline Phosphatase,CHEMISTRY,111.01,U/L,44.0,147.0,111.01,111.01,U/L,44.0,147.0,NORMAL,,WEEK 16,8,2025-09-25,112
STUDY001,LB,STUDY001-SUBJ0009,80,L00080,ALT,Alanine Aminotransferase,CHEMISTRY,28.97,U/L,7.0,56.0,28.97,28.97,U/L,7.0,56.0,NORMAL,,WEEK 16,8,2025-09-25,112
STUDY001,LB,STUDY001-SUBJ0009,81,L00081,HGB,Hemoglobin,HEMATOLOGY,13.67,g/dL,13.5,17.5,13.67,13.67,g/dL,13.5,17.5,NORMAL,,END OF TREATMENT,9,2025-10-23,140
STUDY001,LB,STUDY001-SUBJ0009,82,L00082,HCT,Hematocrit,HEMATOLOGY,45.65,%,41.0,51.0,45.65,45.65,%,41.0,51.0,NORMAL,,END OF TREATMENT,9,2025-10-23,140
STUDY001,LB,STUDY001-SUBJ0009,83,L00083,WBC,White Blood Cell Count,HEMATOLOGY,5.49,10^9/L,4.5,11.0,5.49,5.49,10^9/L,4.5,11.0,NORMAL,,END OF TREATMENT,9,2025-10-23,140
STUDY001,LB,STUDY001-SUBJ0009,84,L00084,PLT,Platelet Count,HEMATOLOGY,262.74,10^9/L,150.0,450.0,262.74,262.74,10^9/L,150.0,450.0,NORMAL,,END OF TREATMENT,9,2025-10-23,140
STUDY001,LB,STUDY001-SUBJ0009,85,L00085,GLUC,Glucose,CHEMISTRY,79.49,mg/dL,70.0,100.0,79.49,79.49,mg/dL,70.0,100.0,NORMAL,,END OF TREATMENT,9,2025-10-23,140
STUDY001,LB,STUDY001-SUBJ0009,86,L00086,BUN,Blood Urea Nitrogen,CHEMISTRY,12.39,mg/dL,7.0,20.0,12.39,12.39,mg/dL,7.0,20.0,NORMAL,,END OF TREATMENT,9,2025-10-23,140
STUDY001,LB,STUDY001-SUBJ0009,87,L00087,CREAT,Creatinine,CHEMISTRY,1.07,mg/dL,0.6,1.2,1.07,1.07,mg/dL,0.6,1.2,NORMAL,,END OF TREATMENT,9,2025-10-23,140
STUDY001,LB,STUDY001-SUBJ0009,88,L00088,BILI,Total Bilirubin,CHEMISTRY,0.57,mg/dL,0.1,1.2,0.57,0.57,mg/dL,0.1,1.2,NORMAL,,END OF TREATMENT,9,2025-10-23,140
STUDY001,LB,STUDY001-SUBJ0009,89,L00089,ALP,Alkaline Phosphatase,CHEMISTRY,109.77,U/L,44.0,147.0,109.77,109.77,U/L,44.0,147.0,NORMAL,,END OF TREATMENT,9,2025-10-23,140
STUDY001,LB,STUDY001-SUBJ0009,90,L00090,ALT,Alanine Aminotransferase,CHEMISTRY,27.31,U/L,7.0,56.0,27.31,27.31,U/L,7.0,56.0,NORMAL,,END OF TREATMENT,9,2025-10-23,140
STUDY001,LB,STUDY001-SUBJ0010,1,L00001,HGB,Hemoglobin,HEMATOLOGY,13.69,g/dL,13.5,17.5,13.69,13.69,g/dL,13.5,17.5,NORMAL,,SCREENING,1,2025-02-05,-14
STUDY001,LB,STUDY001-SUBJ0010,2,L00002,HCT,Hematocrit,HEMATOLOGY,39.04,%,41.0,51.0,39.04,39.04,%,41.0,51.0,LOW,,SCREENING,1,2025-02-05,-14
STUDY001,LB,STUDY001-SUBJ0010,3,L00003,WBC,White Blood Cell Count,HEMATOLOGY,6.84,10^9/L,4.5,11.0,6.84,6.84,10^9/L,4.5,11.0,NORMAL,,SCREENING,1,2025-02-05,-14
STUDY001,LB,STUDY001-SUBJ0010,4,L00004,PLT,Platelet Count,HEMATOLOGY,200.74,10^9/L,150.0,450.0,200.74,200.74,10^9/L,150.0,450.0,NORMAL,,SCREENING,1,2025-02-05,-14
STUDY001,LB,STUDY001-SUBJ0010,5,L00005,GLUC,Glucose,CHEMISTRY,92.36,mg/dL,70.0,100.0,92.36,92.36,mg/dL,70.0,100.0,NORMAL,,SCREENING,1,2025-02-05,-14
STUDY001,LB,STUDY001-SUBJ0010,6,L00006,BUN,Blood Urea Nitrogen,CHEMISTRY,10.99,mg/dL,7.0,20.0,10.99,10.99,mg/dL,7.0,20.0,NORMAL,,SCREENING,1,2025-02-05,-14
STUDY001,LB,STUDY001-SUBJ0010,7,L00007,CREAT,Creatinine,CHEMISTRY,0.82,mg/dL,0.6,1.2,0.82,0.82,mg/dL,0.6,1.2,NORMAL,,SCREENING,1,2025-02-05,-14
STUDY001,LB,STUDY001-SUBJ0010,8,L00008,BILI,Total Bilirubin,CHEMISTRY,0.79,mg/dL,0.1,1.2,0.79,0.79,mg/dL,0.1,1.2,NORMAL,,SCREENING,1,2025-02-05,-14
STUDY001,LB,STUDY001-SUBJ0010,9,L00009,ALP,Alkaline Phosphatase,CHEMISTRY,93.37,U/L,44.0,147.0,93.37,93.37,U/L,44.0,147.0,NORMAL,,SCREENING,1,2025-02-05,-14
STUDY001,LB,STUDY001-SUBJ0010,10,L00010,ALT,Alanine Aminotransferase,CHEMISTRY,13.55,U/L,7.0,56.0,13.55,13.55,U/L,7.0,56.0,NORMAL,,SCREENING,1,2025-02-05,-14
STUDY001,LB,STUDY001-SUBJ0010,11,L00011,HGB,Hemoglobin,HEMATOLOGY,13.87,g/dL,13.5,17.5,13.87,13.87,g/dL,13.5,17.5,NORMAL,Y,BASELINE,2,2025-02-19,1
STUDY001,LB,STUDY001-SUBJ0010,12,L00012,HCT,Hematocrit,HEMATOLOGY,39.34,%,41.0,51.0,39.34,39.34,%,41.0,51.0,LOW,Y,BASELINE,2,2025-02-19,1
STUDY001,LB,STUDY001-SUBJ0010,13,L00013,WBC,White Blood Cell Count,HEMATOLOGY,7.03,10^9/L,4.5,11.0,7.03,7.03,10^9/L,4.5,11.0,NORMAL,Y,BASELINE,2,2025-02-19,1
STUDY001,LB,STUDY001-SUBJ0010,14,L00014,PLT,Platelet Count,HEMATOLOGY,205.3,10^9/L,150.0,450.0,205.3,205.3,10^9/L,150.0,450.0,NORMAL,Y,BASELINE,2,2025-02-19,1
STUDY001,LB,STUDY001-SUBJ0010,15,L00015,GLUC,Glucose,CHEMISTRY,91.58,mg/dL,70.0,100.0,91.58,91.58,mg/dL,70.0,100.0,NORMAL,Y,BASELINE,2,2025-02-19,1
STUDY001,LB,STUDY001-SUBJ0010,16,L00016,BUN,Blood Urea Nitrogen,CHEMISTRY,10.66,mg/dL,7.0,20.0,10.66,10.66,mg/dL,7.0,20.0,NORMAL,Y,BASELINE,2,2025-02-19,1
STUDY001,LB,STUDY001-SUBJ0010,17,L00017,CREAT,Creatinine,CHEMISTRY,0.86,mg/dL,0.6,1.2,0.86,0.86,mg/dL,0.6,1.2,NORMAL,Y,BASELINE,2,2025-02-19,1
STUDY001,LB,STUDY001-SUBJ0010,18,L00018,BILI,Total Bilirubin,CHEMISTRY,0.81,mg/dL,0.1,1.2,0.81,0.81,mg/dL,0.1,1.2,NORMAL,Y,BASELINE,2,2025-02-19,1
STUDY001,LB,STUDY001-SUBJ0010,19,L00019,ALP,Alkaline Phosphatase,CHEMISTRY,91.82,U/L,44.0,147.0,91.82,91.82,U/L,44.0,147.0,NORMAL,Y,BASELINE,2,2025-02-19,1
STUDY001,LB,STUDY001-SUBJ0010,20,L00020,ALT,Alanine Aminotransferase,CHEMISTRY,15.34,U/L,7.0,56.0,15.34,15.34,U/L,7.0,56.0,NORMAL,Y,BASELINE,2,2025-02-19,1
STUDY001,LB,STUDY001-SUBJ0010,21,L00021,HGB,Hemoglobin,HEMATOLOGY,13.65,g/dL,13.5,17.5,13.65,13.65,g/dL,13.5,17.5,NORMAL,,WEEK 1,3,2025-02-25,7
STUDY001,LB,STUDY001-SUBJ0010,22,L00022,HCT,Hematocrit,HEMATOLOGY,38.46,%,41.0,51.0,38.46,38.46,%,41.0,51.0,LOW,,WEEK 1,3,2025-02-25,7
STUDY001,LB,STUDY001-SUBJ0010,23,L00023,WBC,White Blood Cell Count,HEMATOLOGY,6.64,10^9/L,4.5,11.0,6.64,6.64,10^9/L,4.5,11.0,NORMAL,,WEEK 1,3,2025-02-25,7
STUDY001,LB,STUDY001-SUBJ0010,24,L00024,PLT,Platelet Count,HEMATOLOGY,209.43,10^9/L,150.0,450.0,209.43,209.43,10^9/L,150.0,450.0,NORMAL,,WEEK 1,3,2025-02-25,7
STUDY001,LB,STUDY001-SUBJ0010,25,L00025,GLUC,Glucose,CHEMISTRY,91.19,mg/dL,70.0,100.0,91.19,91.19,mg/dL,70.0,100.0,NORMAL,,WEEK 1,3,2025-02-25,7
STUDY001,LB,STUDY001-SUBJ0010,26,L00026,BUN,Blood Urea Nitrogen,CHEMISTRY,11.08,mg/dL,7.0,20.0,11.08,11.08,mg/dL,7.0,20.0,NORMAL,,WEEK 1,3,2025-02-25,7
STUDY001,LB,STUDY001-SUBJ0010,27,L00027,CREAT,Creatinine,CHEMISTRY,0.86,mg/dL,0.6,1.2,0.86,0.86,mg/dL,0.6,1.2,NORMAL,,WEEK 1,3,2025-02-25,7
STUDY001,LB,STUDY001-SUBJ0010,28,L00028,BILI,Total Bilirubin,CHEMISTRY,0.75,mg/dL,0.1,1.2,0.75,0.75,mg/dL,0.1,1.2,NORMAL,,WEEK 1,3,2025-02-25,7
STUDY001,LB,STUDY001-SUBJ0010,29,L00029,ALP,Alkaline Phosphatase,CHEMISTRY,91.51,U/L,44.0,147.0,91.51,91.51,U/L,44.0,147.0,NORMAL,,WEEK 1,3,2025-02-25,7
STUDY001,LB,STUDY001-SUBJ0010,30,L00030,ALT,Alanine Aminotransferase,CHEMISTRY,15.21,U/L,7.0,56.0,15.21,15.21,U/L,7.0,56.0,NORMAL,,WEEK 1,3,2025-02-25,7
STUDY001,LB,STUDY001-SUBJ0010,31,L00031,HGB,Hemoglobin,HEMATOLOGY,13.85,g/dL,13.5,17.5,13.85,13.85,g/dL,13.5,17.5,NORMAL,,WEEK 2,4,2025-03-04,14
STUDY001,LB,STUDY001-SUBJ0010,32,L00032,HCT,Hematocrit,HEMATOLOGY,39.13,%,41.0,51.0,39.13,39.13,%,41.0,51.0,LOW,,WEEK 2,4,2025-03-04,14
STUDY001,LB,STUDY001-SUBJ0010,33,L00033,WBC,White Blood Cell Count,HEMATOLOGY,7.28,10^9/L,4.5,11.0,7.28,7.28,10^9/L,4.5,11.0,NORMAL,,WEEK 2,4,2025-03-04,14
STUDY001,LB,STUDY001-SUBJ0010,34,L00034,PLT,Platelet Count,HEMATOLOGY,205.12,10^9/L,150.0,450.0,205.12,205.12,10^9/L,150.0,450.0,NORMAL,,WEEK 2,4,2025-03-04,14
STUDY001,LB,STUDY001-SUBJ0010,35,L00035,GLUC,Glucose,CHEMISTRY,92.7,mg/dL,70.0,100.0,92.7,92.7,mg/dL,70.0,100.0,NORMAL,,WEEK 2,4,2025-03-04,14
STUDY001,LB,STUDY001-SUBJ0010,36,L00036,BUN,Blood Urea Nitrogen,CHEMISTRY,11.25,mg/dL,7.0,20.0,11.25,11.25,mg/dL,7.0,20.0,NORMAL,,WEEK 2,4,2025-03-04,14
STUDY001,LB,STUDY001-SUBJ0010,37,L00037,CREAT,Creatinine,CHEMISTRY,0.85,mg/dL,0.6,1.2,0.85,0.85,mg/dL,0.6,1.2,NORMAL,,WEEK 2,4,2025-03-04,14
STUDY001,LB,STUDY001-SUBJ0010,38,L00038,BILI,Total Bilirubin,CHEMISTRY,0.76,mg/dL,0.1,1.2,0.76,0.76,mg/dL,0.1,1.2,NORMAL,,WEEK 2,4,2025-03-04,14
STUDY001,LB,STUDY001-SUBJ0010,39,L00039,ALP,Alkaline Phosphatase,CHEMISTRY,93.2,U/L,44.0,147.0,93.2,93.2,U/L,44.0,147.0,NORMAL,,WEEK 2,4,2025-03-04,14
STUDY001,LB,STUDY001-SUBJ0010,40,L00040,ALT,Alanine Aminotransferase,CHEMISTRY,16.0,U/L,7.0,56.0,16.0,16.0,U/L,7.0,56.0,NORMAL,,WEEK 2,4,2025-03-04,14
STUDY001,LB,STUDY001-SUBJ0010,41,L00041,HGB,Hemoglobin,HEMATOLOGY,13.82,g/dL,13.5,17.5,13.82,13.82,g/dL,13.5,17.5,NORMAL,,WEEK 4,5,2025-03-18,28
STUDY001,LB,STUDY001-SUBJ0010,42,L00042,HCT,Hematocrit,HEMATOLOGY,38.77,%,41.0,51.0,38.77,38.77,%,41.0,51.0,LOW,,WEEK 4,5,2025-03-18,28
STUDY001,LB,STUDY001-SUBJ0010,43,L00043,WBC,White Blood Cell Count,HEMATOLOGY,7.09,10^9/L,4.5,11.0,7.09,7.09,10^9/L,4.5,11.0,NORMAL,,WEEK 4,5,2025-03-18,28
STUDY001,LB,STUDY001-SUBJ0010,44,L00044,PLT,Platelet Count,HEMATOLOGY,207.63,10^9/L,150.0,450.0,207.63,207.63,10^9/L,150.0,450.0,NORMAL,,WEEK 4,5,2025-03-18,28
STUDY001,LB,STUDY001-SUBJ0010,45,L00045,GLUC,Glucose,CHEMISTRY,91.56,mg/dL,70.0,100.0,91.56,91.56,mg/dL,70.0,100.0,NORMAL,,WEEK 4,5,2025-03-18,28
STUDY001,LB,STUDY001-SUBJ0010,46,L00046,BUN,Blood Urea Nitrogen,CHEMISTRY,10.8,mg/dL,7.0,20.0,10.8,10.8,mg/dL,7.0,20.0,NORMAL,,WEEK 4,5,2025-03-18,28
STUDY001,LB,STUDY001-SUBJ0010,47,L00047,CREAT,Creatinine,CHEMISTRY,0.82,mg/dL,0.6,1.2,0.82,0.82,mg/dL,0.6,1.2,NORMAL,,WEEK 4,5,2025-03-18,28
STUDY001,LB,STUDY001-SUBJ0010,48,L00048,BILI,Total Bilirubin,CHEMISTRY,0.74,mg/dL,0.1,1.2,0.74,0.74,mg/dL,0.1,1.2,NORMAL,,WEEK 4,5,2025-03-18,28
STUDY001,LB,STUDY001-SUBJ0010,49,L00049,ALP,Alkaline Phosphatase,CHEMISTRY,95.1,U/L,44.0,147.0,95.1,95.1,U/L,44.0,147.0,NORMAL,,WEEK 4,5,2025-03-18,28
STUDY001,LB,STUDY001-SUBJ0010,50,L00050,ALT,Alanine Aminotransferase,CHEMISTRY,14.34,U/L,7.0,56.0,14.34,14.34,U/L,7.0,56.0,NORMAL,,WEEK 4,5,2025-03-18,28
STUDY001,LB,STUDY001-SUBJ0010,51,L00051,HGB,Hemoglobin,HEMATOLOGY,13.74,g/dL,13.5,17.5,13.74,13.74,g/dL,13.5,17.5,NORMAL,,WEEK 8,6,2025-04-15,56
STUDY001,LB,STUDY001-SUBJ0010,52,L00052,HCT,Hematocrit,HEMATOLOGY,38.6,%,41.0,51.0,38.6,38.6,%,41.0,51.0,LOW,,WEEK 8,6,2025-04-15,56
STUDY001,LB,STUDY001-SUBJ0010,53,L00053,WBC,White Blood Cell Count,HEMATOLOGY,6.72,10^9/L,4.5,11.0,6.72,6.72,10^9/L,4.5,11.0,NORMAL,,WEEK 8,6,2025-04-15,56
STUDY001,LB,STUDY001-SUBJ0010,54,L00054,PLT,Platelet Count,HEMATOLOGY,213.98,10^9/L,150.0,450.0,213.98,213.98,10^9/L,150.0,450.0,NORMAL,,WEEK 8,6,2025-04-15,56
STUDY001,LB,STUDY001-SUBJ0010,55,L00055,GLUC,Glucose,CHEMISTRY,90.56,mg/dL,70.0,100.0,90.56,90.56,mg/dL,70.0,100.0,NORMAL,,WEEK 8,6,2025-04-15,56
STUDY001,LB,STUDY001-SUBJ0010,56,L00056,BUN,Blood Urea Nitrogen,CHEMISTRY,10.77,mg/dL,7.0,20.0,10.77,10.77,mg/dL,7.0,20.0,NORMAL,,WEEK 8,6,2025-04-15,56
STUDY001,LB,STUDY001-SUBJ0010,57,L00057,CREAT,Creatinine,CHEMISTRY,0.84,mg/dL,0.6,1.2,0.84,0.84,mg/dL,0.6,1.2,NORMAL,,WEEK 8,6,2025-04-15,56
STUDY001,LB,STUDY001-SUBJ0010,58,L00058,BILI,Total Bilirubin,CHEMISTRY,0.8,mg/dL,0.1,1.2,0.8,0.8,mg/dL,0.1,1.2,NORMAL,,WEEK 8,6,2025-04-15,56
STUDY001,LB,STUDY001-SUBJ0010,59,L00059,ALP,Alkaline Phosphatase,CHEMISTRY,90.63,U/L,44.0,147.0,90.63,90.63,U/L,44.0,147.0,NORMAL,,WEEK 8,6,2025-04-15,56
STUDY001,LB,STUDY001-SUBJ0010,60,L00060,ALT,Alanine Aminotransferase,CHEMISTRY,16.17,U/L,7.0,56.0,16.17,16.17,U/L,7.0,56.0,NORMAL,,WEEK 8,6,2025-04-15,56
STUDY001,LB,STUDY001-SUBJ0010,61,L00061,HGB,Hemoglobin,HEMATOLOGY,13.71,g/dL,13.5,17.5,13.71,13.71,g/dL,13.5,17.5,NORMAL,,WEEK 12,7,2025-05-13,84
STUDY001,LB,STUDY001-SUBJ0010,62,L00062,HCT,Hematocrit,HEMATOLOGY,39.04,%,41.0,51.0,39.04,39.04,%,41.0,51.0,LOW,,WEEK 12,7,2025-05-13,84
STUDY001,LB,STUDY001-SUBJ0010,63,L00063,WBC,White Blood Cell Count,HEMATOLOGY,7.45,10^9/L,4.5,11.0,7.45,7.45,10^9/L,4.5,11.0,NORMAL,,WEEK 12,7,2025-05-13,84
STUDY001,LB,STUDY001-SUBJ0010,64,L00064,PLT,Platelet Count,HEMATOLOGY,204.0,10^9/L,150.0,450.0,204.0,204.0,10^9/L,150.0,450.0,NORMAL,,WEEK 12,7,2025-05-13,84
STUDY001,LB,STUDY001-SUBJ0010,65,L00065,GLUC,Glucose,CHEMISTRY,92.84,mg/dL,70.0,100.0,92.84,92.84,mg/dL,70.0,100.0,NORMAL,,WEEK 12,7,2025-05-13,84
STUDY001,LB,STUDY001-SUBJ0010,66,L00066,BUN,Blood Urea Nitrogen,CHEMISTRY,10.84,mg/dL,7.0,20.0,10.84,10.84,mg/dL,7.0,20.0,NORMAL,,WEEK 12,7,2025-05-13,84
STUDY001,LB,STUDY001-SUBJ0010,67,L00067,CREAT,Creatinine,CHEMISTRY,0.85,mg/dL,0.6,1.2,0.85,0.85,mg/dL,0.6,1.2,NORMAL,,WEEK 12,7,2025-05-13,84
STUDY001,LB,STUDY001-SUBJ0010,68,L00068,BILI,Total Bilirubin,CHEMISTRY,0.78,mg/dL,0.1,1.2,0.78,0.78,mg/dL,0.1,1.2,NORMAL,,WEEK 12,7,2025-05-13,84
STUDY001,LB,STUDY001-SUBJ0010,69,L00069,ALP,Alkaline Phosphatase,CHEMISTRY,93.97,U/L,44.0,147.0,93.97,93.97,U/L,44.0,147.0,NORMAL,,WEEK 12,7,2025-05-13,84
STUDY001,LB,STUDY001-SUBJ0010,70,L00070,ALT,Alanine Aminotransferase,CHEMISTRY,14.75,U/L,7.0,56.0,14.75,14.75,U/L,7.0,56.0,NORMAL,,WEEK 12,7,2025-05-13,84
STUDY001,LB,STUDY001-SUBJ0010,71,L00071,HGB,Hemoglobin,HEMATOLOGY,13.73,g/dL,13.5,17.5,13.73,13.73,g/dL,13.5,17.5,NORMAL,,WEEK 16,8,2025-06-10,112
STUDY001,LB,STUDY001-SUBJ0010,72,L00072,HCT,Hematocrit,HEMATOLOGY,38.52,%,41.0,51.0,38.52,38.52,%,41.0,51.0,LOW,,WEEK 16,8,2025-06-10,112
STUDY001,LB,STUDY001-SUBJ0010,73,L00073,WBC,White Blood Cell Count,HEMATOLOGY,6.97,10^9/L,4.5,11.0,6.97,6.97,10^9/L,4.5,11.0,NORMAL,,WEEK 16,8,2025-06-10,112
STUDY001,LB,STUDY001-SUBJ0010,74,L00074,PLT,Platelet Count,HEMATOLOGY,208.46,10^9/L,150.0,450.0,208.46,208.46,10^9/L,150.0,450.0,NORMAL,,WEEK 16,8,2025-06-10,112
STUDY001,LB,STUDY001-SUBJ0010,75,L00075,GLUC,Glucose,CHEMISTRY,90.39,mg/dL,70.0,100.0,90.39,90.39,mg/dL,70.0,100.0,NORMAL,,WEEK 16,8,2025-06-10,112
STUDY001,LB,STUDY001-SUBJ0010,76,L00076,BUN,Blood Urea Nitrogen,CHEMISTRY,11.36,mg/dL,7.0,20.0,11.36,11.36,mg/dL,7.0,20.0,NORMAL,,WEEK 16,8,2025-06-10,112
STUDY001,LB,STUDY001-SUBJ0010,77,L00077,CREAT,Creatinine,CHEMISTRY,0.87,mg/dL,0.6,1.2,0.87,0.87,mg/dL,0.6,1.2,NORMAL,,WEEK 16,8,2025-06-10,112
STUDY001,LB,STUDY001-SUBJ0010,78,L00078,BILI,Total Bilirubin,CHEMISTRY,0.73,mg/dL,0.1,1.2,0.73,0.73,mg/dL,0.1,1.2,NORMAL,,WEEK 16,8,2025-06-10,112
STUDY001,LB,STUDY001-SUBJ0010,79,L00079,ALP,Alkaline Phosphatase,CHEMISTRY,93.52,U/L,44.0,147.0,93.52,93.52,U/L,44.0,147.0,NORMAL,,WEEK 16,8,2025-06-10,112
STUDY001,LB,STUDY001-SUBJ0010,80,L00080,ALT,Alanine Aminotransferase,CHEMISTRY,13.71,U/L,7.0,56.0,13.71,13.71,U/L,7.0,56.0,NORMAL,,WEEK 16,8,2025-06-10,112
STUDY001,LB,STUDY001-SUBJ0010,81,L00081,HGB,Hemoglobin,HEMATOLOGY,13.83,g/dL,13.5,17.5,13.83,13.83,g/dL,13.5,17.5,NORMAL,,END OF TREATMENT,9,2025-07-08,140
STUDY001,LB,STUDY001-SUBJ0010,82,L00082,HCT,Hematocrit,HEMATOLOGY,38.69,%,41.0,51.0,38.69,38.69,%,41.0,51.0,LOW,,END OF TREATMENT,9,2025-07-08,140
STUDY001,LB,STUDY001-SUBJ0010,83,L00083,WBC,White Blood Cell Count,HEMATOLOGY,6.77,10^9/L,4.5,11.0,6.77,6.77,10^9/L,4.5,11.0,NORMAL,,END OF TREATMENT,9,2025-07-08,140
STUDY001,LB,STUDY001-SUBJ0010,84,L00084,PLT,Platelet Count,HEMATOLOGY,204.4,10^9/L,150.0,450.0,204.4,204.4,10^9/L,150.0,450.0,NORMAL,,END OF TREATMENT,9,2025-07-08,140
STUDY001,LB,STUDY001-SUBJ0010,85,L00085,GLUC,Glucose,CHEMISTRY,91.72,mg/dL,70.0,100.0,91.72,91.72,mg/dL,70.0,100.0,NORMAL,,END OF TREATMENT,9,2025-07-08,140
STUDY001,LB,STUDY001-SUBJ0010,86,L00086,BUN,Blood Urea Nitrogen,CHEMISTRY,11.01,mg/dL,7.0,20.0,11.01,11.01,mg/dL,7.0,20.0,NORMAL,,END OF TREATMENT,9,2025-07-08,140
STUDY001,LB,STUDY001-SUBJ0010,87,L00087,CREAT,Creatinine,CHEMISTRY,0.84,mg/dL,0.6,1.2,0.84,0.84,mg/dL,0.6,1.2,NORMAL,,END OF TREATMENT,9,2025-07-08,140
STUDY001,LB,STUDY001-SUBJ0010,88,L00088,BILI,Total Bilirubin,CHEMISTRY,0.79,mg/dL,0.1,1.2,0.79,0.79,mg/dL,0.1,1.2,NORMAL,,END OF TREATMENT,9,2025-07-08,140
STUDY001,LB,STUDY001-SUBJ0010,89,L00089,ALP,Alkaline Phosphatase,CHEMISTRY,97.47,U/L,44.0,147.0,97.47,97.47,U/L,44.0,147.0,NORMAL,,END OF TREATMENT,9,2025-07-08,140
STUDY001,LB,STUDY001-SUBJ0010,90,L00090,ALT,Alanine Aminotransferase,CHEMISTRY,16.06,U/L,7.0,56.0,16.06,16.06,U/L,7.0,56.0,NORMAL,,END OF TREATMENT,9,2025-07-08,140
