STUDYID,DOMAIN,USUBJID,LBSEQ,LBREFID,LBTESTCD,LBTEST,LBCAT,LBORRES,LBORRESU,LBORNRLO,LBORNRHI,LBSTRESC,LBSTRESN,LBSTRESU,LBSTNRLO,LBSTNRHI,LBNRIND,LBBLFL,VISIT,VISITNUM,LBDTC,LBDY
STUDY001,LB,STUDY001-SUBJ0001,1,L00001,HGB,Hemoglobin,HEMATOLOGY,13.71,g/dL,13.5,17.5,13.71,13.71,g/dL,13.5,17.5,NORMAL,,SCREENING,1,2025-01-26,-14
STUDY001,LB,STUDY001-SUBJ0001,2,L00002,HCT,Hematocrit,HEMATOLOGY,46.61,%,41.0,51.0,46.61,46.61,%,41.0,51.0,NORMAL,,SCREENING,1,2025-01-26,-14
STUDY001,LB,STUDY001-SUBJ0001,3,L00003,WBC,White Blood Cell Count,HEMATOLOGY,5.42,10^9/L,4.5,11.0,5.42,5.42,10^9/L,4.5,11.0,NORMAL,,SCREENING,1,2025-01-26,-14
STUDY001,LB,STUDY001-SUBJ0001,4,L00004,PLT,Platelet Count,HEMATOLOGY,272.1,10^9/L,150.0,450.0,272.1,272.1,10^9/L,150.0,450.0,NORMAL,,SCREENING,1,2025-01-26,-14
STUDY001,LB,STUDY001-SUBJ0001,5,L00005,GLUC,Glucose,CHEMISTRY,92.89,mg/dL,70.0,100.0,92.89,92.89,mg/dL,70.0,100.0,NORMAL,,SCREENING,1,2025-01-26,-14
STUDY001,LB,STUDY001-SUBJ0001,6,L00006,BUN,Blood Urea Nitrogen,CHEMISTRY,13.8,mg/dL,7.0,20.0,13.8,13.8,mg/dL,7.0,20.0,NORMAL,,SCREENING,1,2025-01-26,-14
STUDY001,LB,STUDY001-SUBJ0001,7,L00007,CREAT,Creatinine,CHEMISTRY,1.13,mg/dL,0.6,1.2,1.13,1.13,mg/dL,0.6,1.2,NORMAL,,SCREENING,1,2025-01-26,-14
STUDY001,LB,STUDY001-SUBJ0001,8,L00008,BILI,Total Bilirubin,CHEMISTRY,0.59,mg/dL,0.1,1.2,0.59,0.59,mg/dL,0.1,1.2,NORMAL,,SCREENING,1,2025-01-26,-14
STUDY001,LB,STUDY001-SUBJ0001,9,L00009,ALP,Alkaline Phosphatase,CHEMISTRY,83.69,U/L,44.0,147.0,83.69,83.69,U/L,44.0,147.0,NORMAL,,SCREENING,1,2025-01-26,-14
STUDY001,LB,STUDY001-SUBJ0001,10,L00010,ALT,Alanine Aminotransferase,CHEMISTRY,34.44,U/L,7.0,56.0,34.44,34.44,U/L,7.0,56.0,NORMAL,,SCREENING,1,2025-01-26,-14
STUDY001,LB,STUDY001-SUBJ0001,11,L00011,HGB,Hemoglobin,HEMATOLOGY,13.93,g/dL,13.5,17.5,13.93,13.93,g/dL,13.5,17.5,NORMAL,Y,BASELINE,2,2025-02-09,1
STUDY001,LB,STUDY001-SUBJ0001,12,L00012,HCT,Hematocrit,HEMATOLOGY,46.93,%,41.0,51.0,46.93,46.93,%,41.0,51.0,NORMAL,Y,BASELINE,2,2025-02-09,1
STUDY001,LB,STUDY001-SUBJ0001,13,L00013,WBC,White Blood Cell Count,HEMATOLOGY,5.92,10^9/L,4.5,11.0,5.92,5.92,10^9/L,4.5,11.0,NORMAL,Y,BASELINE,2,2025-02-09,1
STUDY001,LB,STUDY001-SUBJ0001,14,L00014,PLT,Platelet Count,HEMATOLOGY,271.5,10^9/L,150.0,450.0,271.5,271.5,10^9/L,150.0,450.0,NORMAL,Y,BASELINE,2,2025-02-09,1
STUDY001,LB,STUDY001-SUBJ0001,15,L00015,GLUC,Glucose,CHEMISTRY,92.14,mg/dL,70.0,100.0,92.14,92.14,mg/dL,70.0,100.0,NORMAL,Y,BASELINE,2,2025-02-09,1
STUDY001,LB,STUDY001-SUBJ0001,16,L00016,BUN,Blood Urea Nitrogen,CHEMISTRY,13.66,mg/dL,7.0,20.0,13.66,13.66,mg/dL,7.0,20.0,NORMAL,Y,BASELINE,2,2025-02-09,1
STUDY001,LB,STUDY001-SUBJ0001,17,L00017,CREAT,Creatinine,CHEMISTRY,1.13,mg/dL,0.6,1.2,1.13,1.13,mg/dL,0.6,1.2,NORMAL,Y,BASELINE,2,2025-02-09,1
STUDY001,LB,STUDY001-SUBJ0001,18,L00018,BILI,Total Bilirubin,CHEMISTRY,0.61,mg/dL,0.1,1.2,0.61,0.61,mg/dL,0.1,1.2,NORMAL,Y,BASELINE,2,2025-02-09,1
STUDY001,LB,STUDY001-SUBJ0001,19,L00019,ALP,Alkaline Phosphatase,CHEMISTRY,85.03,U/L,44.0,147.0,85.03,85.03,U/L,44.0,147.0,NORMAL,Y,BASELINE,2,2025-02-09,1
STUDY001,LB,STUDY001-SUBJ0001,20,L00020,ALT,Alanine Aminotransferase,CHEMISTRY,34.35,U/L,7.0,56.0,34.35,34.35,U/L,7.0,56.0,NORMAL,Y,BASELINE,2,2025-02-09,1
STUDY001,LB,STUDY001-SUBJ0001,21,L00021,HGB,Hemoglobin,HEMATOLOGY,13.86,g/dL,13.5,17.5,13.86,13.86,g/dL,13.5,17.5,NORMAL,,WEEK 1,3,2025-02-15,7
STUDY001,LB,STUDY001-SUBJ0001,22,L00022,HCT,Hematocrit,HEMATOLOGY,47.04,%,41.0,51.0,47.04,47.04,%,41.0,51.0,NORMAL,,WEEK 1,3,2025-02-15,7
STUDY001,LB,STUDY001-SUBJ0001,23,L00023,WBC,White Blood Cell Count,HEMATOLOGY,5.93,10^9/L,4.5,11.0,5.93,5.93,10^9/L,4.5,11.0,NORMAL,,WEEK 1,3,2025-02-15,7
STUDY001,LB,STUDY001-SUBJ0001,24,L00024,PLT,Platelet Count,HEMATOLOGY,270.54,10^9/L,150.0,450.0,270.54,270.54,10^9/L,150.0,450.0,NORMAL,,WEEK 1,3,2025-02-15,7
STUDY001,LB,STUDY001-SUBJ0001,25,L00025,GLUC,Glucose,CHEMISTRY,94.27,mg/dL,70.0,100.0,94.27,94.27,mg/dL,70.0,100.0,NORMAL,,WEEK 1,3,2025-02-15,7
STUDY001,LB,STUDY001-SUBJ0001,26,L00026,BUN,Blood Urea Nitrogen,CHEMISTRY,13.96,mg/dL,7.0,20.0,13.96,13.96,mg/dL,7.0,20.0,NORMAL,,WEEK 1,3,2025-02-15,7
STUDY001,LB,STUDY001-SUBJ0001,27,L00027,CREAT,Creatinine,CHEMISTRY,1.15,mg/dL,0.6,1.2,1.15,1.15,mg/dL,0.6,1.2,NORMAL,,WEEK 1,3,2025-02-15,7
STUDY001,LB,STUDY001-SUBJ0001,28,L00028,BILI,Total Bilirubin,CHEMISTRY,0.62,mg/dL,0.1,1.2,0.62,0.62,mg/dL,0.1,1.2,NORMAL,,WEEK 1,3,2025-02-15,7
STUDY001,LB,STUDY001-SUBJ0001,29,L00029,ALP,Alkaline Phosphatase,CHEMISTRY,81.07,U/L,44.0,147.0,81.07,81.07,U/L,44.0,147.0,NORMAL,,WEEK 1,3,2025-02-15,7
STUDY001,LB,STUDY001-SUBJ0001,30,L00030,ALT,Alanine Aminotransferase,CHEMISTRY,35.75,U/L,7.0,56.0,35.75,35.75,U/L,7.0,56.0,NORMAL,,WEEK 1,3,2025-02-15,7
STUDY001,LB,STUDY001-SUBJ0001,31,L00031,HGB,Hemoglobin,HEMATOLOGY,13.96,g/dL,13.5,17.5,13.96,13.96,g/dL,13.5,17.5,NORMAL,,WEEK 2,4,2025-02-22,14
STUDY001,LB,STUDY001-SUBJ0001,32,L00032,HCT,Hematocrit,HEMATOLOGY,46.38,%,41.0,51.0,46.38,46.38,%,41.0,51.0,NORMAL,,WEEK 2,4,2025-02-22,14
STUDY001,LB,STUDY001-SUBJ0001,33,L00033,WBC,White Blood Cell Count,HEMATOLOGY,5.84,10^9/L,4.5,11.0,5.84,5.84,10^9/L,4.5,11.0,NORMAL,,WEEK 2,4,2025-02-22,14
STUDY001,LB,STUDY001-SUBJ0001,34,L00034,PLT,Platelet Count,HEMATOLOGY,262.65,10^9/L,150.0,450.0,262.65,262.65,10^9/L,150.0,450.0,NORMAL,,WEEK 2,4,2025-02-22,14
STUDY001,LB,STUDY001-SUBJ0001,35,L00035,GLUC,Glucose,CHEMISTRY,92.02,mg/dL,70.0,100.0,92.02,92.02,mg/dL,70.0,100.0,NORMAL,,WEEK 2,4,2025-02-22,14
STUDY001,LB,STUDY001-SUBJ0001,36,L00036,BUN,Blood Urea Nitrogen,CHEMISTRY,13.93,mg/dL,7.0,20.0,13.93,13.93,mg/dL,7.0,20.0,NORMAL,,WEEK 2,4,2025-02-22,14
STUDY001,LB,STUDY001-SUBJ0001,37,L00037,CREAT,Creatinine,CHEMISTRY,1.11,mg/dL,0.6,1.2,1.11,1.11,mg/dL,0.6,1.2,NORMAL,,WEEK 2,4,2025-02-22,14
STUDY001,LB,STUDY001-SUBJ0001,38,L00038,BILI,Total Bilirubin,CHEMISTRY,0.61,mg/dL,0.1,1.2,0.61,0.61,mg/dL,0.1,1.2,NORMAL,,WEEK 2,4,2025-02-22,14
STUDY001,LB,STUDY001-SUBJ0001,39,L00039,ALP,Alkaline Phosphatase,CHEMISTRY,90.94,U/L,44.0,147.0,90.94,90.94,U/L,44.0,147.0,NORMAL,,WEEK 2,4,2025-02-22,14
STUDY001,LB,STUDY001-SUBJ0001,40,L00040,ALT,Alanine Aminotransferase,CHEMISTRY,33.69,U/L,7.0,56.0,33.69,33.69,U/L,7.0,56.0,NORMAL,,WEEK 2,4,2025-02-22,14
STUDY001,LB,STUDY001-SUBJ0001,41,L00041,HGB,Hemoglobin,HEMATOLOGY,13.97,g/dL,13.5,17.5,13.97,13.97,g/dL,13.5,17.5,NORMAL,,WEEK 4,5,2025-03-08,28
STUDY001,LB,STUDY001-SUBJ0001,42,L00042,HCT,Hematocrit,HEMATOLOGY,46.74,%,41.0,51.0,46.74,46.74,%,41.0,51.0,NORMAL,,WEEK 4,5,2025-03-08,28
STUDY001,LB,STUDY001-SUBJ0001,43,L00043,WBC,White Blood Cell Count,HEMATOLOGY,5.6,10^9/L,4.5,11.0,5.6,5.6,10^9/L,4.5,11.0,NORMAL,,WEEK 4,5,2025-03-08,28
STUDY001,LB,STUDY001-SUBJ0001,44,L00044,PLT,Platelet Count,HEMATOLOGY,274.27,10^9/L,150.0,450.0,274.27,274.27,10^9/L,150.0,450.0,NORMAL,,WEEK 4,5,2025-03-08,28
STUDY001,LB,STUDY001-SUBJ0001,45,L00045,GLUC,Glucose,CHEMISTRY,93.82,mg/dL,70.0,100.0,93.82,93.82,mg/dL,70.0,100.0,NORMAL,,WEEK 4,5,2025-03-08,28
STUDY001,LB,STUDY001-SUBJ0001,46,L00046,BUN,Blood Urea Nitrogen,CHEMISTRY,13.57,mg/dL,7.0,20.0,13.57,13.57,mg/dL,7.0,20.0,NORMAL,,WEEK 4,5,2025-03-08,28
STUDY001,LB,STUDY001-SUBJ0001,47,L00047,CREAT,Creatinine,CHEMISTRY,1.12,mg/dL,0.6,1.2,1.12,1.12,mg/dL,0.6,1.2,NORMAL,,WEEK 4,5,2025-03-08,28
STUDY001,LB,STUDY001-SUBJ0001,48,L00048,BILI,Total Bilirubin,CHEMISTRY,0.59,mg/dL,0.1,1.2,0.59,0.59,mg/dL,0.1,1.2,NORMAL,,WEEK 4,5,2025-03-08,28
STUDY001,LB,STUDY001-SUBJ0001,49,L00049,ALP,Alkaline Phosphatase,CHEMISTRY,83.99,U/L,44.0,147.0,83.99,83.99,U/L,44.0,147.0,NORMAL,,WEEK 4,5,2025-03-08,28
STUDY001,LB,STUDY001-SUBJ0001,50,L00050,ALT,Alanine Aminotransferase,CHEMISTRY,34.48,U/L,7.0,56.0,34.48,34.48,U/L,7.0,56.0,NORMAL,,WEEK 4,5,2025-03-08,28
STUDY001,LB,STUDY001-SUBJ0001,51,L00051,HGB,Hemoglobin,HEMATOLOGY,13.93,g/dL,13.5,17.5,13.93,13.93,g/dL,13.5,17.5,NORMAL,,WEEK 8,6,2025-04-05,56
STUDY001,LB,STUDY001-SUBJ0001,52,L00052,HCT,Hematocrit,HEMATOLOGY,46.72,%,41.0,51.0,46.72,46.72,%,41.0,51.0,NORMAL,,WEEK 8,6,2025-04-05,56
STUDY001,LB,STUDY001-SUBJ0001,53,L00053,WBC,White Blood Cell Count,HEMATOLOGY,5.64,10^9/L,4.5,11.0,5.64,5.64,10^9/L,4.5,11.0,NORMAL,,WEEK 8,6,2025-04-05,56
STUDY001,LB,STUDY001-SUBJ0001,54,L00054,PLT,Platelet Count,HEMATOLOGY,281.43,10^9/L,150.0,450.0,281.43,281.43,10^9/L,150.0,450.0,NORMAL,,WEEK 8,6,2025-04-05,56
STUDY001,LB,STUDY001-SUBJ0001,55,L00055,GLUC,Glucose,CHEMISTRY,92.72,mg/dL,70.0,100.0,92.72,92.72,mg/dL,70.0,100.0,NORMAL,,WEEK 8,6,2025-04-05,56
STUDY001,LB,STUDY001-SUBJ0001,56,L00056,BUN,Blood Urea Nitrogen,CHEMISTRY,13.96,mg/dL,7.0,20.0,13.96,13.96,mg/dL,7.0,20.0,NORMAL,,WEEK 8,6,2025-04-05,56
STUDY001,LB,STUDY001-SUBJ0001,57,L00057,CREAT,Creatinine,CHEMISTRY,1.11,mg/dL,0.6,1.2,1.11,1.11,mg/dL,0.6,1.2,NORMAL,,WEEK 8,6,2025-04-05,56
STUDY001,LB,STUDY001-SUBJ0001,58,L00058,BILI,Total Bilirubin,CHEMISTRY,0.6,mg/dL,0.1,1.2,0.6,0.6,mg/dL,0.1,1.2,NORMAL,,WEEK 8,6,2025-04-05,56
STUDY001,LB,STUDY001-SUBJ0001,59,L00059,ALP,Alkaline Phosphatase,CHEMISTRY,82.93,U/L,44.0,147.0,82.93,82.93,U/L,44.0,147.0,NORMAL,,WEEK 8,6,2025-04-05,56
STUDY001,LB,STUDY001-SUBJ0001,60,L00060,ALT,Alanine Aminotransferase,CHEMISTRY,34.56,U/L,7.0,56.0,34.56,34.56,U/L,7.0,56.0,NORMAL,,WEEK 8,6,2025-04-05,56
STUDY001,LB,STUDY001-SUBJ0001,61,L00061,HGB,Hemoglobin,HEMATOLOGY,13.97,g/dL,13.5,17.5,13.97,13.97,g/dL,13.5,17.5,NORMAL,,WEEK 12,7,2025-05-03,84
STUDY001,LB,STUDY001-SUBJ0001,62,L00062,HCT,Hematocrit,HEMATOLOGY,47.01,%,41.0,51.0,47.01,47.01,%,41.0,51.0,NORMAL,,WEEK 12,7,2025-05-03,84
STUDY001,LB,STUDY001-SUBJ0001,63,L00063,WBC,White Blood Cell Count,HEMATOLOGY,5.73,10^9/L,4.5,11.0,5.73,5.73,10^9/L,4.5,11.0,NORMAL,,WEEK 12,7,2025-05-03,84
STUDY001,LB,STUDY001-SUBJ0001,64,L00064,PLT,Platelet Count,HEMATOLOGY,276.82,10^9/L,150.0,450.0,276.82,276.82,10^9/L,150.0,450.0,NORMAL,,WEEK 12,7,2025-05-03,84
STUDY001,LB,STUDY001-SUBJ0001,65,L00065,GLUC,Glucose,CHEMISTRY,95.15,mg/dL,70.0,100.0,95.15,95.15,mg/dL,70.0,100.0,NORMAL,,WEEK 12,7,2025-05-03,84
STUDY001,LB,STUDY001-SUBJ0001,66,L00066,BUN,Blood Urea Nitrogen,CHEMISTRY,14.22,mg/dL,7.0,20.0,14.22,14.22,mg/dL,7.0,20.0,NORMAL,,WEEK 12,7,2025-05-03,84
STUDY001,LB,STUDY001-SUBJ0001,67,L00067,CREAT,Creatinine,CHEMISTRY,1.1,mg/dL,0.6,1.2,1.1,1.1,mg/dL,0.6,1.2,NORMAL,,WEEK 12,7,2025-05-03,84
STUDY001,LB,STUDY001-SUBJ0001,68,L00068,BILI,Total Bilirubin,CHEMISTRY,0.63,mg/dL,0.1,1.2,0.63,0.63,mg/dL,0.1,1.2,NORMAL,,WEEK 12,7,2025-05-03,84
STUDY001,LB,STUDY001-SUBJ0001,69,L00069,ALP,Alkaline Phosphatase,CHEMISTRY,80.79,U/L,44.0,147.0,80.79,80.79,U/L,44.0,147.0,NORMAL,,WEEK 12,7,2025-05-03,84
STUDY001,LB,STUDY001-SUBJ0001,70,L00070,ALT,Alanine Aminotransferase,CHEMISTRY,33.48,U/L,7.0,56.0,33.48,33.48,U/L,7.0,56.0,NORMAL,,WEEK 12,7,2025-05-03,84
STUDY001,LB,STUDY001-SUBJ0001,71,L00071,HGB,Hemoglobin,HEMATOLOGY,13.91,g/dL,13.5,17.5,13.91,13.91,g/dL,13.5,17.5,NORMAL,,WEEK 16,8,2025-05-31,112
STUDY001,LB,STUDY001-SUBJ0001,72,L00072,HCT,Hematocrit,HEMATOLOGY,46.99,%,41.0,51.0,46.99,46.99,%,41.0,51.0,NORMAL,,WEEK 16,8,2025-05-31,112
STUDY001,LB,STUDY001-SUBJ0001,73,L00073,WBC,White Blood Cell Count,HEMATOLOGY,5.51,10^9/L,4.5,11.0,5.51,5.51,10^9/L,4.5,11.0,NORMAL,,WEEK 16,8,2025-05-31,112
STUDY001,LB,STUDY001-SUBJ0001,74,L00074,PLT,Platelet Count,HEMATOLOGY,270.06,10^9/L,150.0,450.0,270.06,270.06,10^9/L,150.0,450.0,NORMAL,,WEEK 16,8,2025-05-31,112
STUDY001,LB,STUDY001-SUBJ0001,75,L00075,GLUC,Glucose,CHEMISTRY,94.36,mg/dL,70.0,100.0,94.36,94.36,mg/dL,70.0,100.0,NORMAL,,WEEK 16,8,2025-05-31,112
STUDY001,LB,STUDY001-SUBJ0001,76,L00076,BUN,Blood Urea Nitrogen,CHEMISTRY,13.15,mg/dL,7.0,20.0,13.15,13.15,mg/dL,7.0,20.0,NORMAL,,WEEK 16,8,2025-05-31,112
STUDY001,LB,STUDY001-SUBJ0001,77,L00077,CREAT,Creatinine,CHEMISTRY,1.11,mg/dL,0.6,1.2,1.11,1.11,mg/dL,0.6,1.2,NORMAL,,WEEK 16,8,2025-05-31,112
STUDY001,LB,STUDY001-SUBJ0001,78,L00078,BILI,Total Bilirubin,CHEMISTRY,0.58,mg/dL,0.1,1.2,0.58,0.58,mg/dL,0.1,1.2,NORMAL,,WEEK 16,8,2025-05-31,112
STUDY001,LB,STUDY001-SUBJ0001,79,L00079,ALP,Alkaline Phosphatase,CHEMISTRY,85.26,U/L,44.0,147.0,85.26,85.26,U/L,44.0,147.0,NORMAL,,WEEK 16,8,2025-05-31,112
STUDY001,LB,STUDY001-SUBJ0001,80,L00080,ALT,Alanine Aminotransferase,CHEMISTRY,33.69,U/L,7.0,56.0,33.69,33.69,U/L,7.0,56.0,NORMAL,,WEEK 16,8,2025-05-31,112
STUDY001,LB,STUDY001-SUBJ0001,81,L00081,HGB,Hemoglobin,HEMATOLOGY,13.77,g/dL,13.5,17.5,13.77,13.77,g/dL,13.5,17.5,NORMAL,,END OF TREATMENT,9,2025-06-28,140
STUDY001,LB,STUDY001-SUBJ0001,82,L00082,HCT,Hematocrit,HEMATOLOGY,46.9,%,41.0,51.0,46.9,46.9,%,41.0,51.0,NORMAL,,END OF TREATMENT,9,2025-06-28,140
STUDY001,LB,STUDY001-SUBJ0001,83,L00083,WBC,White Blood Cell Count,HEMATOLOGY,5.77,10^9/L,4.5,11.0,5.77,5.77,10^9/L,4.5,11.0,NORMAL,,END OF TREATMENT,9,2025-06-28,140
STUDY001,LB,STUDY001-SUBJ0001,84,L00084,PLT,Platelet Count,HEMATOLOGY,272.61,10^9/L,150.0,450.0,272.61,272.61,10^9/L,150.0,450.0,NORMAL,,END OF TREATMENT,9,2025-06-28,140
STUDY001,LB,STUDY001-SUBJ0001,85,L00085,GLUC,Glucose,CHEMISTRY,92.83,mg/dL,70.0,100.0,92.83,92.83,mg/dL,70.0,100.0,NORMAL,,END OF TREATMENT,9,2025-06-28,140
STUDY001,LB,STUDY001-SUBJ0001,86,L00086,BUN,Blood Urea Nitrogen,CHEMISTRY,13.82,mg/dL,7.0,20.0,13.82,13.82,mg/dL,7.0,20.0,NORMAL,,END OF TREATMENT,9,2025-06-28,140
STUDY001,LB,STUDY001-SUBJ0001,87,L00087,CREAT,Creatinine,CHEMISTRY,1.1,mg/dL,0.6,1.2,1.1,1.1,mg/dL,0.6,1.2,NORMAL,,END OF TREATMENT,9,2025-06-28,140
STUDY001,LB,STUDY001-SUBJ0001,88,L00088,BILI,Total Bilirubin,CHEMISTRY,0.62,mg/dL,0.1,1.2,0.62,0.62,mg/dL,0.1,1.2,NORMAL,,END OF TREATMENT,9,2025-06-28,140
STUDY001,LB,STUDY001-SUBJ0001,89,L00089,ALP,Alkaline Phosphatase,CHEMISTRY,82.56,U/L,44.0,147.0,82.56,82.56,U/L,44.0,147.0,NORMAL,,END OF TREATMENT,9,2025-06-28,140
STUDY001,LB,STUDY001-SUBJ0001,90,L00090,ALT,Alanine Aminotransferase,CHEMISTRY,34.67,U/L,7.0,56.0,34.67,34.67,U/L,7.0,56.0,NORMAL,,END OF TREATMENT,9,2025-06-28,140
STUDY001,LB,STUDY001-SUBJ0002,1,L00001,HGB,Hemoglobin,HEMATOLOGY,15.59,g/dL,13.5,17.5,15.59,15.59,g/dL,13.5,17.5,NORMAL,,SCREENING,1,2024-10-01,-14
STUDY001,LB,STUDY001-SUBJ0002,2,L00002,HCT,Hematocrit,HEMATOLOGY,47.7,%,41.0,51.0,47.7,47.7,%,41.0,51.0,NORMAL,,SCREENING,1,2024-10-01,-14
STUDY001,LB,STUDY001-SUBJ0002,3,L00003,WBC,White Blood Cell Count,HEMATOLOGY,6.12,10^9/L,4.5,11.0,6.12,6.12,10^9/L,4.5,11.0,NORMAL,,SCREENING,1,2024-10-01,-14
STUDY001,LB,STUDY001-SUBJ0002,4,L00004,PLT,Platelet Count,HEMATOLOGY,277.8,10^9/L,150.0,450.0,277.8,277.8,10^9/L,150.0,450.0,NORMAL,,SCREENING,1,2024-10-01,-14
STUDY001,LB,STUDY001-SUBJ0002,5,L00005,GLUC,Glucose,CHEMISTRY,99.19,mg/dL,70.0,100.0,99.19,99.19,mg/dL,70.0,100.0,NORMAL,,SCREENING,1,2024-10-01,-14
STUDY001,LB,STUDY001-SUBJ0002,6,L00006,BUN,Blood Urea Nitrogen,CHEMISTRY,16.28,mg/dL,7.0,20.0,16.28,16.28,mg/dL,7.0,20.0,NORMAL,,SCREENING,1,2024-10-01,-14
STUDY001,LB,STUDY001-SUBJ0002,7,L00007,CREAT,Creatinine,CHEMISTRY,0.81,mg/dL,0.6,1.2,0.81,0.81,mg/dL,0.6,1.2,NORMAL,,SCREENING,1,2024-10-01,-14
STUDY001,LB,STUDY001-SUBJ0002,8,L00008,BILI,Total Bilirubin,CHEMISTRY,0.59,mg/dL,0.1,1.2,0.59,0.59,mg/dL,0.1,1.2,NORMAL,,SCREENING,1,2024-10-01,-14
STUDY001,LB,STUDY001-SUBJ0002,9,L00009,ALP,Alkaline Phosphatase,CHEMISTRY,130.99,U/L,44.0,147.0,130.99,130.99,U/L,44.0,147.0,NORMAL,,SCREENING,1,2024-10-01,-14
STUDY001,LB,STUDY001-SUBJ0002,10,L00010,ALT,Alanine Aminotransferase,CHEMISTRY,28.37,U/L,7.0,56.0,28.37,28.37,U/L,7.0,56.0,NORMAL,,SCREENING,1,2024-10-01,-14
STUDY001,LB,STUDY001-SUBJ0002,11,L00011,HGB,Hemoglobin,HEMATOLOGY,15.71,g/dL,13.5,17.5,15.71,15.71,g/dL,13.5,17.5,NORMAL,Y,BASELINE,2,2024-10-15,1
STUDY001,LB,STUDY001-SUBJ0002,12,L00012,HCT,Hematocrit,HEMATOLOGY,47.27,%,41.0,51.0,47.27,47.27,%,41.0,51.0,NORMAL,Y,BASELINE,2,2024-10-15,1
STUDY001,LB,STUDY001-SUBJ0002,13,L00013,WBC,White Blood Cell Count,HEMATOLOGY,6.25,10^9/L,4.5,11.0,6.25,6.25,10^9/L,4.5,11.0,NORMAL,Y,BASELINE,2,2024-10-15,1
STUDY001,LB,STUDY001-SUBJ0002,14,L00014,PLT,Platelet Count,HEMATOLOGY,265.93,10^9/L,150.0,450.0,265.93,265.93,10^9/L,150.0,450.0,NORMAL,Y,BASELINE,2,2024-10-15,1
STUDY001,LB,STUDY001-SUBJ0002,15,L00015,GLUC,Glucose,CHEMISTRY,98.11,mg/dL,70.0,100.0,98.11,98.11,mg/dL,70.0,100.0,NORMAL,Y,BASELINE,2,2024-10-15,1
STUDY001,LB,STUDY001-SUBJ0002,16,L00016,BUN,Blood Urea Nitrogen,CHEMISTRY,17.23,mg/dL,7.0,20.0,17.23,17.23,mg/dL,7.0,20.0,NORMAL,Y,BASELINE,2,2024-10-15,1
STUDY001,LB,STUDY001-SUBJ0002,17,L00017,CREAT,Creatinine,CHEMISTRY,0.82,mg/dL,0.6,1.2,0.82,0.82,mg/dL,0.6,1.2,NORMAL,Y,BASELINE,2,2024-10-15,1
STUDY001,LB,STUDY001-SUBJ0002,18,L00018,BILI,Total Bilirubin,CHEMISTRY,0.59,mg/dL,0.1,1.2,0.59,0.59,mg/dL,0.1,1.2,NORMAL,Y,BASELINE,2,2024-10-15,1
STUDY001,LB,STUDY001-SUBJ0002,19,L00019,ALP,Alkaline Phosphatase,CHEMISTRY,133.7,U/L,44.0,147.0,133.7,133.7,U/L,44.0,147.0,NORMAL,Y,BASELINE,2,2024-10-15,1
STUDY001,LB,STUDY001-SUBJ0002,20,L00020,ALT,Alanine Aminotransferase,CHEMISTRY,25.81,U/L,7.0,56.0,25.81,25.81,U/L,7.0,56.0,NORMAL,Y,BASELINE,2,2024-10-15,1
STUDY001,LB,STUDY001-SUBJ0002,21,L00021,HGB,Hemoglobin,HEMATOLOGY,15.81,g/dL,13.5,17.5,15.81,15.81,g/dL,13.5,17.5,NORMAL,,WEEK 1,3,2024-10-21,7
STUDY001,LB,STUDY001-SUBJ0002,22,L00022,HCT,Hematocrit,HEMATOLOGY,47.39,%,41.0,51.0,47.39,47.39,%,41.0,51.0,NORMAL,,WEEK 1,3,2024-10-21,7
STUDY001,LB,STUDY001-SUBJ0002,23,L00023,WBC,White Blood Cell Count,HEMATOLOGY,6.52,10^9/L,4.5,11.0,6.52,6.52,10^9/L,4.5,11.0,NORMAL,,WEEK 1,3,2024-10-21,7
STUDY001,LB,STUDY001-SUBJ0002,24,L00024,PLT,Platelet Count,HEMATOLOGY,255.28,10^9/L,150.0,450.0,255.28,255.28,10^9/L,150.0,450.0,NORMAL,,WEEK 1,3,2024-10-21,7
STUDY001,LB,STUDY001-SUBJ0002,25,L00025,GLUC,Glucose,CHEMISTRY,99.03,mg/dL,70.0,100.0,99.03,99.03,mg/dL,70.0,100.0,NORMAL,,WEEK 1,3,2024-10-21,7
STUDY001,LB,STUDY001-SUBJ0002,26,L00026,BUN,Blood Urea Nitrogen,CHEMISTRY,16.67,mg/dL,7.0,20.0,16.67,16.67,mg/dL,7.0,20.0,NORMAL,,WEEK 1,3,2024-10-21,7
STUDY001,LB,STUDY001-SUBJ0002,27,L00027,CREAT,Creatinine,CHEMISTRY,0.8,mg/dL,0.6,1.2,0.8,0.8,mg/dL,0.6,1.2,NORMAL,,WEEK 1,3,2024-10-21,7
STUDY001,LB,STUDY001-SUBJ0002,28,L00028,BILI,Total Bilirubin,CHEMISTRY,0.55,mg/dL,0.1,1.2,0.55,0.55,mg/dL,0.1,1.2,NORMAL,,WEEK 1,3,2024-10-21,7
STUDY001,LB,STUDY001-SUBJ0002,29,L00029,ALP,Alkaline Phosphatase,CHEMISTRY,130.94,U/L,44.0,147.0,130.94,130.94,U/L,44.0,147.0,NORMAL,,WEEK 1,3,2024-10-21,7
STUDY001,LB,STUDY001-SUBJ0002,30,L00030,ALT,Alanine Aminotransferase,CHEMISTRY,28.84,U/L,7.0,56.0,28.84,28.84,U/L,7.0,56.0,NORMAL,,WEEK 1,3,2024-10-21,7
STUDY001,LB,STUDY001-SUBJ0002,31,L00031,HGB,Hemoglobin,HEMATOLOGY,15.86,g/dL,13.5,17.5,15.86,15.86,g/dL,13.5,17.5,NORMAL,,WEEK 2,4,2024-10-28,14
STUDY001,LB,STUDY001-SUBJ0002,32,L00032,HCT,Hematocrit,HEMATOLOGY,47.59,%,41.0,51.0,47.59,47.59,%,41.0,51.0,NORMAL,,WEEK 2,4,2024-10-28,14
STUDY001,LB,STUDY001-SUBJ0002,33,L00033,WBC,White Blood Cell Count,HEMATOLOGY,6.15,10^9/L,4.5,11.0,6.15,6.15,10^9/L,4.5,11.0,NORMAL,,WEEK 2,4,2024-10-28,14
STUDY001,LB,STUDY001-SUBJ0002,34,L00034,PLT,Platelet Count,HEMATOLOGY,259.96,10^9/L,150.0,450.0,259.96,259.96,10^9/L,150.0,450.0,NORMAL,,WEEK 2,4,2024-10-28,14
STUDY001,LB,STUDY001-SUBJ0002,35,L00035,GLUC,Glucose,CHEMISTRY,99.1,mg/dL,70.0,100.0,99.1,99.1,mg/dL,70.0,100.0,NORMAL,,WEEK 2,4,2024-10-28,14
STUDY001,LB,STUDY001-SUBJ0002,36,L00036,BUN,Blood Urea Nitrogen,CHEMISTRY,16.91,mg/dL,7.0,20.0,16.91,16.91,mg/dL,7.0,20.0,NORMAL,,WEEK 2,4,2024-10-28,14
STUDY001,LB,STUDY001-SUBJ0002,37,L00037,CREAT,Creatinine,CHEMISTRY,0.78,mg/dL,0.6,1.2,0.78,0.78,mg/dL,0.6,1.2,NORMAL,,WEEK 2,4,2024-10-28,14
STUDY001,LB,STUDY001-SUBJ0002,38,L00038,BILI,Total Bilirubin,CHEMISTRY,0.58,mg/dL,0.1,1.2,0.58,0.58,mg/dL,0.1,1.2,NORMAL,,WEEK 2,4,2024-10-28,14
STUDY001,LB,STUDY001-SUBJ0002,39,L00039,ALP,Alkaline Phosphatase,CHEMISTRY,131.31,U/L,44.0,147.0,131.31,131.31,U/L,44.0,147.0,NORMAL,,WEEK 2,4,2024-10-28,14
STUDY001,LB,STUDY001-SUBJ0002,40,L00040,ALT,Alanine Aminotransferase,CHEMISTRY,25.89,U/L,7.0,56.0,25.89,25.89,U/L,7.0,56.0,NORMAL,,WEEK 2,4,2024-10-28,14
STUDY001,LB,STUDY001-SUBJ0002,41,L00041,HGB,Hemoglobin,HEMATOLOGY,15.86,g/dL,13.5,17.5,15.86,15.86,g/dL,13.5,17.5,NORMAL,,WEEK 4,5,2024-11-11,28
STUDY001,LB,STUDY001-SUBJ0002,42,L00042,HCT,Hematocrit,HEMATOLOGY,47.69,%,41.0,51.0,47.69,47.69,%,41.0,51.0,NORMAL,,WEEK 4,5,2024-11-11,28
STUDY001,LB,STUDY001-SUBJ0002,43,L00043,WBC,White Blood Cell Count,HEMATOLOGY,6.24,10^9/L,4.5,11.0,6.24,6.24,10^9/L,4.5,11.0,NORMAL,,WEEK 4,5,2024-11-11,28
STUDY001,LB,STUDY001-SUBJ0002,44,L00044,PLT,Platelet Count,HEMATOLOGY,259.99,10^9/L,150.0,450.0,259.99,259.99,10^9/L,150.0,450.0,NORMAL,,WEEK 4,5,2024-11-11,28
STUDY001,LB,STUDY001-SUBJ0002,45,L00045,GLUC,Glucose,CHEMISTRY,97.06,mg/dL,70.0,100.0,97.06,97.06,mg/dL,70.0,100.0,NORMAL,,WEEK 4,5,2024-11-11,28
STUDY001,LB,STUDY001-SUBJ0002,46,L00046,BUN,Blood Urea Nitrogen,CHEMISTRY,16.45,mg/dL,7.0,20.0,16.45,16.45,mg/dL,7.0,20.0,NORMAL,,WEEK 4,5,2024-11-11,28
STUDY001,LB,STUDY001-SUBJ0002,47,L00047,CREAT,Creatinine,CHEMISTRY,0.81,mg/dL,0.6,1.2,0.81,0.81,mg/dL,0.6,1.2,NORMAL,,WEEK 4,5,2024-11-11,28
STUDY001,LB,STUDY001-SUBJ0002,48,L00048,BILI,Total Bilirubin,CHEMISTRY,0.56,mg/dL,0.1,1.2,0.56,0.56,mg/dL,0.1,1.2,NORMAL,,WEEK 4,5,2024-11-11,28
STUDY001,LB,STUDY001-SUBJ0002,49,L00049,ALP,Alkaline Phosphatase,CHEMISTRY,127.23,U/L,44.0,147.0,127.23,127.23,U/L,44.0,147.0,NORMAL,,WEEK 4,5,2024-11-11,28
STUDY001,LB,STUDY001-SUBJ0002,50,L00050,ALT,Alanine Aminotransferase,CHEMISTRY,26.59,U/L,7.0,56.0,26.59,26.59,U/L,7.0,56.0,NORMAL,,WEEK 4,5,2024-11-11,28
STUDY001,LB,STUDY001-SUBJ0002,51,L00051,HGB,Hemoglobin,HEMATOLOGY,15.75,g/dL,13.5,17.5,15.75,15.75,g/dL,13.5,17.5,NORMAL,,WEEK 8,6,2024-12-09,56
STUDY001,LB,STUDY001-SUBJ0002,52,L00052,HCT,Hematocrit,HEMATOLOGY,47.81,%,41.0,51.0,47.81,47.81,%,41.0,51.0,NORMAL,,WEEK 8,6,2024-12-09,56
STUDY001,LB,STUDY001-SUBJ0002,53,L00053,WBC,White Blood Cell Count,HEMATOLOGY,6.34,10^9/L,4.5,11.0,6.34,6.34,10^9/L,4.5,11.0,NORMAL,,WEEK 8,6,2024-12-09,56
STUDY001,LB,STUDY001-SUBJ0002,54,L00054,PLT,Platelet Count,HEMATOLOGY,256.24,10^9/L,150.0,450.0,256.24,256.24,10^9/L,150.0,450.0,NORMAL,,WEEK 8,6,2024-12-09,56
STUDY001,LB,STUDY001-SUBJ0002,55,L00055,GLUC,Glucose,CHEMISTRY,98.14,mg/dL,70.0,100.0,98.14,98.14,mg/dL,70.0,100.0,NORMAL,,WEEK 8,6,2024-12-09,56
STUDY001,LB,STUDY001-SUBJ0002,56,L00056,BUN,Blood Urea Nitrogen,CHEMISTRY,16.77,mg/dL,7.0,20.0,16.77,16.77,mg/dL,7.0,20.0,NORMAL,,WEEK 8,6,2024-12-09,56
STUDY001,LB,STUDY001-SUBJ0002,57,L00057,CREAT,Creatinine,CHEMISTRY,0.81,mg/dL,0.6,1.2,0.81,0.81,mg/dL,0.6,1.2,NORMAL,,WEEK 8,6,2024-12-09,56
STUDY001,LB,STUDY001-SUBJ0002,58,L00058,BILI,Total Bilirubin,CHEMISTRY,0.58,mg/dL,0.1,1.2,0.58,0.58,mg/dL,0.1,1.2,NORMAL,,WEEK 8,6,2024-12-09,56
STUDY001,LB,STUDY001-SUBJ0002,59,L00059,ALP,Alkaline Phosphatase,CHEMISTRY,134.51,U/L,44.0,147.0,134.51,134.51,U/L,44.0,147.0,NORMAL,,WEEK 8,6,2024-12-09,56
STUDY001,LB,STUDY001-SUBJ0002,60,L00060,ALT,Alanine Aminotransferase,CHEMISTRY,27.23,U/L,7.0,56.0,27.23,27.23,U/L,7.0,56.0,NORMAL,,WEEK 8,6,2024-12-09,56
STUDY001,LB,STUDY001-SUBJ0002,61,L00061,HGB,Hemoglobin,HEMATOLOGY,15.9,g/dL,13.5,17.5,15.9,15.9,g/dL,13.5,17.5,NORMAL,,WEEK 12,7,2025-01-06,84
STUDY001,LB,STUDY001-SUBJ0002,62,L00062,HCT,Hematocrit,HEMATOLOGY,47.6,%,41.0,51.0,47.6,47.6,%,41.0,51.0,NORMAL,,WEEK 12,7,2025-01-06,84
STUDY001,LB,STUDY001-SUBJ0002,63,L00063,WBC,White Blood Cell Count,HEMATOLOGY,5.95,10^9/L,4.5,11.0,5.95,5.95,10^9/L,4.5,11.0,NORMAL,,WEEK 12,7,2025-01-06,84
STUDY001,LB,STUDY001-SUBJ0002,64,L00064,PLT,Platelet Count,HEMATOLOGY,256.56,10^9/L,150.0,450.0,256.56,256.56,10^9/L,150.0,450.0,NORMAL,,WEEK 12,7,2025-01-06,84
STUDY001,LB,STUDY001-SUBJ0002,65,L00065,GLUC,Glucose,CHEMISTRY,100.83,mg/dL,70.0,100.0,100.83,100.83,mg/dL,70.0,100.0,HIGH,,WEEK 12,7,2025-01-06,84
STUDY001,LB,STUDY001-SUBJ0002,66,L00066,BUN,Blood Urea Nitrogen,CHEMISTRY,16.4,mg/dL,7.0,20.0,16.4,16.4,mg/dL,7.0,20.0,NORMAL,,WEEK 12,7,2025-01-06,84
STUDY001,LB,STUDY001-SUBJ0002,67,L00067,CREAT,Creatinine,CHEMISTRY,0.79,mg/dL,0.6,1.2,0.79,0.79,mg/dL,0.6,1.2,NORMAL,,WEEK 12,7,2025-01-06,84
STUDY001,LB,STUDY001-SUBJ0002,68,L00068,BILI,Total Bilirubin,CHEMISTRY,0.61,mg/dL,0.1,1.2,0.61,0.61,mg/dL,0.1,1.2,NORMAL,,WEEK 12,7,2025-01-06,84
STUDY001,LB,STUDY001-SUBJ0002,69,L00069,ALP,Alkaline Phosphatase,CHEMISTRY,132.02,U/L,44.0,147.0,132.02,132.02,U/L,44.0,147.0,NORMAL,,WEEK 12,7,2025-01-06,84
STUDY001,LB,STUDY001-SUBJ0002,70,L00070,ALT,Alanine Aminotransferase,CHEMISTRY,28.21,U/L,7.0,56.0,28.21,28.21,U/L,7.0,56.0,NORMAL,,WEEK 12,7,2025-01-06,84
STUDY001,LB,STUDY001-SUBJ0002,71,L00071,HGB,Hemoglobin,HEMATOLOGY,15.78,g/dL,13.5,17.5,15.78,15.78,g/dL,13.5,17.5,NORMAL,,WEEK 16,8,2025-02-03,112
STUDY001,LB,STUDY001-SUBJ0002,72,L00072,HCT,Hematocrit,HEMATOLOGY,47.77,%,41.0,51.0,47.77,47.77,%,41.0,51.0,NORMAL,,WEEK 16,8,2025-02-03,112
STUDY001,LB,STUDY001-SUBJ0002,73,L00073,WBC,White Blood Cell Count,HEMATOLOGY,6.25,10^9/L,4.5,11.0,6.25,6.25,10^9/L,4.5,11.0,NORMAL,,WEEK 16,8,2025-02-03,112
STUDY001,LB,STUDY001-SUBJ0002,74,L00074,PLT,Platelet Count,HEMATOLOGY,268.29,10^9/L,150.0,450.0,268.29,268.29,10^9/L,150.0,450.0,NORMAL,,WEEK 16,8,2025-02-03,112
STUDY001,LB,STUDY001-SUBJ0002,75,L00075,GLUC,Glucose,CHEMISTRY,98.21,mg/dL,70.0,100.0,98.21,98.21,mg/dL,70.0,100.0,NORMAL,,WEEK 16,8,2025-02-03,112
STUDY001,LB,STUDY001-SUBJ0002,76,L00076,BUN,Blood Urea Nitrogen,CHEMISTRY,16.72,mg/dL,7.0,20.0,16.72,16.72,mg/dL,7.0,20.0,NORMAL,,WEEK 16,8,2025-02-03,112
STUDY001,LB,STUDY001-SUBJ0002,77,L00077,CREAT,Creatinine,CHEMISTRY,0.83,mg/dL,0.6,1.2,0.83,0.83,mg/dL,0.6,1.2,NORMAL,,WEEK 16,8,2025-02-03,112
STUDY001,LB,STUDY001-SUBJ0002,78,L00078,BILI,Total Bilirubin,CHEMISTRY,0.58,mg/dL,0.1,1.2,0.58,0.58,mg/dL,0.1,1.2,NORMAL,,WEEK 16,8,2025-02-03,112
STUDY001,LB,STUDY001-SUBJ0002,79,L00079,ALP,Alkaline Phosphatase,CHEMISTRY,134.4,U/L,44.0,147.0,134.4,134.4,U/L,44.0,147.0,NORMAL,,WEEK 16,8,2025-02-03,112
STUDY001,LB,STUDY001-SUBJ0002,80,L00080,ALT,Alanine Aminotransferase,CHEMISTRY,25.89,U/L,7.0,56.0,25.89,25.89,U/L,7.0,56.0,NORMAL,,WEEK 16,8,2025-02-03,112
STUDY001,LB,STUDY001-SUBJ0002,81,L00081,HGB,Hemoglobin,HEMATOLOGY,15.77,g/dL,13.5,17.5,15.77,15.77,g/dL,13.5,17.5,NORMAL,,END OF TREATMENT,9,2025-03-03,140
STUDY001,LB,STUDY001-SUBJ0002,82,L00082,HCT,Hematocrit,HEMATOLOGY,47.78,%,41.0,51.0,47.78,47.78,%,41.0,51.0,NORMAL,,END OF TREATMENT,9,2025-03-03,140
STUDY001,LB,STUDY001-SUBJ0002,83,L00083,WBC,White Blood Cell Count,HEMATOLOGY,6.3,10^9/L,4.5,11.0,6.3,6.3,10^9/L,4.5,11.0,NORMAL,,END OF TREATMENT,9,2025-03-03,140
STUDY001,LB,STUDY001-SUBJ0002,84,L00084,PLT,Platelet Count,HEMATOLOGY,262.71,10^9/L,150.0,450.0,262.71,262.71,10^9/L,150.0,450.0,NORMAL,,END OF TREATMENT,9,2025-03-03,140
STUDY001,LB,STUDY001-SUBJ0002,85,L00085,GLUC,Glucose,CHEMISTRY,99.98,mg/dL,70.0,100.0,99.98,99.98,mg/dL,70.0,100.0,NORMAL,,END OF TREATMENT,9,2025-03-03,140
STUDY001,LB,STUDY001-SUBJ0002,86,L00086,BUN,Blood Urea Nitrogen,CHEMISTRY,16.71,mg/dL,7.0,20.0,16.71,16.71,mg/dL,7.0,20.0,NORMAL,,END OF TREATMENT,9,2025-03-03,140
STUDY001,LB,STUDY001-SUBJ0002,87,L00087,CREAT,Creatinine,CHEMISTRY,0.84,mg/dL,0.6,1.2,0.84,0.84,mg/dL,0.6,1.2,NORMAL,,END OF TREATMENT,9,2025-03-03,140
STUDY001,LB,STUDY001-SUBJ0002,88,L00088,BILI,Total Bilirubin,CHEMISTRY,0.57,mg/dL,0.1,1.2,0.57,0.57,mg/dL,0.1,1.2,NORMAL,,END OF TREATMENT,9,2025-03-03,140
STUDY001,LB,STUDY001-SUBJ0002,89,L00089,ALP,Alkaline Phosphatase,CHEMISTRY,133.76,U/L,44.0,147.0,133.76,133.76,U/L,44.0,147.0,NORMAL,,END OF TREATMENT,9,2025-03-03,140
STUDY001,LB,STUDY001-SUBJ0002,90,L00090,ALT,Alanine Aminotransferase,CHEMISTRY,26.38,U/L,7.0,56.0,26.38,26.38,U/L,7.0,56.0,NORMAL,,END OF TREATMENT,9,2025-03-03,140
STUDY001,LB,STUDY001-SUBJ0003,1,L00001,HGB,Hemoglobin,HEMATOLOGY,14.97,g/dL,13.5,17.5,14.97,14.97,g/dL,13.5,17.5,NORMAL,,SCREENING,1,2024-09-08,-14
STUDY001,LB,STUDY001-SUBJ0003,2,L00002,HCT,Hematocrit,HEMATOLOGY,48.07,%,41.0,51.0,48.07,48.07,%,41.0,51.0,NORMAL,,SCREENING,1,2024-09-08,-14
STUDY001,LB,STUDY001-SUBJ0003,3,L00003,WBC,White Blood Cell Count,HEMATOLOGY,6.37,10^9/L,4.5,11.0,6.37,6.37,10^9/L,4.5,11.0,NORMAL,,SCREENING,1,2024-09-08,-14
STUDY001,LB,STUDY001-SUBJ0003,4,L00004,PLT,Platelet Count,HEMATOLOGY,280.5,10^9/L,150.0,450.0,280.5,280.5,10^9/L,150.0,450.0,NORMAL,,SCREENING,1,2024-09-08,-14
STUDY001,LB,STUDY001-SUBJ0003,5,L00005,GLUC,Glucose,CHEMISTRY,95.0,mg/dL,70.0,100.0,95.0,95.0,mg/dL,70.0,100.0,NORMAL,,SCREENING,1,2024-09-08,-14
STUDY001,LB,STUDY001-SUBJ0003,6,L00006,BUN,Blood Urea Nitrogen,CHEMISTRY,16.39,mg/dL,7.0,20.0,16.39,16.39,mg/dL,7.0,20.0,NORMAL,,SCREENING,1,2024-09-08,-14
STUDY001,LB,STUDY001-SUBJ0003,7,L00007,CREAT,Creatinine,CHEMISTRY,0.91,mg/dL,0.6,1.2,0.91,0.91,mg/dL,0.6,1.2,NORMAL,,SCREENING,1,2024-09-08,-14
STUDY001,LB,STUDY001-SUBJ0003,8,L00008,BILI,Total Bilirubin,CHEMISTRY,0.51,mg/dL,0.1,1.2,0.51,0.51,mg/dL,0.1,1.2,NORMAL,,SCREENING,1,2024-09-08,-14
STUDY001,LB,STUDY001-SUBJ0003,9,L00009,ALP,Alkaline Phosphatase,CHEMISTRY,81.71,U/L,44.0,147.0,81.71,81.71,U/L,44.0,147.0,NORMAL,,SCREENING,1,2024-09-08,-14
STUDY001,LB,STUDY001-SUBJ0003,10,L00010,ALT,Alanine Aminotransferase,CHEMISTRY,50.45,U/L,7.0,56.0,50.45,50.45,U/L,7.0,56.0,NORMAL,,SCREENING,1,2024-09-08,-14
STUDY001,LB,STUDY001-SUBJ0003,11,L00011,HGB,Hemoglobin,HEMATOLOGY,15.07,g/dL,13.5,17.5,15.07,15.07,g/dL,13.5,17.5,NORMAL,Y,BASELINE,2,2024-09-22,1
STUDY001,LB,STUDY001-SUBJ0003,12,L00012,HCT,Hematocrit,HEMATOLOGY,48.11,%,41.0,51.0,48.11,48.11,%,41.0,51.0,NORMAL,Y,BASELINE,2,2024-09-22,1
STUDY001,LB,STUDY001-SUBJ0003,13,L00013,WBC,White Blood Cell Count,HEMATOLOGY,6.33,10^9/L,4.5,11.0,6.33,6.33,10^9/L,4.5,11.0,NORMAL,Y,BASELINE,2,2024-09-22,1
STUDY001,LB,STUDY001-SUBJ0003,14,L00014,PLT,Platelet Count,HEMATOLOGY,279.64,10^9/L,150.0,450.0,279.64,279.64,10^9/L,150.0,450.0,NORMAL,Y,BASELINE,2,2024-09-22,1
STUDY001,LB,STUDY001-SUBJ0003,15,L00015,GLUC,Glucose,CHEMISTRY,94.62,mg/dL,70.0,100.0,94.62,94.62,mg/dL,70.0,100.0,NORMAL,Y,BASELINE,2,2024-09-22,1
STUDY001,LB,STUDY001-SUBJ0003,16,L00016,BUN,Blood Urea Nitrogen,CHEMISTRY,16.14,mg/dL,7.0,20.0,16.14,16.14,mg/dL,7.0,20.0,NORMAL,Y,BASELINE,2,2024-09-22,1
STUDY001,LB,STUDY001-SUBJ0003,17,L00017,CREAT,Creatinine,CHEMISTRY,0.94,mg/dL,0.6,1.2,0.94,0.94,mg/dL,0.6,1.2,NORMAL,Y,BASELINE,2,2024-09-22,1
STUDY001,LB,STUDY001-SUBJ0003,18,L00018,BILI,Total Bilirubin,CHEMISTRY,0.55,mg/dL,0.1,1.2,0.55,0.55,mg/dL,0.1,1.2,NORMAL,Y,BASELINE,2,2024-09-22,1
STUDY001,LB,STUDY001-SUBJ0003,19,L00019,ALP,Alkaline Phosphatase,CHEMISTRY,78.42,U/L,44.0,147.0,78.42,78.42,U/L,44.0,147.0,NORMAL,Y,BASELINE,2,2024-09-22,1
STUDY001,LB,STUDY001-SUBJ0003,20,L00020,ALT,Alanine Aminotransferase,CHEMISTRY,50.23,U/L,7.0,56.0,50.23,50.23,U/L,7.0,56.0,NORMAL,Y,BASELINE,2,2024-09-22,1
STUDY001,LB,STUDY001-SUBJ0003,21,L00021,HGB,Hemoglobin,HEMATOLOGY,15.43,g/dL,13.5,17.5,15.43,15.43,g/dL,13.5,17.5,NORMAL,,WEEK 1,3,2024-09-28,7
STUDY001,LB,STUDY001-SUBJ0003,22,L00022,HCT,Hematocrit,HEMATOLOGY,48.14,%,41.0,51.0,48.14,48.14,%,41.0,51.0,NORMAL,,WEEK 1,3,2024-09-28,7
STUDY001,LB,STUDY001-SUBJ0003,23,L00023,WBC,White Blood Cell Count,HEMATOLOGY,6.65,10^9/L,4.5,11.0,6.65,6.65,10^9/L,4.5,11.0,NORMAL,,WEEK 1,3,2024-09-28,7
STUDY001,LB,STUDY001-SUBJ0003,24,L00024,PLT,Platelet Count,HEMATOLOGY,279.17,10^9/L,150.0,450.0,279.17,279.17,10^9/L,150.0,450.0,NORMAL,,WEEK 1,3,2024-09-28,7
STUDY001,LB,STUDY001-SUBJ0003,25,L00025,GLUC,Glucose,CHEMISTRY,97.85,mg/dL,70.0,100.0,97.85,97.85,mg/dL,70.0,100.0,NORMAL,,WEEK 1,3,2024-09-28,7
STUDY001,LB,STUDY001-SUBJ0003,26,L00026,BUN,Blood Urea Nitrogen,CHEMISTRY,16.56,mg/dL,7.0,20.0,16.56,16.56,mg/dL,7.0,20.0,NORMAL,,WEEK 1,3,2024-09-28,7
STUDY001,LB,STUDY001-SUBJ0003,27,L00027,CREAT,Creatinine,CHEMISTRY,0.9,mg/dL,0.6,1.2,0.9,0.9,mg/dL,0.6,1.2,NORMAL,,WEEK 1,3,2024-09-28,7
STUDY001,LB,STUDY001-SUBJ0003,28,L00028,BILI,Total Bilirubin,CHEMISTRY,0.56,mg/dL,0.1,1.2,0.56,0.56,mg/dL,0.1,1.2,NORMAL,,WEEK 1,3,2024-09-28,7
STUDY001,LB,STUDY001-SUBJ0003,29,L00029,ALP,Alkaline Phosphatase,CHEMISTRY,81.44,U/L,44.0,147.0,81.44,81.44,U/L,44.0,147.0,NORMAL,,WEEK 1,3,2024-09-28,7
STUDY001,LB,STUDY001-SUBJ0003,30,L00030,ALT,Alanine Aminotransferase,CHEMISTRY,51.38,U/L,7.0,56.0,51.38,51.38,U/L,7.0,56.0,NORMAL,,WEEK 1,3,2024-09-28,7
STUDY001,LB,STUDY001-SUBJ0003,31,L00031,HGB,Hemoglobin,HEMATOLOGY,15.01,g/dL,13.5,17.5,15.01,15.01,g/dL,13.5,17.5,NORMAL,,WEEK 2,4,2024-10-05,14
STUDY001,LB,STUDY001-SUBJ0003,32,L00032,HCT,Hematocrit,HEMATOLOGY,47.9,%,41.0,51.0,47.9,47.9,%,41.0,51.0,NORMAL,,WEEK 2,4,2024-10-05,14
STUDY001,LB,STUDY001-SUBJ0003,33,L00033,WBC,White Blood Cell Count,HEMATOLOGY,6.34,10^9/L,4.5,11.0,6.34,6.34,10^9/L,4.5,11.0,NORMAL,,WEEK 2,4,2024-10-05,14
STUDY001,LB,STUDY001-SUBJ0003,34,L00034,PLT,Platelet Count,HEMATOLOGY,281.42,10^9/L,150.0,450.0,281.42,281.42,10^9/L,150.0,450.0,NORMAL,,WEEK 2,4,2024-10-05,14
STUDY001,LB,STUDY001-SUBJ0003,35,L00035,GLUC,Glucose,CHEMISTRY,96.89,mg/dL,70.0,100.0,96.89,96.89,mg/dL,70.0,100.0,NORMAL,,WEEK 2,4,2024-10-05,14
STUDY001,LB,STUDY001-SUBJ0003,36,L00036,BUN,Blood Urea Nitrogen,CHEMISTRY,16.35,mg/dL,7.0,20.0,16.35,16.35,mg/dL,7.0,20.0,NORMAL,,WEEK 2,4,2024-10-05,14
STUDY001,LB,STUDY001-SUBJ0003,37,L00037,CREAT,Creatinine,CHEMISTRY,0.9,mg/dL,0.6,1.2,0.9,0.9,mg/dL,0.6,1.2,NORMAL,,WEEK 2,4,2024-10-05,14
STUDY001,LB,STUDY001-SUBJ0003,38,L00038,BILI,Total Bilirubin,CHEMISTRY,0.53,mg/dL,0.1,1.2,0.53,0.53,mg/dL,0.1,1.2,NORMAL,,WEEK 2,4,2024-10-05,14
STUDY001,LB,STUDY001-SUBJ0003,39,L00039,ALP,Alkaline Phosphatase,CHEMISTRY,80.77,U/L,44.0,147.0,80.77,80.77,U/L,44.0,147.0,NORMAL,,WEEK 2,4,2024-10-05,14
STUDY001,LB,STUDY001-SUBJ0003,40,L00040,ALT,Alanine Aminotransferase,CHEMISTRY,50.28,U/L,7.0,56.0,50.28,50.28,U/L,7.0,56.0,NORMAL,,WEEK 2,4,2024-10-05,14
STUDY001,LB,STUDY001-SUBJ0003,41,L00041,HGB,Hemoglobin,HEMATOLOGY,15.17,g/dL,13.5,17.5,15.17,15.17,g/dL,13.5,17.5,NORMAL,,WEEK 4,5,2024-10-19,28
STUDY001,LB,STUDY001-SUBJ0003,42,L00042,HCT,Hematocrit,HEMATOLOGY,48.15,%,41.0,51.0,48.15,48.15,%,41.0,51.0,NORMAL,,WEEK 4,5,2024-10-19,28
STUDY001,LB,STUDY001-SUBJ0003,43,L00043,WBC,White Blood Cell Count,HEMATOLOGY,6.3,10^9/L,4.5,11.0,6.3,6.3,10^9/L,4.5,11.0,NORMAL,,WEEK 4,5,2024-10-19,28
STUDY001,LB,STUDY001-SUBJ0003,44,L00044,PLT,Platelet Count,HEMATOLOGY,279.52,10^9/L,150.0,450.0,279.52,279.52,10^9/L,150.0,450.0,NORMAL,,WEEK 4,5,2024-10-19,28
STUDY001,LB,STUDY001-SUBJ0003,45,L00045,GLUC,Glucose,CHEMISTRY,94.51,mg/dL,70.0,100.0,94.51,94.51,mg/dL,70.0,100.0,NORMAL,,WEEK 4,5,2024-10-19,28
STUDY001,LB,STUDY001-SUBJ0003,46,L00046,BUN,Blood Urea Nitrogen,CHEMISTRY,15.8,mg/dL,7.0,20.0,15.8,15.8,mg/dL,7.0,20.0,NORMAL,,WEEK 4,5,2024-10-19,28
STUDY001,LB,STUDY001-SUBJ0003,47,L00047,CREAT,Creatinine,CHEMISTRY,0.9,mg/dL,0.6,1.2,0.9,0.9,mg/dL,0.6,1.2,NORMAL,,WEEK 4,5,2024-10-19,28
STUDY001,LB,STUDY001-SUBJ0003,48,L00048,BILI,Total Bilirubin,CHEMISTRY,0.5,mg/dL,0.1,1.2,0.5,0.5,mg/dL,0.1,1.2,NORMAL,,WEEK 4,5,2024-10-19,28
STUDY001,LB,STUDY001-SUBJ0003,49,L00049,ALP,Alkaline Phosphatase,CHEMISTRY,77.64,U/L,44.0,147.0,77.64,77.64,U/L,44.0,147.0,NORMAL,,WEEK 4,5,2024-10-19,28
STUDY001,LB,STUDY001-SUBJ0003,50,L00050,ALT,Alanine Aminotransferase,CHEMISTRY,51.0,U/L,7.0,56.0,51.0,51.0,U/L,7.0,56.0,NORMAL,,WEEK 4,5,2024-10-19,28
STUDY001,LB,STUDY001-SUBJ0003,51,L00051,HGB,Hemoglobin,HEMATOLOGY,15.34,g/dL,13.5,17.5,15.34,15.34,g/dL,13.5,17.5,NORMAL,,WEEK 8,6,2024-11-16,56
STUDY001,LB,STUDY001-SUBJ0003,52,L00052,HCT,Hematocrit,HEMATOLOGY,48.1,%,41.0,51.0,48.1,48.1,%,41.0,51.0,NORMAL,,WEEK 8,6,2024-11-16,56
STUDY001,LB,STUDY001-SUBJ0003,53,L00053,WBC,White Blood Cell Count,HEMATOLOGY,6.48,10^9/L,4.5,11.0,6.48,6.48,10^9/L,4.5,11.0,NORMAL,,WEEK 8,6,2024-11-16,56
STUDY001,LB,STUDY001-SUBJ0003,54,L00054,PLT,Platelet Count,HEMATOLOGY,277.68,10^9/L,150.0,450.0,277.68,277.68,10^9/L,150.0,450.0,NORMAL,,WEEK 8,6,2024-11-16,56
STUDY001,LB,STUDY001-SUBJ0003,55,L00055,GLUC,Glucose,CHEMISTRY,95.79,mg/dL,70.0,100.0,95.79,95.79,mg/dL,70.0,100.0,NORMAL,,WEEK 8,6,2024-11-16,56
STUDY001,LB,STUDY001-SUBJ0003,56,L00056,BUN,Blood Urea Nitrogen,CHEMISTRY,16.54,mg/dL,7.0,20.0,16.54,16.54,mg/dL,7.0,20.0,NORMAL,,WEEK 8,6,2024-11-16,56
STUDY001,LB,STUDY001-SUBJ0003,57,L00057,CREAT,Creatinine,CHEMISTRY,0.9,mg/dL,0.6,1.2,0.9,0.9,mg/dL,0.6,1.2,NORMAL,,WEEK 8,6,2024-11-16,56
STUDY001,LB,STUDY001-SUBJ0003,58,L00058,BILI,Total Bilirubin,CHEMISTRY,0.55,mg/dL,0.1,1.2,0.55,0.55,mg/dL,0.1,1.2,NORMAL,,WEEK 8,6,2024-11-16,56
STUDY001,LB,STUDY001-SUBJ0003,59,L00059,ALP,Alkaline Phosphatase,CHEMISTRY,81.7,U/L,44.0,147.0,81.7,81.7,U/L,44.0,147.0,NORMAL,,WEEK 8,6,2024-11-16,56
STUDY001,LB,STUDY001-SUBJ0003,60,L00060,ALT,Alanine Aminotransferase,CHEMISTRY,51.61,U/L,7.0,56.0,51.61,51.61,U/L,7.0,56.0,NORMAL,,WEEK 8,6,2024-11-16,56
STUDY001,LB,STUDY001-SUBJ0003,61,L00061,HGB,Hemoglobin,HEMATOLOGY,15.34,g/dL,13.5,17.5,15.34,15.34,g/dL,13.5,17.5,NORMAL,,WEEK 12,7,2024-12-14,84
STUDY001,LB,STUDY001-SUBJ0003,62,L00062,HCT,Hematocrit,HEMATOLOGY,47.71,%,41.0,51.0,47.71,47.71,%,41.0,51.0,NORMAL,,WEEK 12,7,2024-12-14,84
STUDY001,LB,STUDY001-SUBJ0003,63,L00063,WBC,White Blood Cell Count,HEMATOLOGY,6.22,10^9/L,4.5,11.0,6.22,6.22,10^9/L,4.5,11.0,NORMAL,,WEEK 12,7,2024-12-14,84
STUDY001,LB,STUDY001-SUBJ0003,64,L00064,PLT,Platelet Count,HEMATOLOGY,270.96,10^9/L,150.0,450.0,270.96,270.96,10^9/L,150.0,450.0,NORMAL,,WEEK 12,7,2024-12-14,84
STUDY001,LB,STUDY001-SUBJ0003,65,L00065,GLUC,Glucose,CHEMISTRY,95.9,mg/dL,70.0,100.0,95.9,95.9,mg/dL,70.0,100.0,NORMAL,,WEEK 12,7,2024-12-14,84
STUDY001,LB,STUDY001-SUBJ0003,66,L00066,BUN,Blood Urea Nitrogen,CHEMISTRY,16.79,mg/dL,7.0,20.0,16.79,16.79,mg/dL,7.0,20.0,NORMAL,,WEEK 12,7,2024-12-14,84
STUDY001,LB,STUDY001-SUBJ0003,67,L00067,CREAT,Creatinine,CHEMISTRY,0.91,mg/dL,0.6,1.2,0.91,0.91,mg/dL,0.6,1.2,NORMAL,,WEEK 12,7,2024-12-14,84
STUDY001,LB,STUDY001-SUBJ0003,68,L00068,BILI,Total Bilirubin,CHEMISTRY,0.57,mg/dL,0.1,1.2,0.57,0.57,mg/dL,0.1,1.2,NORMAL,,WEEK 12,7,2024-12-14,84
STUDY001,LB,STUDY001-SUBJ0003,69,L00069,ALP,Alkaline Phosphatase,CHEMISTRY,78.06,U/L,44.0,147.0,78.06,78.06,U/L,44.0,147.0,NORMAL,,WEEK 12,7,2024-12-14,84
STUDY001,LB,STUDY001-SUBJ0003,70,L00070,ALT,Alanine Aminotransferase,CHEMISTRY,49.99,U/L,7.0,56.0,49.99,49.99,U/L,7.0,56.0,NORMAL,,WEEK 12,7,2024-12-14,84
STUDY001,LB,STUDY001-SUBJ0003,71,L00071,HGB,Hemoglobin,HEMATOLOGY,15.16,g/dL,13.5,17.5,15.16,15.16,g/dL,13.5,17.5,NORMAL,,WEEK 16,8,2025-01-11,112
STUDY001,LB,STUDY001-SUBJ0003,72,L00072,HCT,Hematocrit,HEMATOLOGY,47.7,%,41.0,51.0,47.7,47.7,%,41.0,51.0,NORMAL,,WEEK 16,8,2025-01-11,112
STUDY001,LB,STUDY001-SUBJ0003,73,L00073,WBC,White Blood Cell Count,HEMATOLOGY,6.48,10^9/L,4.5,11.0,6.48,6.48,10^9/L,4.5,11.0,NORMAL,,WEEK 16,8,2025-01-11,112
STUDY001,LB,STUDY001-SUBJ0003,74,L00074,PLT,Platelet Count,HEMATOLOGY,283.14,10^9/L,150.0,450.0,283.14,283.14,10^9/L,150.0,450.0,NORMAL,,WEEK 16,8,2025-01-11,112
STUDY001,LB,STUDY001-SUBJ0003,75,L00075,GLUC,Glucose,CHEMISTRY,95.59,mg/dL,70.0,100.0,95.59,95.59,mg/dL,70.0,100.0,NORMAL,,WEEK 16,8,2025-01-11,112
STUDY001,LB,STUDY001-SUBJ0003,76,L00076,BUN,Blood Urea Nitrogen,CHEMISTRY,16.75,mg/dL,7.0,20.0,16.75,16.75,mg/dL,7.0,20.0,NORMAL,,WEEK 16,8,2025-01-11,112
STUDY001,LB,STUDY001-SUBJ0003,77,L00077,CREAT,Creatinine,CHEMISTRY,0.89,mg/dL,0.6,1.2,0.89,0.89,mg/dL,0.6,1.2,NORMAL,,WEEK 16,8,2025-01-11,112
STUDY001,LB,STUDY001-SUBJ0003,78,L00078,BILI,Total Bilirubin,CHEMISTRY,0.53,mg/dL,0.1,1.2,0.53,0.53,mg/dL,0.1,1.2,NORMAL,,WEEK 16,8,2025-01-11,112
STUDY001,LB,STUDY001-SUBJ0003,79,L00079,ALP,Alkaline Phosphatase,CHEMISTRY,80.86,U/L,44.0,147.0,80.86,80.86,U/L,44.0,147.0,NORMAL,,WEEK 16,8,2025-01-11,112
STUDY001,LB,STUDY001-SUBJ0003,80,L00080,ALT,Alanine Aminotransferase,CHEMISTRY,50.9,U/L,7.0,56.0,50.9,50.9,U/L,7.0,56.0,NORMAL,,WEEK 16,8,2025-01-11,112
STUDY001,LB,STUDY001-SUBJ0003,81,L00081,HGB,Hemoglobin,HEMATOLOGY,15.26,g/dL,13.5,17.5,15.26,15.26,g/dL,13.5,17.5,NORMAL,,END OF TREATMENT,9,2025-02-08,140
STUDY001,LB,STUDY001-SUBJ0003,82,L00082,HCT,Hematocrit,HEMATOLOGY,48.06,%,41.0,51.0,48.06,48.06,%,41.0,51.0,NORMAL,,END OF TREATMENT,9,2025-02-08,140
STUDY001,LB,STUDY001-SUBJ0003,83,L00083,WBC,White Blood Cell Count,HEMATOLOGY,6.31,10^9/L,4.5,11.0,6.31,6.31,10^9/L,4.5,11.0,NORMAL,,END OF TREATMENT,9,2025-02-08,140
STUDY001,LB,STUDY001-SUBJ0003,84,L00084,PLT,Platelet Count,HEMATOLOGY,277.75,10^9/L,150.0,450.0,277.75,277.75,10^9/L,150.0,450.0,NORMAL,,END OF TREATMENT,9,2025-02-08,140
STUDY001,LB,STUDY001-SUBJ0003,85,L00085,GLUC,Glucose,CHEMISTRY,96.38,mg/dL,70.0,100.0,96.38,96.38,mg/dL,70.0,100.0,NORMAL,,END OF TREATMENT,9,2025-02-08,140
STUDY001,LB,STUDY001-SUBJ0003,86,L00086,BUN,Blood Urea Nitrogen,CHEMISTRY,16.12,mg/dL,7.0,20.0,16.12,16.12,mg/dL,7.0,20.0,NORMAL,,END OF TREATMENT,9,2025-02-08,140
STUDY001,LB,STUDY001-SUBJ0003,87,L00087,CREAT,Creatinine,CHEMISTRY,0.93,mg/dL,0.6,1.2,0.93,0.93,mg/dL,0.6,1.2,NORMAL,,END OF TREATMENT,9,2025-02-08,140
STUDY001,LB,STUDY001-SUBJ0003,88,L00088,BILI,Total Bilirubin,CHEMISTRY,0.54,mg/dL,0.1,1.2,0.54,0.54,mg/dL,0.1,1.2,NORMAL,,END OF TREATMENT,9,2025-02-08,140
STUDY001,LB,STUDY001-SUBJ0003,89,L00089,ALP,Alkaline Phosphatase,CHEMISTRY,82.68,U/L,44.0,147.0,82.68,82.68,U/L,44.0,147.0,NORMAL,,END OF TREATMENT,9,2025-02-08,140
STUDY001,LB,STUDY001-SUBJ0003,90,L00090,ALT,Alanine Aminotransferase,CHEMISTRY,50.19,U/L,7.0,56.0,50.19,50.19,U/L,7.0,56.0,NORMAL,,END OF TREATMENT,9,2025-02-08,140
STUDY001,LB,STUDY001-SUBJ0004,1,L00001,HGB,Hemoglobin,HEMATOLOGY,12.95,g/dL,13.5,17.5,12.95,12.95,g/dL,13.5,17.5,LOW,,SCREENING,1,2024-11-12,-14
STUDY001,LB,STUDY001-SUBJ0004,2,L00002,HCT,Hematocrit,HEMATOLOGY,49.26,%,41.0,51.0,49.26,49.26,%,41.0,51.0,NORMAL,,SCREENING,1,2024-11-12,-14
STUDY001,LB,STUDY001-SUBJ0004,3,L00003,WBC,White Blood Cell Count,HEMATOLOGY,5.53,10^9/L,4.5,11.0,5.53,5.53,10^9/L,4.5,11.0,NORMAL,,SCREENING,1,2024-11-12,-14
STUDY001,LB,STUDY001-SUBJ0004,4,L00004,PLT,Platelet Count,HEMATOLOGY,243.59,10^9/L,150.0,450.0,243.59,243.59,10^9/L,150.0,450.0,NORMAL,,SCREENING,1,2024-11-12,-14
STUDY001,LB,STUDY001-SUBJ0004,5,L00005,GLUC,Glucose,CHEMISTRY,90.86,mg/dL,70.0,100.0,90.86,90.86,mg/dL,70.0,100.0,NORMAL,,SCREENING,1,2024-11-12,-14
STUDY001,LB,STUDY001-SUBJ0004,6,L00006,BUN,Blood Urea Nitrogen,CHEMISTRY,9.2,mg/dL,7.0,20.0,9.2,9.2,mg/dL,7.0,20.0,NORMAL,,SCREENING,1,2024-11-12,-14
STUDY001,LB,STUDY001-SUBJ0004,7,L00007,CREAT,Creatinine,CHEMISTRY,0.91,mg/dL,0.6,1.2,0.91,0.91,mg/dL,0.6,1.2,NORMAL,,SCREENING,1,2024-11-12,-14
STUDY001,LB,STUDY001-SUBJ0004,8,L00008,BILI,Total Bilirubin,CHEMISTRY,0.87,mg/dL,0.1,1.2,0.87,0.87,mg/dL,0.1,1.2,NORMAL,,SCREENING,1,2024-11-12,-14
STUDY001,LB,STUDY001-SUBJ0004,9,L00009,ALP,Alkaline Phosphatase,CHEMISTRY,85.17,U/L,44.0,147.0,85.17,85.17,U/L,44.0,147.0,NORMAL,,SCREENING,1,2024-11-12,-14
STUDY001,LB,STUDY001-SUBJ0004,10,L00010,ALT,Alanine Aminotransferase,CHEMISTRY,38.51,U/L,7.0,56.0,38.51,38.51,U/L,7.0,56.0,NORMAL,,SCREENING,1,2024-11-12,-14
STUDY001,LB,STUDY001-SUBJ0004,11,L00011,HGB,Hemoglobin,HEMATOLOGY,12.96,g/dL,13.5,17.5,12.96,12.96,g/dL,13.5,17.5,LOW,Y,BASELINE,2,2024-11-26,1
STUDY001,LB,STUDY001-SUBJ0004,12,L00012,HCT,Hematocrit,HEMATOLOGY,49.22,%,41.0,51.0,49.22,49.22,%,41.0,51.0,NORMAL,Y,BASELINE,2,2024-11-26,1
STUDY001,LB,STUDY001-SUBJ0004,13,L00013,WBC,White Blood Cell Count,HEMATOLOGY,5.5,10^9/L,4.5,11.0,5.5,5.5,10^9/L,4.5,11.0,NORMAL,Y,BASELINE,2,2024-11-26,1
STUDY001,LB,STUDY001-SUBJ0004,14,L00014,PLT,Platelet Count,HEMATOLOGY,240.67,10^9/L,150.0,450.0,240.67,240.67,10^9/L,150.0,450.0,NORMAL,Y,BASELINE,2,2024-11-26,1
STUDY001,LB,STUDY001-SUBJ0004,15,L00015,GLUC,Glucose,CHEMISTRY,89.77,mg/dL,70.0,100.0,89.77,89.77,mg/dL,70.0,100.0,NORMAL,Y,BASELINE,2,2024-11-26,1
STUDY001,LB,STUDY001-SUBJ0004,16,L00016,BUN,Blood Urea Nitrogen,CHEMISTRY,8.68,mg/dL,7.0,20.0,8.68,8.68,mg/dL,7.0,20.0,NORMAL,Y,BASELINE,2,2024-11-26,1
STUDY001,LB,STUDY001-SUBJ0004,17,L00017,CREAT,Creatinine,CHEMISTRY,0.86,mg/dL,0.6,1.2,0.86,0.86,mg/dL,0.6,1.2,NORMAL,Y,BASELINE,2,2024-11-26,1
STUDY001,LB,STUDY001-SUBJ0004,18,L00018,BILI,Total Bilirubin,CHEMISTRY,0.86,mg/dL,0.1,1.2,0.86,0.86,mg/dL,0.1,1.2,NORMAL,Y,BASELINE,2,2024-11-26,1
STUDY001,LB,STUDY001-SUBJ0004,19,L00019,ALP,Alkaline Phosphatase,CHEMISTRY,88.29,U/L,44.0,147.0,88.29,88.29,U/L,44.0,147.0,NORMAL,Y,BASELINE,2,2024-11-26,1
STUDY001,LB,STUDY001-SUBJ0004,20,L00020,ALT,Alanine Aminotransferase,CHEMISTRY,39.87,U/L,7.0,56.0,39.87,39.87,U/L,7.0,56.0,NORMAL,Y,BASELINE,2,2024-11-26,1
STUDY001,LB,STUDY001-SUBJ0004,21,L00021,HGB,Hemoglobin,HEMATOLOGY,13.05,g/dL,13.5,17.5,13.05,13.05,g/dL,13.5,17.5,LOW,,WEEK 1,3,2024-12-02,7
STUDY001,LB,STUDY001-SUBJ0004,22,L00022,HCT,Hematocrit,HEMATOLOGY,49.2,%,41.0,51.0,49.2,49.2,%,41.0,51.0,NORMAL,,WEEK 1,3,2024-12-02,7
STUDY001,LB,STUDY001-SUBJ0004,23,L00023,WBC,White Blood Cell Count,HEMATOLOGY,5.76,10^9/L,4.5,11.0,5.76,5.76,10^9/L,4.5,11.0,NORMAL,,WEEK 1,3,2024-12-02,7
STUDY001,LB,STUDY001-SUBJ0004,24,L00024,PLT,Platelet Count,HEMATOLOGY,241.9,10^9/L,150.0,450.0,241.9,241.9,10^9/L,150.0,450.0,NORMAL,,WEEK 1,3,2024-12-02,7
STUDY001,LB,STUDY001-SUBJ0004,25,L00025,GLUC,Glucose,CHEMISTRY,91.18,mg/dL,70.0,100.0,91.18,91.18,mg/dL,70.0,100.0,NORMAL,,WEEK 1,3,2024-12-02,7
STUDY001,LB,STUDY001-SUBJ0004,26,L00026,BUN,Blood Urea Nitrogen,CHEMISTRY,9.31,mg/dL,7.0,20.0,9.31,9.31,mg/dL,7.0,20.0,NORMAL,,WEEK 1,3,2024-12-02,7
STUDY001,LB,STUDY001-SUBJ0004,27,L00027,CREAT,Creatinine,CHEMISTRY,0.9,mg/dL,0.6,1.2,0.9,0.9,mg/dL,0.6,1.2,NORMAL,,WEEK 1,3,2024-12-02,7
STUDY001,LB,STUDY001-SUBJ0004,28,L00028,BILI,Total Bilirubin,CHEMISTRY,0.88,mg/dL,0.1,1.2,0.88,0.88,mg/dL,0.1,1.2,NORMAL,,WEEK 1,3,2024-12-02,7
STUDY001,LB,STUDY001-SUBJ0004,29,L00029,ALP,Alkaline Phosphatase,CHEMISTRY,90.22,U/L,44.0,147.0,90.22,90.22,U/L,44.0,147.0,NORMAL,,WEEK 1,3,2024-12-02,7
STUDY001,LB,STUDY001-SUBJ0004,30,L00030,ALT,Alanine Aminotransferase,CHEMISTRY,39.96,U/L,7.0,56.0,39.96,39.96,U/L,7.0,56.0,NORMAL,,WEEK 1,3,2024-12-02,7
STUDY001,LB,STUDY001-SUBJ0004,31,L00031,HGB,Hemoglobin,HEMATOLOGY,13.06,g/dL,13.5,17.5,13.06,13.06,g/dL,13.5,17.5,LOW,,WEEK 2,4,2024-12-09,14
STUDY001,LB,STUDY001-SUBJ0004,32,L00032,HCT,Hematocrit,HEMATOLOGY,49.17,%,41.0,51.0,49.17,49.17,%,41.0,51.0,NORMAL,,WEEK 2,4,2024-12-09,14
STUDY001,LB,STUDY001-SUBJ0004,33,L00033,WBC,White Blood Cell Count,HEMATOLOGY,5.65,10^9/L,4.5,11.0,5.65,5.65,10^9/L,4.5,11.0,NORMAL,,WEEK 2,4,2024-12-09,14
STUDY001,LB,STUDY001-SUBJ0004,34,L00034,PLT,Platelet Count,HEMATOLOGY,238.53,10^9/L,150.0,450.0,238.53,238.53,10^9/L,150.0,450.0,NORMAL,,WEEK 2,4,2024-12-09,14
STUDY001,LB,STUDY001-SUBJ0004,35,L00035,GLUC,Glucose,CHEMISTRY,90.2,mg/dL,70.0,100.0,90.2,90.2,mg/dL,70.0,100.0,NORMAL,,WEEK 2,4,2024-12-09,14
STUDY001,LB,STUDY001-SUBJ0004,36,L00036,BUN,Blood Urea Nitrogen,CHEMISTRY,9.11,mg/dL,7.0,20.0,9.11,9.11,mg/dL,7.0,20.0,NORMAL,,WEEK 2,4,2024-12-09,14
STUDY001,LB,STUDY001-SUBJ0004,37,L00037,CREAT,Creatinine,CHEMISTRY,0.88,mg/dL,0.6,1.2,0.88,0.88,mg/dL,0.6,1.2,NORMAL,,WEEK 2,4,2024-12-09,14
STUDY001,LB,STUDY001-SUBJ0004,38,L00038,BILI,Total Bilirubin,CHEMISTRY,0.89,mg/dL,0.1,1.2,0.89,0.89,mg/dL,0.1,1.2,NORMAL,,WEEK 2,4,2024-12-09,14
STUDY001,LB,STUDY001-SUBJ0004,39,L00039,ALP,Alkaline Phosphatase,CHEMISTRY,86.8,U/L,44.0,147.0,86.8,86.8,U/L,44.0,147.0,NORMAL,,WEEK 2,4,2024-12-09,14
STUDY001,LB,STUDY001-SUBJ0004,40,L00040,ALT,Alanine Aminotransferase,CHEMISTRY,39.03,U/L,7.0,56.0,39.03,39.03,U/L,7.0,56.0,NORMAL,,WEEK 2,4,2024-12-09,14
STUDY001,LB,STUDY001-SUBJ0004,41,L00041,HGB,Hemoglobin,HEMATOLOGY,12.93,g/dL,13.5,17.5,12.93,12.93,g/dL,13.5,17.5,LOW,,WEEK 4,5,2024-12-23,28
STUDY001,LB,STUDY001-SUBJ0004,42,L00042,HCT,Hematocrit,HEMATOLOGY,49.09,%,41.0,51.0,49.09,49.09,%,41.0,51.0,NORMAL,,WEEK 4,5,2024-12-23,28
STUDY001,LB,STUDY001-SUBJ0004,43,L00043,WBC,White Blood Cell Count,HEMATOLOGY,5.77,10^9/L,4.5,11.0,5.77,5.77,10^9/L,4.5,11.0,NORMAL,,WEEK 4,5,2024-12-23,28
STUDY001,LB,STUDY001-SUBJ0004,44,L00044,PLT,Platelet Count,HEMATOLOGY,244.72,10^9/L,150.0,450.0,244.72,244.72,10^9/L,150.0,450.0,NORMAL,,WEEK 4,5,2024-12-23,28
STUDY001,LB,STUDY001-SUBJ0004,45,L00045,GLUC,Glucose,CHEMISTRY,92.11,mg/dL,70.0,100.0,92.11,92.11,mg/dL,70.0,100.0,NORMAL,,WEEK 4,5,2024-12-23,28
STUDY001,LB,STUDY001-SUBJ0004,46,L00046,BUN,Blood Urea Nitrogen,CHEMISTRY,8.79,mg/dL,7.0,20.0,8.79,8.79,mg/dL,7.0,20.0,NORMAL,,WEEK 4,5,2024-12-23,28
STUDY001,LB,STUDY001-SUBJ0004,47,L00047,CREAT,Creatinine,CHEMISTRY,0.91,mg/dL,0.6,1.2,0.91,0.91,mg/dL,0.6,1.2,NORMAL,,WEEK 4,5,2024-12-23,28
STUDY001,LB,STUDY001-SUBJ0004,48,L00048,BILI,Total Bilirubin,CHEMISTRY,0.86,mg/dL,0.1,1.2,0.86,0.86,mg/dL,0.1,1.2,NORMAL,,WEEK 4,5,2024-12-23,28
STUDY001,LB,STUDY001-SUBJ0004,49,L00049,ALP,Alkaline Phosphatase,CHEMISTRY,90.3,U/L,44.0,147.0,90.3,90.3,U/L,44.0,147.0,NORMAL,,WEEK 4,5,2024-12-23,28
STUDY001,LB,STUDY001-SUBJ0004,50,L00050,ALT,Alanine Aminotransferase,CHEMISTRY,40.02,U/L,7.0,56.0,40.02,40.02,U/L,7.0,56.0,NORMAL,,WEEK 4,5,2024-12-23,28
STUDY001,LB,STUDY001-SUBJ0004,51,L00051,HGB,Hemoglobin,HEMATOLOGY,13.1,g/dL,13.5,17.5,13.1,13.1,g/dL,13.5,17.5,LOW,,WEEK 8,6,2025-01-20,56
STUDY001,LB,STUDY001-SUBJ0004,52,L00052,HCT,Hematocrit,HEMATOLOGY,49.14,%,41.0,51.0,49.14,49.14,%,41.0,51.0,NORMAL,,WEEK 8,6,2025-01-20,56
STUDY001,LB,STUDY001-SUBJ0004,53,L00053,WBC,White Blood Cell Count,HEMATOLOGY,5.62,10^9/L,4.5,11.0,5.62,5.62,10^9/L,4.5,11.0,NORMAL,,WEEK 8,6,2025-01-20,56
STUDY001,LB,STUDY001-SUBJ0004,54,L00054,PLT,Platelet Count,HEMATOLOGY,242.28,10^9/L,150.0,450.0,242.28,242.28,10^9/L,150.0,450.0,NORMAL,,WEEK 8,6,2025-01-20,56
STUDY001,LB,STUDY001-SUBJ0004,55,L00055,GLUC,Glucose,CHEMISTRY,88.61,mg/dL,70.0,100.0,88.61,88.61,mg/dL,70.0,100.0,NORMAL,,WEEK 8,6,2025-01-20,56
STUDY001,LB,STUDY001-SUBJ0004,56,L00056,BUN,Blood Urea Nitrogen,CHEMISTRY,8.51,mg/dL,7.0,20.0,8.51,8.51,mg/dL,7.0,20.0,NORMAL,,WEEK 8,6,2025-01-20,56
STUDY001,LB,STUDY001-SUBJ0004,57,L00057,CREAT,Creatinine,CHEMISTRY,0.89,mg/dL,0.6,1.2,0.89,0.89,mg/dL,0.6,1.2,NORMAL,,WEEK 8,6,2025-01-20,56
STUDY001,LB,STUDY001-SUBJ0004,58,L00058,BILI,Total Bilirubin,CHEMISTRY,0.87,mg/dL,0.1,1.2,0.87,0.87,mg/dL,0.1,1.2,NORMAL,,WEEK 8,6,2025-01-20,56
STUDY001,LB,STUDY001-SUBJ0004,59,L00059,ALP,Alkaline Phosphatase,CHEMISTRY,90.66,U/L,44.0,147.0,90.66,90.66,U/L,44.0,147.0,NORMAL,,WEEK 8,6,2025-01-20,56
STUDY001,LB,STUDY001-SUBJ0004,60,L00060,ALT,Alanine Aminotransferase,CHEMISTRY,38.06,U/L,7.0,56.0,38.06,38.06,U/L,7.0,56.0,NORMAL,,WEEK 8,6,2025-01-20,56
STUDY001,LB,STUDY001-SUBJ0004,61,L00061,HGB,Hemoglobin,HEMATOLOGY,12.94,g/dL,13.5,17.5,12.94,12.94,g/dL,13.5,17.5,LOW,,WEEK 12,7,2025-02-17,84
STUDY001,LB,STUDY001-SUBJ0004,62,L00062,HCT,Hematocrit,HEMATOLOGY,49.5,%,41.0,51.0,49.5,49.5,%,41.0,51.0,NORMAL,,WEEK 12,7,2025-02-17,84
STUDY001,LB,STUDY001-SUBJ0004,63,L00063,WBC,White Blood Cell Count,HEMATOLOGY,5.37,10^9/L,4.5,11.0,5.37,5.37,10^9/L,4.5,11.0,NORMAL,,WEEK 12,7,2025-02-17,84
STUDY001,LB,STUDY001-SUBJ0004,64,L00064,PLT,Platelet Count,HEMATOLOGY,249.0,10^9/L,150.0,450.0,249.0,249.0,10^9/L,150.0,450.0,NORMAL,,WEEK 12,7,2025-02-17,84
STUDY001,LB,STUDY001-SUBJ0004,65,L00065,GLUC,Glucose,CHEMISTRY,91.27,mg/dL,70.0,100.0,91.27,91.27,mg/dL,70.0,100.0,NORMAL,,WEEK 12,7,2025-02-17,84
STUDY001,LB,STUDY001-SUBJ0004,66,L00066,BUN,Blood Urea Nitrogen,CHEMISTRY,8.97,mg/dL,7.0,20.0,8.97,8.97,mg/dL,7.0,20.0,NORMAL,,WEEK 12,7,2025-02-17,84
STUDY001,LB,STUDY001-SUBJ0004,67,L00067,CREAT,Creatinine,CHEMISTRY,0.91,mg/dL,0.6,1.2,0.91,0.91,mg/dL,0.6,1.2,NORMAL,,WEEK 12,7,2025-02-17,84
STUDY001,LB,STUDY001-SUBJ0004,68,L00068,BILI,Total Bilirubin,CHEMISTRY,0.9,mg/dL,0.1,1.2,0.9,0.9,mg/dL,0.1,1.2,NORMAL,,WEEK 12,7,2025-02-17,84
STUDY001,LB,STUDY001-SUBJ0004,69,L00069,ALP,Alkaline Phosphatase,CHEMISTRY,92.49,U/L,44.0,147.0,92.49,92.49,U/L,44.0,147.0,NORMAL,,WEEK 12,7,2025-02-17,84
STUDY001,LB,STUDY001-SUBJ0004,70,L00070,ALT,Alanine Aminotransferase,CHEMISTRY,38.73,U/L,7.0,56.0,38.73,38.73,U/L,7.0,56.0,NORMAL,,WEEK 12,7,2025-02-17,84
STUDY001,LB,STUDY001-SUBJ0004,71,L00071,HGB,Hemoglobin,HEMATOLOGY,13.02,g/dL,13.5,17.5,13.02,13.02,g/dL,13.5,17.5,LOW,,WEEK 16,8,2025-03-17,112
STUDY001,LB,STUDY001-SUBJ0004,72,L00072,HCT,Hematocrit,HEMATOLOGY,48.94,%,41.0,51.0,48.94,48.94,%,41.0,51.0,NORMAL,,WEEK 16,8,2025-03-17,112
STUDY001,LB,STUDY001-SUBJ0004,73,L00073,WBC,White Blood Cell Count,HEMATOLOGY,5.72,10^9/L,4.5,11.0,5.72,5.72,10^9/L,4.5,11.0,NORMAL,,WEEK 16,8,2025-03-17,112
STUDY001,LB,STUDY001-SUBJ0004,74,L00074,PLT,Platelet Count,HEMATOLOGY,239.07,10^9/L,150.0,450.0,239.07,239.07,10^9/L,150.0,450.0,NORMAL,,WEEK 16,8,2025-03-17,112
STUDY001,LB,STUDY001-SUBJ0004,75,L00075,GLUC,Glucose,CHEMISTRY,90.29,mg/dL,70.0,100.0,90.29,90.29,mg/dL,70.0,100.0,NORMAL,,WEEK 16,8,2025-03-17,112
STUDY001,LB,STUDY001-SUBJ0004,76,L00076,BUN,Blood Urea Nitrogen,CHEMISTRY,9.34,mg/dL,7.0,20.0,9.34,9.34,mg/dL,7.0,20.0,NORMAL,,WEEK 16,8,2025-03-17,112
STUDY001,LB,STUDY001-SUBJ0004,77,L00077,CREAT,Creatinine,CHEMISTRY,0.91,mg/dL,0.6,1.2,0.91,0.91,mg/dL,0.6,1.2,NORMAL,,WEEK 16,8,2025-03-17,112
STUDY001,LB,STUDY001-SUBJ0004,78,L00078,BILI,Total Bilirubin,CHEMISTRY,0.9,mg/dL,0.1,1.2,0.9,0.9,mg/dL,0.1,1.2,NORMAL,,WEEK 16,8,2025-03-17,112
STUDY001,LB,STUDY001-SUBJ0004,79,L00079,ALP,Alkaline Phosphatase,CHEMISTRY,88.41,U/L,44.0,147.0,88.41,88.41,U/L,44.0,147.0,NORMAL,,WEEK 16,8,2025-03-17,112
STUDY001,LB,STUDY001-SUBJ0004,80,L00080,ALT,Alanine Aminotransferase,CHEMISTRY,37.66,U/L,7.0,56.0,37.66,37.66,U/L,7.0,56.0,NORMAL,,WEEK 16,8,2025-03-17,112
STUDY001,LB,STUDY001-SUBJ0004,81,L00081,HGB,Hemoglobin,HEMATOLOGY,12.95,g/dL,13.5,17.5,12.95,12.95,g/dL,13.5,17.5,LOW,,END OF TREATMENT,9,2025-04-14,140
STUDY001,LB,STUDY001-SUBJ0004,82,L00082,HCT,Hematocrit,HEMATOLOGY,49.54,%,41.0,51.0,49.54,49.54,%,41.0,51.0,NORMAL,,END OF TREATMENT,9,2025-04-14,140
STUDY001,LB,STUDY001-SUBJ0004,83,L00083,WBC,White Blood Cell Count,HEMATOLOGY,5.5,10^9/L,4.5,11.0,5.5,5.5,10^9/L,4.5,11.0,NORMAL,,END OF TREATMENT,9,2025-04-14,140
STUDY001,LB,STUDY001-SUBJ0004,84,L00084,PLT,Platelet Count,HEMATOLOGY,255.73,10^9/L,150.0,450.0,255.73,255.73,10^9/L,150.0,450.0,NORMAL,,END OF TREATMENT,9,2025-04-14,140
STUDY001,LB,STUDY001-SUBJ0004,85,L00085,GLUC,Glucose,CHEMISTRY,91.55,mg/dL,70.0,100.0,91.55,91.55,mg/dL,70.0,100.0,NORMAL,,END OF TREATMENT,9,2025-04-14,140
STUDY001,LB,STUDY001-SUBJ0004,86,L00086,BUN,Blood Urea Nitrogen,CHEMISTRY,8.61,mg/dL,7.0,20.0,8.61,8.61,mg/dL,7.0,20.0,NORMAL,,END OF TREATMENT,9,2025-04-14,140
STUDY001,LB,STUDY001-SUBJ0004,87,L00087,CREAT,Creatinine,CHEMISTRY,0.9,mg/dL,0.6,1.2,0.9,0.9,mg/dL,0.6,1.2,NORMAL,,END OF TREATMENT,9,2025-04-14,140
STUDY001,LB,STUDY001-SUBJ0004,88,L00088,BILI,Total Bilirubin,CHEMISTRY,0.85,mg/dL,0.1,1.2,0.85,0.85,mg/dL,0.1,1.2,NORMAL,,END OF TREATMENT,9,2025-04-14,140
STUDY001,LB,STUDY001-SUBJ0004,89,L00089,ALP,Alkaline Phosphatase,CHEMISTRY,88.88,U/L,44.0,147.0,88.88,88.88,U/L,44.0,147.0,NORMAL,,END OF TREATMENT,9,2025-04-14,140
STUDY001,LB,STUDY001-SUBJ0004,90,L00090,ALT,Alanine Aminotransferase,CHEMISTRY,39.79,U/L,7.0,56.0,39.79,39.79,U/L,7.0,56.0,NORMAL,,END OF TREATMENT,9,2025-04-14,140
STUDY001,LB,STUDY001-SUBJ0005,1,L00001,HGB,Hemoglobin,HEMATOLOGY,15.74,g/dL,13.5,17.5,15.74,15.74,g/dL,13.5,17.5,NORMAL,,SCREENING,1,2025-06-29,-14
STUDY001,LB,STUDY001-SUBJ0005,2,L00002,HCT,Hematocrit,HEMATOLOGY,43.03,%,41.0,51.0,43.03,43.03,%,41.0,51.0,NORMAL,,SCREENING,1,2025-06-29,-14
STUDY001,LB,STUDY001-SUBJ0005,3,L00003,WBC,White Blood Cell Count,HEMATOLOGY,6.03,10^9/L,4.5,11.0,6.03,6.03,10^9/L,4.5,11.0,NORMAL,,SCREENING,1,2025-06-29,-14
STUDY001,LB,STUDY001-SUBJ0005,4,L00004,PLT,Platelet Count,HEMATOLOGY,223.05,10^9/L,150.0,450.0,223.05,223.05,10^9/L,150.0,450.0,NORMAL,,SCREENING,1,2025-06-29,-14
STUDY001,LB,STUDY001-SUBJ0005,5,L00005,GLUC,Glucose,CHEMISTRY,98.97,mg/dL,70.0,100.0,98.97,98.97,mg/dL,70.0,100.0,NORMAL,,SCREENING,1,2025-06-29,-14
STUDY001,LB,STUDY001-SUBJ0005,6,L00006,BUN,Blood Urea Nitrogen,CHEMISTRY,14.37,mg/dL,7.0,20.0,14.37,14.37,mg/dL,7.0,20.0,NORMAL,,SCREENING,1,2025-06-29,-14
STUDY001,LB,STUDY001-SUBJ0005,7,L00007,CREAT,Creatinine,CHEMISTRY,0.93,mg/dL,0.6,1.2,0.93,0.93,mg/dL,0.6,1.2,NORMAL,,SCREENING,1,2025-06-29,-14
STUDY001,LB,STUDY001-SUBJ0005,8,L00008,BILI,Total Bilirubin,CHEMISTRY,0.99,mg/dL,0.1,1.2,0.99,0.99,mg/dL,0.1,1.2,NORMAL,,SCREENING,1,2025-06-29,-14
STUDY001,LB,STUDY001-SUBJ0005,9,L00009,ALP,Alkaline Phosphatase,CHEMISTRY,74.23,U/L,44.0,147.0,74.23,74.23,U/L,44.0,147.0,NORMAL,,SCREENING,1,2025-06-29,-14
STUDY001,LB,STUDY001-SUBJ0005,10,L00010,ALT,Alanine Aminotransferase,CHEMISTRY,20.19,U/L,7.0,56.0,20.19,20.19,U/L,7.0,56.0,NORMAL,,SCREENING,1,2025-06-29,-14
STUDY001,LB,STUDY001-SUBJ0005,11,L00011,HGB,Hemoglobin,HEMATOLOGY,15.68,g/dL,13.5,17.5,15.68,15.68,g/dL,13.5,17.5,NORMAL,Y,BASELINE,2,2025-07-13,1
STUDY001,LB,STUDY001-SUBJ0005,12,L00012,HCT,Hematocrit,HEMATOLOGY,42.83,%,41.0,51.0,42.83,42.83,%,41.0,51.0,NORMAL,Y,BASELINE,2,2025-07-13,1
STUDY001,LB,STUDY001-SUBJ0005,13,L00013,WBC,White Blood Cell Count,HEMATOLOGY,6.0,10^9/L,4.5,11.0,6.0,6.0,10^9/L,4.5,11.0,NORMAL,Y,BASELINE,2,2025-07-13,1
STUDY001,LB,STUDY001-SUBJ0005,14,L00014,PLT,Platelet Count,HEMATOLOGY,224.83,10^9/L,150.0,450.0,224.83,224.83,10^9/L,150.0,450.0,NORMAL,Y,BASELINE,2,2025-07-13,1
STUDY001,LB,STUDY001-SUBJ0005,15,L00015,GLUC,Glucose,CHEMISTRY,98.03,mg/dL,70.0,100.0,98.03,98.03,mg/dL,70.0,100.0,NORMAL,Y,BASELINE,2,2025-07-13,1
STUDY001,LB,STUDY001-SUBJ0005,16,L00016,BUN,Blood Urea Nitrogen,CHEMISTRY,14.6,mg/dL,7.0,20.0,14.6,14.6,mg/dL,7.0,20.0,NORMAL,Y,BASELINE,2,2025-07-13,1
STUDY001,LB,STUDY001-SUBJ0005,17,L00017,CREAT,Creatinine,CHEMISTRY,0.92,mg/dL,0.6,1.2,0.92,0.92,mg/dL,0.6,1.2,NORMAL,Y,BASELINE,2,2025-07-13,1
STUDY001,LB,STUDY001-SUBJ0005,18,L00018,BILI,Total Bilirubin,CHEMISTRY,1.0,mg/dL,0.1,1.2,1.0,1.0,mg/dL,0.1,1.2,NORMAL,Y,BASELINE,2,2025-07-13,1
STUDY001,LB,STUDY001-SUBJ0005,19,L00019,ALP,Alkaline Phosphatase,CHEMISTRY,76.56,U/L,44.0,147.0,76.56,76.56,U/L,44.0,147.0,NORMAL,Y,BASELINE,2,2025-07-13,1
STUDY001,LB,STUDY001-SUBJ0005,20,L00020,ALT,Alanine Aminotransferase,CHEMISTRY,20.63,U/L,7.0,56.0,20.63,20.63,U/L,7.0,56.0,NORMAL,Y,BASELINE,2,2025-07-13,1
STUDY001,LB,STUDY001-SUBJ0005,21,L00021,HGB,Hemoglobin,HEMATOLOGY,15.83,g/dL,13.5,17.5,15.83,15.83,g/dL,13.5,17.5,NORMAL,,WEEK 1,3,2025-07-19,7
STUDY001,LB,STUDY001-SUBJ0005,22,L00022,HCT,Hematocrit,HEMATOLOGY,43.05,%,41.0,51.0,43.05,43.05,%,41.0,51.0,NORMAL,,WEEK 1,3,2025-07-19,7
STUDY001,LB,STUDY001-SUBJ0005,23,L00023,WBC,White Blood Cell Count,HEMATOLOGY,6.22,10^9/L,4.5,11.0,6.22,6.22,10^9/L,4.5,11.0,NORMAL,,WEEK 1,3,2025-07-19,7
STUDY001,LB,STUDY001-SUBJ0005,24,L00024,PLT,Platelet Count,HEMATOLOGY,228.91,10^9/L,150.0,450.0,228.91,228.91,10^9/L,150.0,450.0,NORMAL,,WEEK 1,3,2025-07-19,7
STUDY001,LB,STUDY001-SUBJ0005,25,L00025,GLUC,Glucose,CHEMISTRY,100.15,mg/dL,70.0,100.0,100.15,100.15,mg/dL,70.0,100.0,HIGH,,WEEK 1,3,2025-07-19,7
STUDY001,LB,STUDY001-SUBJ0005,26,L00026,BUN,Blood Urea Nitrogen,CHEMISTRY,15.07,mg/dL,7.0,20.0,15.07,15.07,mg/dL,7.0,20.0,NORMAL,,WEEK 1,3,2025-07-19,7
STUDY001,LB,STUDY001-SUBJ0005,27,L00027,CREAT,Creatinine,CHEMISTRY,0.92,mg/dL,0.6,1.2,0.92,0.92,mg/dL,0.6,1.2,NORMAL,,WEEK 1,3,2025-07-19,7
STUDY001,LB,STUDY001-SUBJ0005,28,L00028,BILI,Total Bilirubin,CHEMISTRY,1.01,mg/dL,0.1,1.2,1.01,1.01,mg/dL,0.1,1.2,NORMAL,,WEEK 1,3,2025-07-19,7
STUDY001,LB,STUDY001-SUBJ0005,29,L00029,ALP,Alkaline Phosphatase,CHEMISTRY,74.14,U/L,44.0,147.0,74.14,74.14,U/L,44.0,147.0,NORMAL,,WEEK 1,3,2025-07-19,7
STUDY001,LB,STUDY001-SUBJ0005,30,L00030,ALT,Alanine Aminotransferase,CHEMISTRY,20.04,U/L,7.0,56.0,20.04,20.04,U/L,7.0,56.0,NORMAL,,WEEK 1,3,2025-07-19,7
STUDY001,LB,STUDY001-SUBJ0005,31,L00031,HGB,Hemoglobin,HEMATOLOGY,15.72,g/dL,13.5,17.5,15.72,15.72,g/dL,13.5,17.5,NORMAL,,WEEK 2,4,2025-07-26,14
STUDY001,LB,STUDY001-SUBJ0005,32,L00032,HCT,Hematocrit,HEMATOLOGY,43.11,%,41.0,51.0,43.11,43.11,%,41.0,51.0,NORMAL,,WEEK 2,4,2025-07-26,14
STUDY001,LB,STUDY001-SUBJ0005,33,L00033,WBC,White Blood Cell Count,HEMATOLOGY,6.3,10^9/L,4.5,11.0,6.3,6.3,10^9/L,4.5,11.0,NORMAL,,WEEK 2,4,2025-07-26,14
STUDY001,LB,STUDY001-SUBJ0005,34,L00034,PLT,Platelet Count,HEMATOLOGY,225.67,10^9/L,150.0,450.0,225.67,225.67,10^9/L,150.0,450.0,NORMAL,,WEEK 2,4,2025-07-26,14
STUDY001,LB,STUDY001-SUBJ0005,35,L00035,GLUC,Glucose,CHEMISTRY,101.19,mg/dL,70.0,100.0,101.19,101.19,mg/dL,70.0,100.0,HIGH,,WEEK 2,4,2025-07-26,14
STUDY001,LB,STUDY001-SUBJ0005,36,L00036,BUN,Blood Urea Nitrogen,CHEMISTRY,14.65,mg/dL,7.0,20.0,14.65,14.65,mg/dL,7.0,20.0,NORMAL,,WEEK 2,4,2025-07-26,14
STUDY001,LB,STUDY001-SUBJ0005,37,L00037,CREAT,Creatinine,CHEMISTRY,0.93,mg/dL,0.6,1.2,0.93,0.93,mg/dL,0.6,1.2,NORMAL,,WEEK 2,4,2025-07-26,14
STUDY001,LB,STUDY001-SUBJ0005,38,L00038,BILI,Total Bilirubin,CHEMISTRY,0.99,mg/dL,0.1,1.2,0.99,0.99,mg/dL,0.1,1.2,NORMAL,,WEEK 2,4,2025-07-26,14
STUDY001,LB,STUDY001-SUBJ0005,39,L00039,ALP,Alkaline Phosphatase,CHEMISTRY,75.84,U/L,44.0,147.0,75.84,75.84,U/L,44.0,147.0,NORMAL,,WEEK 2,4,2025-07-26,14
STUDY001,LB,STUDY001-SUBJ0005,40,L00040,ALT,Alanine Aminotransferase,CHEMISTRY,18.4,U/L,7.0,56.0,18.4,18.4,U/L,7.0,56.0,NORMAL,,WEEK 2,4,2025-07-26,14
STUDY001,LB,STUDY001-SUBJ0005,41,L00041,HGB,Hemoglobin,HEMATOLOGY,15.72,g/dL,13.5,17.5,15.72,15.72,g/dL,13.5,17.5,NORMAL,,WEEK 4,5,2025-08-09,28
STUDY001,LB,STUDY001-SUBJ0005,42,L00042,HCT,Hematocrit,HEMATOLOGY,43.1,%,41.0,51.0,43.1,43.1,%,41.0,51.0,NORMAL,,WEEK 4,5,2025-08-09,28
STUDY001,LB,STUDY001-SUBJ0005,43,L00043,WBC,White Blood Cell Count,HEMATOLOGY,6.2,10^9/L,4.5,11.0,6.2,6.2,10^9/L,4.5,11.0,NORMAL,,WEEK 4,5,2025-08-09,28
STUDY001,LB,STUDY001-SUBJ0005,44,L00044,PLT,Platelet Count,HEMATOLOGY,225.58,10^9/L,150.0,450.0,225.58,225.58,10^9/L,150.0,450.0,NORMAL,,WEEK 4,5,2025-08-09,28
STUDY001,LB,STUDY001-SUBJ0005,45,L00045,GLUC,Glucose,CHEMISTRY,100.08,mg/dL,70.0,100.0,100.08,100.08,mg/dL,70.0,100.0,HIGH,,WEEK 4,5,2025-08-09,28
STUDY001,LB,STUDY001-SUBJ0005,46,L00046,BUN,Blood Urea Nitrogen,CHEMISTRY,14.39,mg/dL,7.0,20.0,14.39,14.39,mg/dL,7.0,20.0,NORMAL,,WEEK 4,5,2025-08-09,28
STUDY001,LB,STUDY001-SUBJ0005,47,L00047,CREAT,Creatinine,CHEMISTRY,0.91,mg/dL,0.6,1.2,0.91,0.91,mg/dL,0.6,1.2,NORMAL,,WEEK 4,5,2025-08-09,28
STUDY001,LB,STUDY001-SUBJ0005,48,L00048,BILI,Total Bilirubin,CHEMISTRY,0.99,mg/dL,0.1,1.2,0.99,0.99,mg/dL,0.1,1.2,NORMAL,,WEEK 4,5,2025-08-09,28
STUDY001,LB,STUDY001-SUBJ0005,49,L00049,ALP,Alkaline Phosphatase,CHEMISTRY,76.52,U/L,44.0,147.0,76.52,76.52,U/L,44.0,147.0,NORMAL,,WEEK 4,5,2025-08-09,28
STUDY001,LB,STUDY001-SUBJ0005,50,L00050,ALT,Alanine Aminotransferase,CHEMISTRY,19.32,U/L,7.0,56.0,19.32,19.32,U/L,7.0,56.0,NORMAL,,WEEK 4,5,2025-08-09,28
STUDY001,LB,STUDY001-SUBJ0005,51,L00051,HGB,Hemoglobin,HEMATOLOGY,15.74,g/dL,13.5,17.5,15.74,15.74,g/dL,13.5,17.5,NORMAL,,WEEK 8,6,2025-09-06,56
STUDY001,LB,STUDY001-SUBJ0005,52,L00052,HCT,Hematocrit,HEMATOLOGY,43.29,%,41.0,51.0,43.29,43.29,%,41.0,51.0,NORMAL,,WEEK 8,6,2025-09-06,56
STUDY001,LB,STUDY001-SUBJ0005,53,L00053,WBC,White Blood Cell Count,HEMATOLOGY,6.0,10^9/L,4.5,11.0,6.0,6.0,10^9/L,4.5,11.0,NORMAL,,WEEK 8,6,2025-09-06,56
STUDY001,LB,STUDY001-SUBJ0005,54,L00054,PLT,Platelet Count,HEMATOLOGY,227.33,10^9/L,150.0,450.0,227.33,227.33,10^9/L,150.0,450.0,NORMAL,,WEEK 8,6,2025-09-06,56
STUDY001,LB,STUDY001-SUBJ0005,55,L00055,GLUC,Glucose,CHEMISTRY,100.46,mg/dL,70.0,100.0,100.46,100.46,mg/dL,70.0,100.0,HIGH,,WEEK 8,6,2025-09-06,56
STUDY001,LB,STUDY001-SUBJ0005,56,L00056,BUN,Blood Urea Nitrogen,CHEMISTRY,14.71,mg/dL,7.0,20.0,14.71,14.71,mg/dL,7.0,20.0,NORMAL,,WEEK 8,6,2025-09-06,56
STUDY001,LB,STUDY001-SUBJ0005,57,L00057,CREAT,Creatinine,CHEMISTRY,0.95,mg/dL,0.6,1.2,0.95,0.95,mg/dL,0.6,1.2,NORMAL,,WEEK 8,6,2025-09-06,56
STUDY001,LB,STUDY001-SUBJ0005,58,L00058,BILI,Total Bilirubin,CHEMISTRY,0.97,mg/dL,0.1,1.2,0.97,0.97,mg/dL,0.1,1.2,NORMAL,,WEEK 8,6,2025-09-06,56
STUDY001,LB,STUDY001-SUBJ0005,59,L00059,ALP,Alkaline Phosphatase,CHEMISTRY,75.3,U/L,44.0,147.0,75.3,75.3,U/L,44.0,147.0,NORMAL,,WEEK 8,6,2025-09-06,56
STUDY001,LB,STUDY001-SUBJ0005,60,L00060,ALT,Alanine Aminotransferase,CHEMISTRY,20.3,U/L,7.0,56.0,20.3,20.3,U/L,7.0,56.0,NORMAL,,WEEK 8,6,2025-09-06,56
STUDY001,LB,STUDY001-SUBJ0005,61,L00061,HGB,Hemoglobin,HEMATOLOGY,15.61,g/dL,13.5,17.5,15.61,15.61,g/dL,13.5,17.5,NORMAL,,WEEK 12,7,2025-10-04,84
STUDY001,LB,STUDY001-SUBJ0005,62,L00062,HCT,Hematocrit,HEMATOLOGY,43.2,%,41.0,51.0,43.2,43.2,%,41.0,51.0,NORMAL,,WEEK 12,7,2025-10-04,84
STUDY001,LB,STUDY001-SUBJ0005,63,L00063,WBC,White Blood Cell Count,HEMATOLOGY,5.89,10^9/L,4.5,11.0,5.89,5.89,10^9/L,4.5,11.0,NORMAL,,WEEK 12,7,2025-10-04,84
STUDY001,LB,STUDY001-SUBJ0005,64,L00064,PLT,Platelet Count,HEMATOLOGY,228.15,10^9/L,150.0,450.0,228.15,228.15,10^9/L,150.0,450.0,NORMAL,,WEEK 12,7,2025-10-04,84
STUDY001,LB,STUDY001-SUBJ0005,65,L00065,GLUC,Glucose,CHEMISTRY,100.02,mg/dL,70.0,100.0,100.02,100.02,mg/dL,70.0,100.0,HIGH,,WEEK 12,7,2025-10-04,84
STUDY001,LB,STUDY001-SUBJ0005,66,L00066,BUN,Blood Urea Nitrogen,CHEMISTRY,14.33,mg/dL,7.0,20.0,14.33,14.33,mg/dL,7.0,20.0,NORMAL,,WEEK 12,7,2025-10-04,84
STUDY001,LB,STUDY001-SUBJ0005,67,L00067,CREAT,Creatinine,CHEMISTRY,0.96,mg/dL,0.6,1.2,0.96,0.96,mg/dL,0.6,1.2,NORMAL,,WEEK 12,7,2025-10-04,84
STUDY001,LB,STUDY001-SUBJ0005,68,L00068,BILI,Total Bilirubin,CHEMISTRY,1.01,mg/dL,0.1,1.2,1.01,1.01,mg/dL,0.1,1.2,NORMAL,,WEEK 12,7,2025-10-04,84
STUDY001,LB,STUDY001-SUBJ0005,69,L00069,ALP,Alkaline Phosphatase,CHEMISTRY,80.89,U/L,44.0,147.0,80.89,80.89,U/L,44.0,147.0,NORMAL,,WEEK 12,7,2025-10-04,84
STUDY001,LB,STUDY001-SUBJ0005,70,L00070,ALT,Alanine Aminotransferase,CHEMISTRY,19.37,U/L,7.0,56.0,19.37,19.37,U/L,7.0,56.0,NORMAL,,WEEK 12,7,2025-10-04,84
STUDY001,LB,STUDY001-SUBJ0005,71,L00071,HGB,Hemoglobin,HEMATOLOGY,15.6,g/dL,13.5,17.5,15.6,15.6,g/dL,13.5,17.5,NORMAL,,WEEK 16,8,2025-11-01,112
STUDY001,LB,STUDY001-SUBJ0005,72,L00072,HCT,Hematocrit,HEMATOLOGY,43.02,%,41.0,51.0,43.02,43.02,%,41.0,51.0,NORMAL,,WEEK 16,8,2025-11-01,112
STUDY001,LB,STUDY001-SUBJ0005,73,L00073,WBC,White Blood Cell Count,HEMATOLOGY,5.94,10^9/L,4.5,11.0,5.94,5.94,10^9/L,4.5,11.0,NORMAL,,WEEK 16,8,2025-11-01,112
STUDY001,LB,STUDY001-SUBJ0005,74,L00074,PLT,Platelet Count,HEMATOLOGY,224.52,10^9/L,150.0,450.0,224.52,224.52,10^9/L,150.0,450.0,NORMAL,,WEEK 16,8,2025-11-01,112
STUDY001,LB,STUDY001-SUBJ0005,75,L00075,GLUC,Glucose,CHEMISTRY,97.45,mg/dL,70.0,100.0,97.45,97.45,mg/dL,70.0,100.0,NORMAL,,WEEK 16,8,2025-11-01,112
STUDY001,LB,STUDY001-SUBJ0005,76,L00076,BUN,Blood Urea Nitrogen,CHEMISTRY,14.93,mg/dL,7.0,20.0,14.93,14.93,mg/dL,7.0,20.0,NORMAL,,WEEK 16,8,2025-11-01,112
STUDY001,LB,STUDY001-SUBJ0005,77,L00077,CREAT,Creatinine,CHEMISTRY,0.92,mg/dL,0.6,1.2,0.92,0.92,mg/dL,0.6,1.2,NORMAL,,WEEK 16,8,2025-11-01,112
STUDY001,LB,STUDY001-SUBJ0005,78,L00078,BILI,Total Bilirubin,CHEMISTRY,0.94,mg/dL,0.1,1.2,0.94,0.94,mg/dL,0.1,1.2,NORMAL,,WEEK 16,8,2025-11-01,112
STUDY001,LB,STUDY001-SUBJ0005,79,L00079,ALP,Alkaline Phosphatase,CHEMISTRY,76.55,U/L,44.0,147.0,76.55,76.55,U/L,44.0,147.0,NORMAL,,WEEK 16,8,2025-11-01,112
STUDY001,LB,STUDY001-SUBJ0005,80,L00080,ALT,Alanine Aminotransferase,CHEMISTRY,20.85,U/L,7.0,56.0,20.85,20.85,U/L,7.0,56.0,NORMAL,,WEEK 16,8,2025-11-01,112
STUDY001,LB,STUDY001-SUBJ0005,81,L00081,HGB,Hemoglobin,HEMATOLOGY,15.66,g/dL,13.5,17.5,15.66,15.66,g/dL,13.5,17.5,NORMAL,,END OF TREATMENT,9,2025-11-29,140
STUDY001,LB,STUDY001-SUBJ0005,82,L00082,HCT,Hematocrit,HEMATOLOGY,42.93,%,41.0,51.0,42.93,42.93,%,41.0,51.0,NORMAL,,END OF TREATMENT,9,2025-11-29,140
STUDY001,LB,STUDY001-SUBJ0005,83,L00083,WBC,White Blood Cell Count,HEMATOLOGY,6.3,10^9/L,4.5,11.0,6.3,6.3,10^9/L,4.5,11.0,NORMAL,,END OF TREATMENT,9,2025-11-29,140
STUDY001,LB,STUDY001-SUBJ0005,84,L00084,PLT,Platelet Count,HEMATOLOGY,224.41,10^9/L,150.0,450.0,224.41,224.41,10^9/L,150.0,450.0,NORMAL,,END OF TREATMENT,9,2025-11-29,140
STUDY001,LB,STUDY001-SUBJ0005,85,L00085,GLUC,Glucose,CHEMISTRY,98.24,mg/dL,70.0,100.0,98.24,98.24,mg/dL,70.0,100.0,NORMAL,,END OF TREATMENT,9,2025-11-29,140
STUDY001,LB,STUDY001-SUBJ0005,86,L00086,BUN,Blood Urea Nitrogen,CHEMISTRY,14.81,mg/dL,7.0,20.0,14.81,14.81,mg/dL,7.0,20.0,NORMAL,,END OF TREATMENT,9,2025-11-29,140
STUDY001,LB,STUDY001-SUBJ0005,87,L00087,CREAT,Creatinine,CHEMISTRY,0.93,mg/dL,0.6,1.2,0.93,0.93,mg/dL,0.6,1.2,NORMAL,,END OF TREATMENT,9,2025-11-29,140
STUDY001,LB,STUDY001-SUBJ0005,88,L00088,BILI,Total Bilirubin,CHEMISTRY,0.98,mg/dL,0.1,1.2,0.98,0.98,mg/dL,0.1,1.2,NORMAL,,END OF TREATMENT,9,2025-11-29,140
STUDY001,LB,STUDY001-SUBJ0005,89,L00089,ALP,Alkaline Phosphatase,CHEMISTRY,74.3,U/L,44.0,147.0,74.3,74.3,U/L,44.0,147.0,NORMAL,,END OF TREATMENT,9,2025-11-29,140
STUDY001,LB,STUDY001-SUBJ0005,90,L00090,ALT,Alanine Aminotransferase,CHEMISTRY,18.91,U/L,7.0,56.0,18.91,18.91,U/L,7.0,56.0,NORMAL,,END OF TREATMENT,9,2025-11-29,140
STUDY001,LB,STUDY001-SUBJ0006,1,L00001,HGB,Hemoglobin,HEMATOLOGY,16.45,g/dL,13.5,17.5,16.45,16.45,g/dL,13.5,17.5,NORMAL,,SCREENING,1,2025-03-06,-14
STUDY001,LB,STUDY001-SUBJ0006,2,L00002,HCT,Hematocrit,HEMATOLOGY,43.46,%,41.0,51.0,43.46,43.46,%,41.0,51.0,NORMAL,,SCREENING,1,2025-03-06,-14
STUDY001,LB,STUDY001-SUBJ0006,3,L00003,WBC,White Blood Cell Count,HEMATOLOGY,4.83,10^9/L,4.5,11.0,4.83,4.83,10^9/L,4.5,11.0,NORMAL,,SCREENING,1,2025-03-06,-14
STUDY001,LB,STUDY001-SUBJ0006,4,L00004,PLT,Platelet Count,HEMATOLOGY,154.03,10^9/L,150.0,450.0,154.03,154.03,10^9/L,150.0,450.0,NORMAL,,SCREENING,1,2025-03-06,-14
STUDY001,LB,STUDY001-SUBJ0006,5,L00005,GLUC,Glucose,CHEMISTRY,95.07,mg/dL,70.0,100.0,95.07,95.07,mg/dL,70.0,100.0,NORMAL,,SCREENING,1,2025-03-06,-14
STUDY001,LB,STUDY001-SUBJ0006,6,L00006,BUN,Blood Urea Nitrogen,CHEMISTRY,12.89,mg/dL,7.0,20.0,12.89,12.89,mg/dL,7.0,20.0,NORMAL,,SCREENING,1,2025-03-06,-14
STUDY001,LB,STUDY001-SUBJ0006,7,L00007,CREAT,Creatinine,CHEMISTRY,0.87,mg/dL,0.6,1.2,0.87,0.87,mg/dL,0.6,1.2,NORMAL,,SCREENING,1,2025-03-06,-14
STUDY001,LB,STUDY001-SUBJ0006,8,L00008,BILI,Total Bilirubin,CHEMISTRY,0.44,mg/dL,0.1,1.2,0.44,0.44,mg/dL,0.1,1.2,NORMAL,,SCREENING,1,2025-03-06,-14
STUDY001,LB,STUDY001-SUBJ0006,9,L00009,ALP,Alkaline Phosphatase,CHEMISTRY,75.88,U/L,44.0,147.0,75.88,75.88,U/L,44.0,147.0,NORMAL,,SCREENING,1,2025-03-06,-14
STUDY001,LB,STUDY001-SUBJ0006,10,L00010,ALT,Alanine Aminotransferase,CHEMISTRY,28.79,U/L,7.0,56.0,28.79,28.79,U/L,7.0,56.0,NORMAL,,SCREENING,1,2025-03-06,-14
STUDY001,LB,STUDY001-SUBJ0006,11,L00011,HGB,Hemoglobin,HEMATOLOGY,16.37,g/dL,13.5,17.5,16.37,16.37,g/dL,13.5,17.5,NORMAL,Y,BASELINE,2,2025-03-20,1
STUDY001,LB,STUDY001-SUBJ0006,12,L00012,HCT,Hematocrit,HEMATOLOGY,43.15,%,41.0,51.0,43.15,43.15,%,41.0,51.0,NORMAL,Y,BASELINE,2,2025-03-20,1
STUDY001,LB,STUDY001-SUBJ0006,13,L00013,WBC,White Blood Cell Count,HEMATOLOGY,4.69,10^9/L,4.5,11.0,4.69,4.69,10^9/L,4.5,11.0,NORMAL,Y,BASELINE,2,2025-03-20,1
STUDY001,LB,STUDY001-SUBJ0006,14,L00014,PLT,Platelet Count,HEMATOLOGY,156.18,10^9/L,150.0,450.0,156.18,156.18,10^9/L,150.0,450.0,NORMAL,Y,BASELINE,2,2025-03-20,1
STUDY001,LB,STUDY001-SUBJ0006,15,L00015,GLUC,Glucose,CHEMISTRY,95.07,mg/dL,70.0,100.0,95.07,95.07,mg/dL,70.0,100.0,NORMAL,Y,BASELINE,2,2025-03-20,1
STUDY001,LB,STUDY001-SUBJ0006,16,L00016,BUN,Blood Urea Nitrogen,CHEMISTRY,12.7,mg/dL,7.0,20.0,12.7,12.7,mg/dL,7.0,20.0,NORMAL,Y,BASELINE,2,2025-03-20,1
STUDY001,LB,STUDY001-SUBJ0006,17,L00017,CREAT,Creatinine,CHEMISTRY,0.87,mg/dL,0.6,1.2,0.87,0.87,mg/dL,0.6,1.2,NORMAL,Y,BASELINE,2,2025-03-20,1
STUDY001,LB,STUDY001-SUBJ0006,18,L00018,BILI,Total Bilirubin,CHEMISTRY,0.42,mg/dL,0.1,1.2,0.42,0.42,mg/dL,0.1,1.2,NORMAL,Y,BASELINE,2,2025-03-20,1
STUDY001,LB,STUDY001-SUBJ0006,19,L00019,ALP,Alkaline Phosphatase,CHEMISTRY,77.06,U/L,44.0,147.0,77.06,77.06,U/L,44.0,147.0,NORMAL,Y,BASELINE,2,2025-03-20,1
STUDY001,LB,STUDY001-SUBJ0006,20,L00020,ALT,Alanine Aminotransferase,CHEMISTRY,29.32,U/L,7.0,56.0,29.32,29.32,U/L,7.0,56.0,NORMAL,Y,BASELINE,2,2025-03-20,1
STUDY001,LB,STUDY001-SUBJ0006,21,L00021,HGB,Hemoglobin,HEMATOLOGY,16.44,g/dL,13.5,17.5,16.44,16.44,g/dL,13.5,17.5,NORMAL,,WEEK 1,3,2025-03-26,7
STUDY001,LB,STUDY001-SUBJ0006,22,L00022,HCT,Hematocrit,HEMATOLOGY,43.34,%,41.0,51.0,43.34,43.34,%,41.0,51.0,NORMAL,,WEEK 1,3,2025-03-26,7
STUDY001,LB,STUDY001-SUBJ0006,23,L00023,WBC,White Blood Cell Count,HEMATOLOGY,4.92,10^9/L,4.5,11.0,4.92,4.92,10^9/L,4.5,11.0,NORMAL,,WEEK 1,3,2025-03-26,7
STUDY001,LB,STUDY001-SUBJ0006,24,L00024,PLT,Platelet Count,HEMATOLOGY,160.47,10^9/L,150.0,450.0,160.47,160.47,10^9/L,150.0,450.0,NORMAL,,WEEK 1,3,2025-03-26,7
STUDY001,LB,STUDY001-SUBJ0006,25,L00025,GLUC,Glucose,CHEMISTRY,95.47,mg/dL,70.0,100.0,95.47,95.47,mg/dL,70.0,100.0,NORMAL,,WEEK 1,3,2025-03-26,7
STUDY001,LB,STUDY001-SUBJ0006,26,L00026,BUN,Blood Urea Nitrogen,CHEMISTRY,12.97,mg/dL,7.0,20.0,12.97,12.97,mg/dL,7.0,20.0,NORMAL,,WEEK 1,3,2025-03-26,7
STUDY001,LB,STUDY001-SUBJ0006,27,L00027,CREAT,Creatinine,CHEMISTRY,0.86,mg/dL,0.6,1.2,0.86,0.86,mg/dL,0.6,1.2,NORMAL,,WEEK 1,3,2025-03-26,7
STUDY001,LB,STUDY001-SUBJ0006,28,L00028,BILI,Total Bilirubin,CHEMISTRY,0.41,mg/dL,0.1,1.2,0.41,0.41,mg/dL,0.1,1.2,NORMAL,,WEEK 1,3,2025-03-26,7
STUDY001,LB,STUDY001-SUBJ0006,29,L00029,ALP,Alkaline Phosphatase,CHEMISTRY,75.96,U/L,44.0,147.0,75.96,75.96,U/L,44.0,147.0,NORMAL,,WEEK 1,3,2025-03-26,7
STUDY001,LB,STUDY001-SUBJ0006,30,L00030,ALT,Alanine Aminotransferase,CHEMISTRY,28.24,U/L,7.0,56.0,28.24,28.24,U/L,7.0,56.0,NORMAL,,WEEK 1,3,2025-03-26,7
STUDY001,LB,STUDY001-SUBJ0006,31,L00031,HGB,Hemoglobin,HEMATOLOGY,16.4,g/dL,13.5,17.5,16.4,16.4,g/dL,13.5,17.5,NORMAL,,WEEK 2,4,2025-04-02,14
STUDY001,LB,STUDY001-SUBJ0006,32,L00032,HCT,Hematocrit,HEMATOLOGY,43.21,%,41.0,51.0,43.21,43.21,%,41.0,51.0,NORMAL,,WEEK 2,4,2025-04-02,14
STUDY001,LB,STUDY001-SUBJ0006,33,L00033,WBC,White Blood Cell Count,HEMATOLOGY,4.92,10^9/L,4.5,11.0,4.92,4.92,10^9/L,4.5,11.0,NORMAL,,WEEK 2,4,2025-04-02,14
STUDY001,LB,STUDY001-SUBJ0006,34,L00034,PLT,Platelet Count,HEMATOLOGY,149.89,10^9/L,150.0,450.0,149.89,149.89,10^9/L,150.0,450.0,LOW,,WEEK 2,4,2025-04-02,14
STUDY001,LB,STUDY001-SUBJ0006,35,L00035,GLUC,Glucose,CHEMISTRY,95.49,mg/dL,70.0,100.0,95.49,95.49,mg/dL,70.0,100.0,NORMAL,,WEEK 2,4,2025-04-02,14
STUDY001,LB,STUDY001-SUBJ0006,36,L00036,BUN,Blood Urea Nitrogen,CHEMISTRY,12.32,mg/dL,7.0,20.0,12.32,12.32,mg/dL,7.0,20.0,NORMAL,,WEEK 2,4,2025-04-02,14
STUDY001,LB,STUDY001-SUBJ0006,37,L00037,CREAT,Creatinine,CHEMISTRY,0.89,mg/dL,0.6,1.2,0.89,0.89,mg/dL,0.6,1.2,NORMAL,,WEEK 2,4,2025-04-02,14
STUDY001,LB,STUDY001-SUBJ0006,38,L00038,BILI,Total Bilirubin,CHEMISTRY,0.44,mg/dL,0.1,1.2,0.44,0.44,mg/dL,0.1,1.2,NORMAL,,WEEK 2,4,2025-04-02,14
STUDY001,LB,STUDY001-SUBJ0006,39,L00039,ALP,Alkaline Phosphatase,CHEMISTRY,72.95,U/L,44.0,147.0,72.95,72.95,U/L,44.0,147.0,NORMAL,,WEEK 2,4,2025-04-02,14
STUDY001,LB,STUDY001-SUBJ0006,40,L00040,ALT,Alanine Aminotransferase,CHEMISTRY,28.14,U/L,7.0,56.0,28.14,28.14,U/L,7.0,56.0,NORMAL,,WEEK 2,4,2025-04-02,14
STUDY001,LB,STUDY001-SUBJ0006,41,L00041,HGB,Hemoglobin,HEMATOLOGY,16.47,g/dL,13.5,17.5,16.47,16.47,g/dL,13.5,17.5,NORMAL,,WEEK 4,5,2025-04-16,28
STUDY001,LB,STUDY001-SUBJ0006,42,L00042,HCT,Hematocrit,HEMATOLOGY,43.2,%,41.0,51.0,43.2,43.2,%,41.0,51.0,NORMAL,,WEEK 4,5,2025-04-16,28
STUDY001,LB,STUDY001-SUBJ0006,43,L00043,WBC,White Blood Cell Count,HEMATOLOGY,5.19,10^9/L,4.5,11.0,5.19,5.19,10^9/L,4.5,11.0,NORMAL,,WEEK 4,5,2025-04-16,28
STUDY001,LB,STUDY001-SUBJ0006,44,L00044,PLT,Platelet Count,HEMATOLOGY,157.69,10^9/L,150.0,450.0,157.69,157.69,10^9/L,150.0,450.0,NORMAL,,WEEK 4,5,2025-04-16,28
STUDY001,LB,STUDY001-SUBJ0006,45,L00045,GLUC,Glucose,CHEMISTRY,96.54,mg/dL,70.0,100.0,96.54,96.54,mg/dL,70.0,100.0,NORMAL,,WEEK 4,5,2025-04-16,28
STUDY001,LB,STUDY001-SUBJ0006,46,L00046,BUN,Blood Urea Nitrogen,CHEMISTRY,11.99,mg/dL,7.0,20.0,11.99,11.99,mg/dL,7.0,20.0,NORMAL,,WEEK 4,5,2025-04-16,28
STUDY001,LB,STUDY001-SUBJ0006,47,L00047,CREAT,Creatinine,CHEMISTRY,0.89,mg/dL,0.6,1.2,0.89,0.89,mg/dL,0.6,1.2,NORMAL,,WEEK 4,5,2025-04-16,28
STUDY001,LB,STUDY001-SUBJ0006,48,L00048,BILI,Total Bilirubin,CHEMISTRY,0.45,mg/dL,0.1,1.2,0.45,0.45,mg/dL,0.1,1.2,NORMAL,,WEEK 4,5,2025-04-16,28
STUDY001,LB,STUDY001-SUBJ0006,49,L00049,ALP,Alkaline Phosphatase,CHEMISTRY,73.71,U/L,44.0,147.0,73.71,73.71,U/L,44.0,147.0,NORMAL,,WEEK 4,5,2025-04-16,28
STUDY001,LB,STUDY001-SUBJ0006,50,L00050,ALT,Alanine Aminotransferase,CHEMISTRY,28.47,U/L,7.0,56.0,28.47,28.47,U/L,7.0,56.0,NORMAL,,WEEK 4,5,2025-04-16,28
STUDY001,LB,STUDY001-SUBJ0006,51,L00051,HGB,Hemoglobin,HEMATOLOGY,16.36,g/dL,13.5,17.5,16.36,16.36,g/dL,13.5,17.5,NORMAL,,WEEK 8,6,2025-05-14,56
STUDY001,LB,STUDY001-SUBJ0006,52,L00052,HCT,Hematocrit,HEMATOLOGY,42.94,%,41.0,51.0,42.94,42.94,%,41.0,51.0,NORMAL,,WEEK 8,6,2025-05-14,56
STUDY001,LB,STUDY001-SUBJ0006,53,L00053,WBC,White Blood Cell Count,HEMATOLOGY,5.09,10^9/L,4.5,11.0,5.09,5.09,10^9/L,4.5,11.0,NORMAL,,WEEK 8,6,2025-05-14,56
STUDY001,LB,STUDY001-SUBJ0006,54,L00054,PLT,Platelet Count,HEMATOLOGY,156.17,10^9/L,150.0,450.0,156.17,156.17,10^9/L,150.0,450.0,NORMAL,,WEEK 8,6,2025-05-14,56
STUDY001,LB,STUDY001-SUBJ0006,55,L00055,GLUC,Glucose,CHEMISTRY,96.39,mg/dL,70.0,100.0,96.39,96.39,mg/dL,70.0,100.0,NORMAL,,WEEK 8,6,2025-05-14,56
STUDY001,LB,STUDY001-SUBJ0006,56,L00056,BUN,Blood Urea Nitrogen,CHEMISTRY,12.47,mg/dL,7.0,20.0,12.47,12.47,mg/dL,7.0,20.0,NORMAL,,WEEK 8,6,2025-05-14,56
STUDY001,LB,STUDY001-SUBJ0006,57,L00057,CREAT,Creatinine,CHEMISTRY,0.88,mg/dL,0.6,1.2,0.88,0.88,mg/dL,0.6,1.2,NORMAL,,WEEK 8,6,2025-05-14,56
STUDY001,LB,STUDY001-SUBJ0006,58,L00058,BILI,Total Bilirubin,CHEMISTRY,0.47,mg/dL,0.1,1.2,0.47,0.47,mg/dL,0.1,1.2,NORMAL,,WEEK 8,6,2025-05-14,56
STUDY001,LB,STUDY001-SUBJ0006,59,L00059,ALP,Alkaline Phosphatase,CHEMISTRY,70.08,U/L,44.0,147.0,70.08,70.08,U/L,44.0,147.0,NORMAL,,WEEK 8,6,2025-05-14,56
STUDY001,LB,STUDY001-SUBJ0006,60,L00060,ALT,Alanine Aminotransferase,CHEMISTRY,30.24,U/L,7.0,56.0,30.24,30.24,U/L,7.0,56.0,NORMAL,,WEEK 8,6,2025-05-14,56
STUDY001,LB,STUDY001-SUBJ0006,61,L00061,HGB,Hemoglobin,HEMATOLOGY,16.42,g/dL,13.5,17.5,16.42,16.42,g/dL,13.5,17.5,NORMAL,,WEEK 12,7,2025-06-11,84
STUDY001,LB,STUDY001-SUBJ0006,62,L00062,HCT,Hematocrit,HEMATOLOGY,43.15,%,41.0,51.0,43.15,43.15,%,41.0,51.0,NORMAL,,WEEK 12,7,2025-06-11,84
STUDY001,LB,STUDY001-SUBJ0006,63,L00063,WBC,White Blood Cell Count,HEMATOLOGY,4.88,10^9/L,4.5,11.0,4.88,4.88,10^9/L,4.5,11.0,NORMAL,,WEEK 12,7,2025-06-11,84
STUDY001,LB,STUDY001-SUBJ0006,64,L00064,PLT,Platelet Count,HEMATOLOGY,166.85,10^9/L,150.0,450.0,166.85,166.85,10^9/L,150.0,450.0,NORMAL,,WEEK 12,7,2025-06-11,84
STUDY001,LB,STUDY001-SUBJ0006,65,L00065,GLUC,Glucose,CHEMISTRY,96.22,mg/dL,70.0,100.0,96.22,96.22,mg/dL,70.0,100.0,NORMAL,,WEEK 12,7,2025-06-11,84
STUDY001,LB,STUDY001-SUBJ0006,66,L00066,BUN,Blood Urea Nitrogen,CHEMISTRY,12.24,mg/dL,7.0,20.0,12.24,12.24,mg/dL,7.0,20.0,NORMAL,,WEEK 12,7,2025-06-11,84
STUDY001,LB,STUDY001-SUBJ0006,67,L00067,CREAT,Creatinine,CHEMISTRY,0.89,mg/dL,0.6,1.2,0.89,0.89,mg/dL,0.6,1.2,NORMAL,,WEEK 12,7,2025-06-11,84
STUDY001,LB,STUDY001-SUBJ0006,68,L00068,BILI,Total Bilirubin,CHEMISTRY,0.41,mg/dL,0.1,1.2,0.41,0.41,mg/dL,0.1,1.2,NORMAL,,WEEK 12,7,2025-06-11,84
STUDY001,LB,STUDY001-SUBJ0006,69,L00069,ALP,Alkaline Phosphatase,CHEMISTRY,75.91,U/L,44.0,147.0,75.91,75.91,U/L,44.0,147.0,NORMAL,,WEEK 12,7,2025-06-11,84
STUDY001,LB,STUDY001-SUBJ0006,70,L00070,ALT,Alanine Aminotransferase,CHEMISTRY,28.71,U/L,7.0,56.0,28.71,28.71,U/L,7.0,56.0,NORMAL,,WEEK 12,7,2025-06-11,84
STUDY001,LB,STUDY001-SUBJ0006,71,L00071,HGB,Hemoglobin,HEMATOLOGY,16.52,g/dL,13.5,17.5,16.52,16.52,g/dL,13.5,17.5,NORMAL,,WEEK 16,8,2025-07-09,112
STUDY001,LB,STUDY001-SUBJ0006,72,L00072,HCT,Hematocrit,HEMATOLOGY,43.51,%,41.0,51.0,43.51,43.51,%,41.0,51.0,NORMAL,,WEEK 16,8,2025-07-09,112
STUDY001,LB,STUDY001-SUBJ0006,73,L00073,WBC,White Blood Cell Count,HEMATOLOGY,4.82,10^9/L,4.5,11.0,4.82,4.82,10^9/L,4.5,11.0,NORMAL,,WEEK 16,8,2025-07-09,112
STUDY001,LB,STUDY001-SUBJ0006,74,L00074,PLT,Platelet Count,HEMATOLOGY,157.3,10^9/L,150.0,450.0,157.3,157.3,10^9/L,150.0,450.0,NORMAL,,WEEK 16,8,2025-07-09,112
STUDY001,LB,STUDY001-SUBJ0006,75,L00075,GLUC,Glucose,CHEMISTRY,97.0,mg/dL,70.0,100.0,97.0,97.0,mg/dL,70.0,100.0,NORMAL,,WEEK 16,8,2025-07-09,112
STUDY001,LB,STUDY001-SUBJ0006,76,L00076,BUN,Blood Urea Nitrogen,CHEMISTRY,12.55,mg/dL,7.0,20.0,12.55,12.55,mg/dL,7.0,20.0,NORMAL,,WEEK 16,8,2025-07-09,112
STUDY001,LB,STUDY001-SUBJ0006,77,L00077,CREAT,Creatinine,CHEMISTRY,0.89,mg/dL,0.6,1.2,0.89,0.89,mg/dL,0.6,1.2,NORMAL,,WEEK 16,8,2025-07-09,112
STUDY001,LB,STUDY001-SUBJ0006,78,L00078,BILI,Total Bilirubin,CHEMISTRY,0.44,mg/dL,0.1,1.2,0.44,0.44,mg/dL,0.1,1.2,NORMAL,,WEEK 16,8,2025-07-09,112
STUDY001,LB,STUDY001-SUBJ0006,79,L00079,ALP,Alkaline Phosphatase,CHEMISTRY,77.67,U/L,44.0,147.0,77.67,77.67,U/L,44.0,147.0,NORMAL,,WEEK 16,8,2025-07-09,112
STUDY001,LB,STUDY001-SUBJ0006,80,L00080,ALT,Alanine Aminotransferase,CHEMISTRY,29.01,U/L,7.0,56.0,29.01,29.01,U/L,7.0,56.0,NORMAL,,WEEK 16,8,2025-07-09,112
STUDY001,LB,STUDY001-SUBJ0006,81,L00081,HGB,Hemoglobin,HEMATOLOGY,16.28,g/dL,13.5,17.5,16.28,16.28,g/dL,13.5,17.5,NORMAL,,END OF TREATMENT,9,2025-08-06,140
STUDY001,LB,STUDY001-SUBJ0006,82,L00082,HCT,Hematocrit,HEMATOLOGY,42.86,%,41.0,51.0,42.86,42.86,%,41.0,51.0,NORMAL,,END OF TREATMENT,9,2025-08-06,140
STUDY001,LB,STUDY001-SUBJ0006,83,L00083,WBC,White Blood Cell Count,HEMATOLOGY,4.98,10^9/L,4.5,11.0,4.98,4.98,10^9/L,4.5,11.0,NORMAL,,END OF TREATMENT,9,2025-08-06,140
STUDY001,LB,STUDY001-SUBJ0006,84,L00084,PLT,Platelet Count,HEMATOLOGY,151.99,10^9/L,150.0,450.0,151.99,151.99,10^9/L,150.0,450.0,NORMAL,,END OF TREATMENT,9,2025-08-06,140
STUDY001,LB,STUDY001-SUBJ0006,85,L00085,GLUC,Glucose,CHEMISTRY,96.89,mg/dL,70.0,100.0,96.89,96.89,mg/dL,70.0,100.0,NORMAL,,END OF TREATMENT,9,2025-08-06,140
STUDY001,LB,STUDY001-SUBJ0006,86,L00086,BUN,Blood Urea Nitrogen,CHEMISTRY,12.54,mg/dL,7.0,20.0,12.54,12.54,mg/dL,7.0,20.0,NORMAL,,END OF TREATMENT,9,2025-08-06,140
STUDY001,LB,STUDY001-SUBJ0006,87,L00087,CREAT,Creatinine,CHEMISTRY,0.86,mg/dL,0.6,1.2,0.86,0.86,mg/dL,0.6,1.2,NORMAL,,END OF TREATMENT,9,2025-08-06,140
STUDY001,LB,STUDY001-SUBJ0006,88,L00088,BILI,Total Bilirubin,CHEMISTRY,0.44,mg/dL,0.1,1.2,0.44,0.44,mg/dL,0.1,1.2,NORMAL,,END OF TREATMENT,9,2025-08-06,140
STUDY001,LB,STUDY001-SUBJ0006,89,L00089,ALP,Alkaline Phosphatase,CHEMISTRY,76.73,U/L,44.0,147.0,76.73,76.73,U/L,44.0,147.0,NORMAL,,END OF TREATMENT,9,2025-08-06,140
STUDY001,LB,STUDY001-SUBJ0006,90,L00090,ALT,Alanine Aminotransferase,CHEMISTRY,29.63,U/L,7.0,56.0,29.63,29.63,U/L,7.0,56.0,NORMAL,,END OF TREATMENT,9,2025-08-06,140
STUDY001,LB,STUDY001-SUBJ0007,1,L00001,HGB,Hemoglobin,HEMATOLOGY,14.45,g/dL,13.5,17.5,14.45,14.45,g/dL,13.5,17.5,NORMAL,,SCREENING,1,2024-10-27,-14
STUDY001,LB,STUDY001-SUBJ0007,2,L00002,HCT,Hematocrit,HEMATOLOGY,48.08,%,41.0,51.0,48.08,48.08,%,41.0,51.0,NORMAL,,SCREENING,1,2024-10-27,-14
STUDY001,LB,STUDY001-SUBJ0007,3,L00003,WBC,White Blood Cell Count,HEMATOLOGY,4.72,10^9/L,4.5,11.0,4.72,4.72,10^9/L,4.5,11.0,NORMAL,,SCREENING,1,2024-10-27,-14
STUDY001,LB,STUDY001-SUBJ0007,4,L00004,PLT,Platelet Count,HEMATOLOGY,367.51,10^9/L,150.0,450.0,367.51,367.51,10^9/L,150.0,450.0,NORMAL,,SCREENING,1,2024-10-27,-14
STUDY001,LB,STUDY001-SUBJ0007,5,L00005,GLUC,Glucose,CHEMISTRY,95.49,mg/dL,70.0,100.0,95.49,95.49,mg/dL,70.0,100.0,NORMAL,,SCREENING,1,2024-10-27,-14
STUDY001,LB,STUDY001-SUBJ0007,6,L00006,BUN,Blood Urea Nitrogen,CHEMISTRY,12.94,mg/dL,7.0,20.0,12.94,12.94,mg/dL,7.0,20.0,NORMAL,,SCREENING,1,2024-10-27,-14
STUDY001,LB,STUDY001-SUBJ0007,7,L00007,CREAT,Creatinine,CHEMISTRY,1.15,mg/dL,0.6,1.2,1.15,1.15,mg/dL,0.6,1.2,NORMAL,,SCREENING,1,2024-10-27,-14
STUDY001,LB,STUDY001-SUBJ0007,8,L00008,BILI,Total Bilirubin,CHEMISTRY,0.69,mg/dL,0.1,1.2,0.69,0.69,mg/dL,0.1,1.2,NORMAL,,SCREENING,1,2024-10-27,-14
STUDY001,LB,STUDY001-SUBJ0007,9,L00009,ALP,Alkaline Phosphatase,CHEMISTRY,97.17,U/L,44.0,147.0,97.17,97.17,U/L,44.0,147.0,NORMAL,,SCREENING,1,2024-10-27,-14
STUDY001,LB,STUDY001-SUBJ0007,10,L00010,ALT,Alanine Aminotransferase,CHEMISTRY,38.74,U/L,7.0,56.0,38.74,38.74,U/L,7.0,56.0,NORMAL,,SCREENING,1,2024-10-27,-14
STUDY001,LB,STUDY001-SUBJ0007,11,L00011,HGB,Hemoglobin,HEMATOLOGY,14.39,g/dL,13.5,17.5,14.39,14.39,g/dL,13.5,17.5,NORMAL,Y,BASELINE,2,2024-11-10,1
STUDY001,LB,STUDY001-SUBJ0007,12,L00012,HCT,Hematocrit,HEMATOLOGY,48.51,%,41.0,51.0,48.51,48.51,%,41.0,51.0,NORMAL,Y,BASELINE,2,2024-11-10,1
STUDY001,LB,STUDY001-SUBJ0007,13,L00013,WBC,White Blood Cell Count,HEMATOLOGY,5.09,10^9/L,4.5,11.0,5.09,5.09,10^9/L,4.5,11.0,NORMAL,Y,BASELINE,2,2024-11-10,1
STUDY001,LB,STUDY001-SUBJ0007,14,L00014,PLT,Platelet Count,HEMATOLOGY,373.98,10^9/L,150.0,450.0,373.98,373.98,10^9/L,150.0,450.0,NORMAL,Y,BASELINE,2,2024-11-10,1
STUDY001,LB,STUDY001-SUBJ0007,15,L00015,GLUC,Glucose,CHEMISTRY,95.78,mg/dL,70.0,100.0,95.78,95.78,mg/dL,70.0,100.0,NORMAL,Y,BASELINE,2,2024-11-10,1
STUDY001,LB,STUDY001-SUBJ0007,16,L00016,BUN,Blood Urea Nitrogen,CHEMISTRY,12.81,mg/dL,7.0,20.0,12.81,12.81,mg/dL,7.0,20.0,NORMAL,Y,BASELINE,2,2024-11-10,1
STUDY001,LB,STUDY001-SUBJ0007,17,L00017,CREAT,Creatinine,CHEMISTRY,1.18,mg/dL,0.6,1.2,1.18,1.18,mg/dL,0.6,1.2,NORMAL,Y,BASELINE,2,2024-11-10,1
STUDY001,LB,STUDY001-SUBJ0007,18,L00018,BILI,Total Bilirubin,CHEMISTRY,0.7,mg/dL,0.1,1.2,0.7,0.7,mg/dL,0.1,1.2,NORMAL,Y,BASELINE,2,2024-11-10,1
STUDY001,LB,STUDY001-SUBJ0007,19,L00019,ALP,Alkaline Phosphatase,CHEMISTRY,97.95,U/L,44.0,147.0,97.95,97.95,U/L,44.0,147.0,NORMAL,Y,BASELINE,2,2024-11-10,1
STUDY001,LB,STUDY001-SUBJ0007,20,L00020,ALT,Alanine Aminotransferase,CHEMISTRY,38.27,U/L,7.0,56.0,38.27,38.27,U/L,7.0,56.0,NORMAL,Y,BASELINE,2,2024-11-10,1
STUDY001,LB,STUDY001-SUBJ0007,21,L00021,HGB,Hemoglobin,HEMATOLOGY,14.46,g/dL,13.5,17.5,14.46,14.46,g/dL,13.5,17.5,NORMAL,,WEEK 1,3,2024-11-16,7
STUDY001,LB,STUDY001-SUBJ0007,22,L00022,HCT,Hematocrit,HEMATOLOGY,48.61,%,41.0,51.0,48.61,48.61,%,41.0,51.0,NORMAL,,WEEK 1,3,2024-11-16,7
STUDY001,LB,STUDY001-SUBJ0007,23,L00023,WBC,White Blood Cell Count,HEMATOLOGY,4.7,10^9/L,4.5,11.0,4.7,4.7,10^9/L,4.5,11.0,NORMAL,,WEEK 1,3,2024-11-16,7
STUDY001,LB,STUDY001-SUBJ0007,24,L00024,PLT,Platelet Count,HEMATOLOGY,367.1,10^9/L,150.0,450.0,367.1,367.1,10^9/L,150.0,450.0,NORMAL,,WEEK 1,3,2024-11-16,7
STUDY001,LB,STUDY001-SUBJ0007,25,L00025,GLUC,Glucose,CHEMISTRY,95.39,mg/dL,70.0,100.0,95.39,95.39,mg/dL,70.0,100.0,NORMAL,,WEEK 1,3,2024-11-16,7
STUDY001,LB,STUDY001-SUBJ0007,26,L00026,BUN,Blood Urea Nitrogen,CHEMISTRY,12.41,mg/dL,7.0,20.0,12.41,12.41,mg/dL,7.0,20.0,NORMAL,,WEEK 1,3,2024-11-16,7
STUDY001,LB,STUDY001-SUBJ0007,27,L00027,CREAT,Creatinine,CHEMISTRY,1.2,mg/dL,0.6,1.2,1.2,1.2,mg/dL,0.6,1.2,NORMAL,,WEEK 1,3,2024-11-16,7
STUDY001,LB,STUDY001-SUBJ0007,28,L00028,BILI,Total Bilirubin,CHEMISTRY,0.68,mg/dL,0.1,1.2,0.68,0.68,mg/dL,0.1,1.2,NORMAL,,WEEK 1,3,2024-11-16,7
STUDY001,LB,STUDY001-SUBJ0007,29,L00029,ALP,Alkaline Phosphatase,CHEMISTRY,98.15,U/L,44.0,147.0,98.15,98.15,U/L,44.0,147.0,NORMAL,,WEEK 1,3,2024-11-16,7
STUDY001,LB,STUDY001-SUBJ0007,30,L00030,ALT,Alanine Aminotransferase,CHEMISTRY,36.91,U/L,7.0,56.0,36.91,36.91,U/L,7.0,56.0,NORMAL,,WEEK 1,3,2024-11-16,7
STUDY001,LB,STUDY001-SUBJ0007,31,L00031,HGB,Hemoglobin,HEMATOLOGY,14.53,g/dL,13.5,17.5,14.53,14.53,g/dL,13.5,17.5,NORMAL,,WEEK 2,4,2024-11-23,14
STUDY001,LB,STUDY001-SUBJ0007,32,L00032,HCT,Hematocrit,HEMATOLOGY,48.42,%,41.0,51.0,48.42,48.42,%,41.0,51.0,NORMAL,,WEEK 2,4,2024-11-23,14
STUDY001,LB,STUDY001-SUBJ0007,33,L00033,WBC,White Blood Cell Count,HEMATOLOGY,4.97,10^9/L,4.5,11.0,4.97,4.97,10^9/L,4.5,11.0,NORMAL,,WEEK 2,4,2024-11-23,14
STUDY001,LB,STUDY001-SUBJ0007,34,L00034,PLT,Platelet Count,HEMATOLOGY,373.03,10^9/L,150.0,450.0,373.03,373.03,10^9/L,150.0,450.0,NORMAL,,WEEK 2,4,2024-11-23,14
STUDY001,LB,STUDY001-SUBJ0007,35,L00035,GLUC,Glucose,CHEMISTRY,96.17,mg/dL,70.0,100.0,96.17,96.17,mg/dL,70.0,100.0,NORMAL,,WEEK 2,4,2024-11-23,14
STUDY001,LB,STUDY001-SUBJ0007,36,L00036,BUN,Blood Urea Nitrogen,CHEMISTRY,13.15,mg/dL,7.0,20.0,13.15,13.15,mg/dL,7.0,20.0,NORMAL,,WEEK 2,4,2024-11-23,14
STUDY001,LB,STUDY001-SUBJ0007,37,L00037,CREAT,Creatinine,CHEMISTRY,1.18,mg/dL,0.6,1.2,1.18,1.18,mg/dL,0.6,1.2,NORMAL,,WEEK 2,4,2024-11-23,14
STUDY001,LB,STUDY001-SUBJ0007,38,L00038,BILI,Total Bilirubin,CHEMISTRY,0.69,mg/dL,0.1,1.2,0.69,0.69,mg/dL,0.1,1.2,NORMAL,,WEEK 2,4,2024-11-23,14
STUDY001,LB,STUDY001-SUBJ0007,39,L00039,ALP,Alkaline Phosphatase,CHEMISTRY,98.89,U/L,44.0,147.0,98.89,98.89,U/L,44.0,147.0,NORMAL,,WEEK 2,4,2024-11-23,14
STUDY001,LB,STUDY001-SUBJ0007,40,L00040,ALT,Alanine Aminotransferase,CHEMISTRY,37.87,U/L,7.0,56.0,37.87,37.87,U/L,7.0,56.0,NORMAL,,WEEK 2,4,2024-11-23,14
STUDY001,LB,STUDY001-SUBJ0007,41,L00041,HGB,Hemoglobin,HEMATOLOGY,14.37,g/dL,13.5,17.5,14.37,14.37,g/dL,13.5,17.5,NORMAL,,WEEK 4,5,2024-12-07,28
STUDY001,LB,STUDY001-SUBJ0007,42,L00042,HCT,Hematocrit,HEMATOLOGY,48.32,%,41.0,51.0,48.32,48.32,%,41.0,51.0,NORMAL,,WEEK 4,5,2024-12-07,28
STUDY001,LB,STUDY001-SUBJ0007,43,L00043,WBC,White Blood Cell Count,HEMATOLOGY,4.94,10^9/L,4.5,11.0,4.94,4.94,10^9/L,4.5,11.0,NORMAL,,WEEK 4,5,2024-12-07,28
STUDY001,LB,STUDY001-SUBJ0007,44,L00044,PLT,Platelet Count,HEMATOLOGY,372.6,10^9/L,150.0,450.0,372.6,372.6,10^9/L,150.0,450.0,NORMAL,,WEEK 4,5,2024-12-07,28
STUDY001,LB,STUDY001-SUBJ0007,45,L00045,GLUC,Glucose,CHEMISTRY,94.08,mg/dL,70.0,100.0,94.08,94.08,mg/dL,70.0,100.0,NORMAL,,WEEK 4,5,2024-12-07,28
STUDY001,LB,STUDY001-SUBJ0007,46,L00046,BUN,Blood Urea Nitrogen,CHEMISTRY,13.15,mg/dL,7.0,20.0,13.15,13.15,mg/dL,7.0,20.0,NORMAL,,WEEK 4,5,2024-12-07,28
STUDY001,LB,STUDY001-SUBJ0007,47,L00047,CREAT,Creatinine,CHEMISTRY,1.18,mg/dL,0.6,1.2,1.18,1.18,mg/dL,0.6,1.2,NORMAL,,WEEK 4,5,2024-12-07,28
STUDY001,LB,STUDY001-SUBJ0007,48,L00048,BILI,Total Bilirubin,CHEMISTRY,0.71,mg/dL,0.1,1.2,0.71,0.71,mg/dL,0.1,1.2,NORMAL,,WEEK 4,5,2024-12-07,28
STUDY001,LB,STUDY001-SUBJ0007,49,L00049,ALP,Alkaline Phosphatase,CHEMISTRY,99.91,U/L,44.0,147.0,99.91,99.91,U/L,44.0,147.0,NORMAL,,WEEK 4,5,2024-12-07,28
STUDY001,LB,STUDY001-SUBJ0007,50,L00050,ALT,Alanine Aminotransferase,CHEMISTRY,37.93,U/L,7.0,56.0,37.93,37.93,U/L,7.0,56.0,NORMAL,,WEEK 4,5,2024-12-07,28
STUDY001,LB,STUDY001-SUBJ0007,51,L00051,HGB,Hemoglobin,HEMATOLOGY,14.34,g/dL,13.5,17.5,14.34,14.34,g/dL,13.5,17.5,NORMAL,,WEEK 8,6,2025-01-04,56
STUDY001,LB,STUDY001-SUBJ0007,52,L00052,HCT,Hematocrit,HEMATOLOGY,48.5,%,41.0,51.0,48.5,48.5,%,41.0,51.0,NORMAL,,WEEK 8,6,2025-01-04,56
STUDY001,LB,STUDY001-SUBJ0007,53,L00053,WBC,White Blood Cell Count,HEMATOLOGY,4.78,10^9/L,4.5,11.0,4.78,4.78,10^9/L,4.5,11.0,NORMAL,,WEEK 8,6,2025-01-04,56
STUDY001,LB,STUDY001-SUBJ0007,54,L00054,PLT,Platelet Count,HEMATOLOGY,373.4,10^9/L,150.0,450.0,373.4,373.4,10^9/L,150.0,450.0,NORMAL,,WEEK 8,6,2025-01-04,56
STUDY001,LB,STUDY001-SUBJ0007,55,L00055,GLUC,Glucose,CHEMISTRY,94.67,mg/dL,70.0,100.0,94.67,94.67,mg/dL,70.0,100.0,NORMAL,,WEEK 8,6,2025-01-04,56
STUDY001,LB,STUDY001-SUBJ0007,56,L00056,BUN,Blood Urea Nitrogen,CHEMISTRY,12.67,mg/dL,7.0,20.0,12.67,12.67,mg/dL,7.0,20.0,NORMAL,,WEEK 8,6,2025-01-04,56
STUDY001,LB,STUDY001-SUBJ0007,57,L00057,CREAT,Creatinine,CHEMISTRY,1.18,mg/dL,0.6,1.2,1.18,1.18,mg/dL,0.6,1.2,NORMAL,,WEEK 8,6,2025-01-04,56
STUDY001,LB,STUDY001-SUBJ0007,58,L00058,BILI,Total Bilirubin,CHEMISTRY,0.67,mg/dL,0.1,1.2,0.67,0.67,mg/dL,0.1,1.2,NORMAL,,WEEK 8,6,2025-01-04,56
STUDY001,LB,STUDY001-SUBJ0007,59,L00059,ALP,Alkaline Phosphatase,CHEMISTRY,98.59,U/L,44.0,147.0,98.59,98.59,U/L,44.0,147.0,NORMAL,,WEEK 8,6,2025-01-04,56
STUDY001,LB,STUDY001-SUBJ0007,60,L00060,ALT,Alanine Aminotransferase,CHEMISTRY,37.65,U/L,7.0,56.0,37.65,37.65,U/L,7.0,56.0,NORMAL,,WEEK 8,6,2025-01-04,56
STUDY001,LB,STUDY001-SUBJ0007,61,L00061,HGB,Hemoglobin,HEMATOLOGY,14.36,g/dL,13.5,17.5,14.36,14.36,g/dL,13.5,17.5,NORMAL,,WEEK 12,7,2025-02-01,84
STUDY001,LB,STUDY001-SUBJ0007,62,L00062,HCT,Hematocrit,HEMATOLOGY,48.24,%,41.0,51.0,48.24,48.24,%,41.0,51.0,NORMAL,,WEEK 12,7,2025-02-01,84
STUDY001,LB,STUDY001-SUBJ0007,63,L00063,WBC,White Blood Cell Count,HEMATOLOGY,5.12,10^9/L,4.5,11.0,5.12,5.12,10^9/L,4.5,11.0,NORMAL,,WEEK 12,7,2025-02-01,84
STUDY001,LB,STUDY001-SUBJ0007,64,L00064,PLT,Platelet Count,HEMATOLOGY,372.54,10^9/L,150.0,450.0,372.54,372.54,10^9/L,150.0,450.0,NORMAL,,WEEK 12,7,2025-02-01,84
STUDY001,LB,STUDY001-SUBJ0007,65,L00065,GLUC,Glucose,CHEMISTRY,96.46,mg/dL,70.0,100.0,96.46,96.46,mg/dL,70.0,100.0,NORMAL,,WEEK 12,7,2025-02-01,84
STUDY001,LB,STUDY001-SUBJ0007,66,L00066,BUN,Blood Urea Nitrogen,CHEMISTRY,12.76,mg/dL,7.0,20.0,12.76,12.76,mg/dL,7.0,20.0,NORMAL,,WEEK 12,7,2025-02-01,84
STUDY001,LB,STUDY001-SUBJ0007,67,L00067,CREAT,Creatinine,CHEMISTRY,1.16,mg/dL,0.6,1.2,1.16,1.16,mg/dL,0.6,1.2,NORMAL,,WEEK 12,7,2025-02-01,84
STUDY001,LB,STUDY001-SUBJ0007,68,L00068,BILI,Total Bilirubin,CHEMISTRY,0.69,mg/dL,0.1,1.2,0.69,0.69,mg/dL,0.1,1.2,NORMAL,,WEEK 12,7,2025-02-01,84
STUDY001,LB,STUDY001-SUBJ0007,69,L00069,ALP,Alkaline Phosphatase,CHEMISTRY,94.35,U/L,44.0,147.0,94.35,94.35,U/L,44.0,147.0,NORMAL,,WEEK 12,7,2025-02-01,84
STUDY001,LB,STUDY001-SUBJ0007,70,L00070,ALT,Alanine Aminotransferase,CHEMISTRY,36.58,U/L,7.0,56.0,36.58,36.58,U/L,7.0,56.0,NORMAL,,WEEK 12,7,2025-02-01,84
STUDY001,LB,STUDY001-SUBJ0007,71,L00071,HGB,Hemoglobin,HEMATOLOGY,14.23,g/dL,13.5,17.5,14.23,14.23,g/dL,13.5,17.5,NORMAL,,WEEK 16,8,2025-03-01,112
STUDY001,LB,STUDY001-SUBJ0007,72,L00072,HCT,Hematocrit,HEMATOLOGY,47.95,%,41.0,51.0,47.95,47.95,%,41.0,51.0,NORMAL,,WEEK 16,8,2025-03-01,112
STUDY001,LB,STUDY001-SUBJ0007,73,L00073,WBC,White Blood Cell Count,HEMATOLOGY,4.7,10^9/L,4.5,11.0,4.7,4.7,10^9/L,4.5,11.0,NORMAL,,WEEK 16,8,2025-03-01,112
STUDY001,LB,STUDY001-SUBJ0007,74,L00074,PLT,Platelet Count,HEMATOLOGY,362.22,10^9/L,150.0,450.0,362.22,362.22,10^9/L,150.0,450.0,NORMAL,,WEEK 16,8,2025-03-01,112
STUDY001,LB,STUDY001-SUBJ0007,75,L00075,GLUC,Glucose,CHEMISTRY,94.09,mg/dL,70.0,100.0,94.09,94.09,mg/dL,70.0,100.0,NORMAL,,WEEK 16,8,2025-03-01,112
STUDY001,LB,STUDY001-SUBJ0007,76,L00076,BUN,Blood Urea Nitrogen,CHEMISTRY,12.21,mg/dL,7.0,20.0,12.21,12.21,mg/dL,7.0,20.0,NORMAL,,WEEK 16,8,2025-03-01,112
STUDY001,LB,STUDY001-SUBJ0007,77,L00077,CREAT,Creatinine,CHEMISTRY,1.2,mg/dL,0.6,1.2,1.2,1.2,mg/dL,0.6,1.2,NORMAL,,WEEK 16,8,2025-03-01,112
STUDY001,LB,STUDY001-SUBJ0007,78,L00078,BILI,Total Bilirubin,CHEMISTRY,0.71,mg/dL,0.1,1.2,0.71,0.71,mg/dL,0.1,1.2,NORMAL,,WEEK 16,8,2025-03-01,112
STUDY001,LB,STUDY001-SUBJ0007,79,L00079,ALP,Alkaline Phosphatase,CHEMISTRY,100.3,U/L,44.0,147.0,100.3,100.3,U/L,44.0,147.0,NORMAL,,WEEK 16,8,2025-03-01,112
STUDY001,LB,STUDY001-SUBJ0007,80,L00080,ALT,Alanine Aminotransferase,CHEMISTRY,36.24,U/L,7.0,56.0,36.24,36.24,U/L,7.0,56.0,NORMAL,,WEEK 16,8,2025-03-01,112
STUDY001,LB,STUDY001-SUBJ0007,81,L00081,HGB,Hemoglobin,HEMATOLOGY,14.44,g/dL,13.5,17.5,14.44,14.44,g/dL,13.5,17.5,NORMAL,,END OF TREATMENT,9,2025-03-29,140
STUDY001,LB,STUDY001-SUBJ0007,82,L00082,HCT,Hematocrit,HEMATOLOGY,48.19,%,41.0,51.0,48.19,48.19,%,41.0,51.0,NORMAL,,END OF TREATMENT,9,2025-03-29,140
STUDY001,LB,STUDY001-SUBJ0007,83,L00083,WBC,White Blood Cell Count,HEMATOLOGY,4.98,10^9/L,4.5,11.0,4.98,4.98,10^9/L,4.5,11.0,NORMAL,,END OF TREATMENT,9,2025-03-29,140
STUDY001,LB,STUDY001-SUBJ0007,84,L00084,PLT,Platelet Count,HEMATOLOGY,371.8,10^9/L,150.0,450.0,371.8,371.8,10^9/L,150.0,450.0,NORMAL,,END OF TREATMENT,9,2025-03-29,140
STUDY001,LB,STUDY001-SUBJ0007,85,L00085,GLUC,Glucose,CHEMISTRY,96.41,mg/dL,70.0,100.0,96.41,96.41,mg/dL,70.0,100.0,NORMAL,,END OF TREATMENT,9,2025-03-29,140
STUDY001,LB,STUDY001-SUBJ0007,86,L00086,BUN,Blood Urea Nitrogen,CHEMISTRY,12.92,mg/dL,7.0,20.0,12.92,12.92,mg/dL,7.0,20.0,NORMAL,,END OF TREATMENT,9,2025-03-29,140
STUDY001,LB,STUDY001-SUBJ0007,87,L00087,CREAT,Creatinine,CHEMISTRY,1.18,mg/dL,0.6,1.2,1.18,1.18,mg/dL,0.6,1.2,NORMAL,,END OF TREATMENT,9,2025-03-29,140
STUDY001,LB,STUDY001-SUBJ0007,88,L00088,BILI,Total Bilirubin,CHEMISTRY,0.69,mg/dL,0.1,1.2,0.69,0.69,mg/dL,0.1,1.2,NORMAL,,END OF TREATMENT,9,2025-03-29,140
STUDY001,LB,STUDY001-SUBJ0007,89,L00089,ALP,Alkaline Phosphatase,CHEMISTRY,96.77,U/L,44.0,147.0,96.77,96.77,U/L,44.0,147.0,NORMAL,,END OF TREATMENT,9,2025-03-29,140
STUDY001,LB,STUDY001-SUBJ0007,90,L00090,ALT,Alanine Aminotransferase,CHEMISTRY,37.97,U/L,7.0,56.0,37.97,37.97,U/L,7.0,56.0,NORMAL,,END OF TREATMENT,9,2025-03-29,140
STUDY001,LB,STUDY001-SUBJ0008,1,L00001,HGB,Hemoglobin,HEMATOLOGY,14.1,g/dL,13.5,17.5,14.1,14.1,g/dL,13.5,17.5,NORMAL,,SCREENING,1,2024-10-11,-14
STUDY001,LB,STUDY001-SUBJ0008,2,L00002,HCT,Hematocrit,HEMATOLOGY,44.27,%,41.0,51.0,44.27,44.27,%,41.0,51.0,NORMAL,,SCREENING,1,2024-10-11,-14
STUDY001,LB,STUDY001-SUBJ0008,3,L00003,WBC,White Blood Cell Count,HEMATOLOGY,4.66,10^9/L,4.5,11.0,4.66,4.66,10^9/L,4.5,11.0,NORMAL,,SCREENING,1,2024-10-11,-14
STUDY001,LB,STUDY001-SUBJ0008,4,L00004,PLT,Platelet Count,HEMATOLOGY,288.76,10^9/L,150.0,450.0,288.76,288.76,10^9/L,150.0,450.0,NORMAL,,SCREENING,1,2024-10-11,-14
STUDY001,LB,STUDY001-SUBJ0008,5,L00005,GLUC,Glucose,CHEMISTRY,89.12,mg/dL,70.0,100.0,89.12,89.12,mg/dL,70.0,100.0,NORMAL,,SCREENING,1,2024-10-11,-14
STUDY001,LB,STUDY001-SUBJ0008,6,L00006,BUN,Blood Urea Nitrogen,CHEMISTRY,7.67,mg/dL,7.0,20.0,7.67,7.67,mg/dL,7.0,20.0,NORMAL,,SCREENING,1,2024-10-11,-14
STUDY001,LB,STUDY001-SUBJ0008,7,L00007,CREAT,Creatinine,CHEMISTRY,0.94,mg/dL,0.6,1.2,0.94,0.94,mg/dL,0.6,1.2,NORMAL,,SCREENING,1,2024-10-11,-14
STUDY001,LB,STUDY001-SUBJ0008,8,L00008,BILI,Total Bilirubin,CHEMISTRY,0.54,mg/dL,0.1,1.2,0.54,0.54,mg/dL,0.1,1.2,NORMAL,,SCREENING,1,2024-10-11,-14
STUDY001,LB,STUDY001-SUBJ0008,9,L00009,ALP,Alkaline Phosphatase,CHEMISTRY,118.36,U/L,44.0,147.0,118.36,118.36,U/L,44.0,147.0,NORMAL,,SCREENING,1,2024-10-11,-14
STUDY001,LB,STUDY001-SUBJ0008,10,L00010,ALT,Alanine Aminotransferase,CHEMISTRY,38.95,U/L,7.0,56.0,38.95,38.95,U/L,7.0,56.0,NORMAL,,SCREENING,1,2024-10-11,-14
STUDY001,LB,STUDY001-SUBJ0008,11,L00011,HGB,Hemoglobin,HEMATOLOGY,14.21,g/dL,13.5,17.5,14.21,14.21,g/dL,13.5,17.5,NORMAL,Y,BASELINE,2,2024-10-25,1
STUDY001,LB,STUDY001-SUBJ0008,12,L00012,HCT,Hematocrit,HEMATOLOGY,44.4,%,41.0,51.0,44.4,44.4,%,41.0,51.0,NORMAL,Y,BASELINE,2,2024-10-25,1
STUDY001,LB,STUDY001-SUBJ0008,13,L00013,WBC,White Blood Cell Count,HEMATOLOGY,5.07,10^9/L,4.5,11.0,5.07,5.07,10^9/L,4.5,11.0,NORMAL,Y,BASELINE,2,2024-10-25,1
STUDY001,LB,STUDY001-SUBJ0008,14,L00014,PLT,Platelet Count,HEMATOLOGY,295.71,10^9/L,150.0,450.0,295.71,295.71,10^9/L,150.0,450.0,NORMAL,Y,BASELINE,2,2024-10-25,1
STUDY001,LB,STUDY001-SUBJ0008,15,L00015,GLUC,Glucose,CHEMISTRY,89.59,mg/dL,70.0,100.0,89.59,89.59,mg/dL,70.0,100.0,NORMAL,Y,BASELINE,2,2024-10-25,1
STUDY001,LB,STUDY001-SUBJ0008,16,L00016,BUN,Blood Urea Nitrogen,CHEMISTRY,8.77,mg/dL,7.0,20.0,8.77,8.77,mg/dL,7.0,20.0,NORMAL,Y,BASELINE,2,2024-10-25,1
STUDY001,LB,STUDY001-SUBJ0008,17,L00017,CREAT,Creatinine,CHEMISTRY,0.93,mg/dL,0.6,1.2,0.93,0.93,mg/dL,0.6,1.2,NORMAL,Y,BASELINE,2,2024-10-25,1
STUDY001,LB,STUDY001-SUBJ0008,18,L00018,BILI,Total Bilirubin,CHEMISTRY,0.57,mg/dL,0.1,1.2,0.57,0.57,mg/dL,0.1,1.2,NORMAL,Y,BASELINE,2,2024-10-25,1
STUDY001,LB,STUDY001-SUBJ0008,19,L00019,ALP,Alkaline Phosphatase,CHEMISTRY,117.48,U/L,44.0,147.0,117.48,117.48,U/L,44.0,147.0,NORMAL,Y,BASELINE,2,2024-10-25,1
STUDY001,LB,STUDY001-SUBJ0008,20,L00020,ALT,Alanine Aminotransferase,CHEMISTRY,39.51,U/L,7.0,56.0,39.51,39.51,U/L,7.0,56.0,NORMAL,Y,BASELINE,2,2024-10-25,1
STUDY001,LB,STUDY001-SUBJ0008,21,L00021,HGB,Hemoglobin,HEMATOLOGY,14.09,g/dL,13.5,17.5,14.09,14.09,g/dL,13.5,17.5,NORMAL,,WEEK 1,3,2024-10-31,7
STUDY001,LB,STUDY001-SUBJ0008,22,L00022,HCT,Hematocrit,HEMATOLOGY,44.07,%,41.0,51.0,44.07,44.07,%,41.0,51.0,NORMAL,,WEEK 1,3,2024-10-31,7
STUDY001,LB,STUDY001-SUBJ0008,23,L00023,WBC,White Blood Cell Count,HEMATOLOGY,5.08,10^9/L,4.5,11.0,5.08,5.08,10^9/L,4.5,11.0,NORMAL,,WEEK 1,3,2024-10-31,7
STUDY001,LB,STUDY001-SUBJ0008,24,L00024,PLT,Platelet Count,HEMATOLOGY,294.14,10^9/L,150.0,450.0,294.14,294.14,10^9/L,150.0,450.0,NORMAL,,WEEK 1,3,2024-10-31,7
STUDY001,LB,STUDY001-SUBJ0008,25,L00025,GLUC,Glucose,CHEMISTRY,89.1,mg/dL,70.0,100.0,89.1,89.1,mg/dL,70.0,100.0,NORMAL,,WEEK 1,3,2024-10-31,7
STUDY001,LB,STUDY001-SUBJ0008,26,L00026,BUN,Blood Urea Nitrogen,CHEMISTRY,8.57,mg/dL,7.0,20.0,8.57,8.57,mg/dL,7.0,20.0,NORMAL,,WEEK 1,3,2024-10-31,7
STUDY001,LB,STUDY001-SUBJ0008,27,L00027,CREAT,Creatinine,CHEMISTRY,0.96,mg/dL,0.6,1.2,0.96,0.96,mg/dL,0.6,1.2,NORMAL,,WEEK 1,3,2024-10-31,7
STUDY001,LB,STUDY001-SUBJ0008,28,L00028,BILI,Total Bilirubin,CHEMISTRY,0.53,mg/dL,0.1,1.2,0.53,0.53,mg/dL,0.1,1.2,NORMAL,,WEEK 1,3,2024-10-31,7
STUDY001,LB,STUDY001-SUBJ0008,29,L00029,ALP,Alkaline Phosphatase,CHEMISTRY,110.3,U/L,44.0,147.0,110.3,110.3,U/L,44.0,147.0,NORMAL,,WEEK 1,3,2024-10-31,7
STUDY001,LB,STUDY001-SUBJ0008,30,L00030,ALT,Alanine Aminotransferase,CHEMISTRY,40.93,U/L,7.0,56.0,40.93,40.93,U/L,7.0,56.0,NORMAL,,WEEK 1,3,2024-10-31,7
STUDY001,LB,STUDY001-SUBJ0008,31,L00031,HGB,Hemoglobin,HEMATOLOGY,14.38,g/dL,13.5,17.5,14.38,14.38,g/dL,13.5,17.5,NORMAL,,WEEK 2,4,2024-11-07,14
STUDY001,LB,STUDY001-SUBJ0008,32,L00032,HCT,Hematocrit,HEMATOLOGY,43.59,%,41.0,51.0,43.59,43.59,%,41.0,51.0,NORMAL,,WEEK 2,4,2024-11-07,14
STUDY001,LB,STUDY001-SUBJ0008,33,L00033,WBC,White Blood Cell Count,HEMATOLOGY,4.66,10^9/L,4.5,11.0,4.66,4.66,10^9/L,4.5,11.0,NORMAL,,WEEK 2,4,2024-11-07,14
STUDY001,LB,STUDY001-SUBJ0008,34,L00034,PLT,Platelet Count,HEMATOLOGY,295.62,10^9/L,150.0,450.0,295.62,295.62,10^9/L,150.0,450.0,NORMAL,,WEEK 2,4,2024-11-07,14
STUDY001,LB,STUDY001-SUBJ0008,35,L00035,GLUC,Glucose,CHEMISTRY,88.92,mg/dL,70.0,100.0,88.92,88.92,mg/dL,70.0,100.0,NORMAL,,WEEK 2,4,2024-11-07,14
STUDY001,LB,STUDY001-SUBJ0008,36,L00036,BUN,Blood Urea Nitrogen,CHEMISTRY,7.92,mg/dL,7.0,20.0,7.92,7.92,mg/dL,7.0,20.0,NORMAL,,WEEK 2,4,2024-11-07,14
STUDY001,LB,STUDY001-SUBJ0008,37,L00037,CREAT,Creatinine,CHEMISTRY,0.94,mg/dL,0.6,1.2,0.94,0.94,mg/dL,0.6,1.2,NORMAL,,WEEK 2,4,2024-11-07,14
STUDY001,LB,STUDY001-SUBJ0008,38,L00038,BILI,Total Bilirubin,CHEMISTRY,0.56,mg/dL,0.1,1.2,0.56,0.56,mg/dL,0.1,1.2,NORMAL,,WEEK 2,4,2024-11-07,14
STUDY001,LB,STUDY001-SUBJ0008,39,L00039,ALP,Alkaline Phosphatase,CHEMISTRY,116.07,U/L,44.0,147.0,116.07,116.07,U/L,44.0,147.0,NORMAL,,WEEK 2,4,2024-11-07,14
STUDY001,LB,STUDY001-SUBJ0008,40,L00040,ALT,Alanine Aminotransferase,CHEMISTRY,40.63,U/L,7.0,56.0,40.63,40.63,U/L,7.0,56.0,NORMAL,,WEEK 2,4,2024-11-07,14
STUDY001,LB,STUDY001-SUBJ0008,41,L00041,HGB,Hemoglobin,HEMATOLOGY,14.26,g/dL,13.5,17.5,14.26,14.26,g/dL,13.5,17.5,NORMAL,,WEEK 4,5,2024-11-21,28
STUDY001,LB,STUDY001-SUBJ0008,42,L00042,HCT,Hematocrit,HEMATOLOGY,44.02,%,41.0,51.0,44.02,44.02,%,41.0,51.0,NORMAL,,WEEK 4,5,2024-11-21,28
STUDY001,LB,STUDY001-SUBJ0008,43,L00043,WBC,White Blood Cell Count,HEMATOLOGY,4.77,10^9/L,4.5,11.0,4.77,4.77,10^9/L,4.5,11.0,NORMAL,,WEEK 4,5,2024-11-21,28
STUDY001,LB,STUDY001-SUBJ0008,44,L00044,PLT,Platelet Count,HEMATOLOGY,290.97,10^9/L,150.0,450.0,290.97,290.97,10^9/L,150.0,450.0,NORMAL,,WEEK 4,5,2024-11-21,28
STUDY001,LB,STUDY001-SUBJ0008,45,L00045,GLUC,Glucose,CHEMISTRY,90.51,mg/dL,70.0,100.0,90.51,90.51,mg/dL,70.0,100.0,NORMAL,,WEEK 4,5,2024-11-21,28
STUDY001,LB,STUDY001-SUBJ0008,46,L00046,BUN,Blood Urea Nitrogen,CHEMISTRY,8.49,mg/dL,7.0,20.0,8.49,8.49,mg/dL,7.0,20.0,NORMAL,,WEEK 4,5,2024-11-21,28
STUDY001,LB,STUDY001-SUBJ0008,47,L00047,CREAT,Creatinine,CHEMISTRY,0.97,mg/dL,0.6,1.2,0.97,0.97,mg/dL,0.6,1.2,NORMAL,,WEEK 4,5,2024-11-21,28
STUDY001,LB,STUDY001-SUBJ0008,48,L00048,BILI,Total Bilirubin,CHEMISTRY,0.53,mg/dL,0.1,1.2,0.53,0.53,mg/dL,0.1,1.2,NORMAL,,WEEK 4,5,2024-11-21,28
STUDY001,LB,STUDY001-SUBJ0008,49,L00049,ALP,Alkaline Phosphatase,CHEMISTRY,115.43,U/L,44.0,147.0,115.43,115.43,U/L,44.0,147.0,NORMAL,,WEEK 4,5,2024-11-21,28
STUDY001,LB,STUDY001-SUBJ0008,50,L00050,ALT,Alanine Aminotransferase,CHEMISTRY,38.69,U/L,7.0,56.0,38.69,38.69,U/L,7.0,56.0,NORMAL,,WEEK 4,5,2024-11-21,28
STUDY001,LB,STUDY001-SUBJ0008,51,L00051,HGB,Hemoglobin,HEMATOLOGY,14.25,g/dL,13.5,17.5,14.25,14.25,g/dL,13.5,17.5,NORMAL,,WEEK 8,6,2024-12-19,56
STUDY001,LB,STUDY001-SUBJ0008,52,L00052,HCT,Hematocrit,HEMATOLOGY,44.02,%,41.0,51.0,44.02,44.02,%,41.0,51.0,NORMAL,,WEEK 8,6,2024-12-19,56
STUDY001,LB,STUDY001-SUBJ0008,53,L00053,WBC,White Blood Cell Count,HEMATOLOGY,4.73,10^9/L,4.5,11.0,4.73,4.73,10^9/L,4.5,11.0,NORMAL,,WEEK 8,6,2024-12-19,56
STUDY001,LB,STUDY001-SUBJ0008,54,L00054,PLT,Platelet Count,HEMATOLOGY,290.38,10^9/L,150.0,450.0,290.38,290.38,10^9/L,150.0,450.0,NORMAL,,WEEK 8,6,2024-12-19,56
STUDY001,LB,STUDY001-SUBJ0008,55,L00055,GLUC,Glucose,CHEMISTRY,90.63,mg/dL,70.0,100.0,90.63,90.63,mg/dL,70.0,100.0,NORMAL,,WEEK 8,6,2024-12-19,56
STUDY001,LB,STUDY001-SUBJ0008,56,L00056,BUN,Blood Urea Nitrogen,CHEMISTRY,8.28,mg/dL,7.0,20.0,8.28,8.28,mg/dL,7.0,20.0,NORMAL,,WEEK 8,6,2024-12-19,56
STUDY001,LB,STUDY001-SUBJ0008,57,L00057,CREAT,Creatinine,CHEMISTRY,0.95,mg/dL,0.6,1.2,0.95,0.95,mg/dL,0.6,1.2,NORMAL,,WEEK 8,6,2024-12-19,56
STUDY001,LB,STUDY001-SUBJ0008,58,L00058,BILI,Total Bilirubin,CHEMISTRY,0.52,mg/dL,0.1,1.2,0.52,0.52,mg/dL,0.1,1.2,NORMAL,,WEEK 8,6,2024-12-19,56
STUDY001,LB,STUDY001-SUBJ0008,59,L00059,ALP,Alkaline Phosphatase,CHEMISTRY,111.68,U/L,44.0,147.0,111.68,111.68,U/L,44.0,147.0,NORMAL,,WEEK 8,6,2024-12-19,56
STUDY001,LB,STUDY001-SUBJ0008,60,L00060,ALT,Alanine Aminotransferase,CHEMISTRY,39.43,U/L,7.0,56.0,39.43,39.43,U/L,7.0,56.0,NORMAL,,WEEK 8,6,2024-12-19,56
STUDY001,LB,STUDY001-SUBJ0008,61,L00061,HGB,Hemoglobin,HEMATOLOGY,14.27,g/dL,13.5,17.5,14.27,14.27,g/dL,13.5,17.5,NORMAL,,WEEK 12,7,2025-01-16,84
STUDY001,LB,STUDY001-SUBJ0008,62,L00062,HCT,Hematocrit,HEMATOLOGY,43.88,%,41.0,51.0,43.88,43.88,%,41.0,51.0,NORMAL,,WEEK 12,7,2025-01-16,84
STUDY001,LB,STUDY001-SUBJ0008,63,L00063,WBC,White Blood Cell Count,HEMATOLOGY,4.97,10^9/L,4.5,11.0,4.97,4.97,10^9/L,4.5,11.0,NORMAL,,WEEK 12,7,2025-01-16,84
STUDY001,LB,STUDY001-SUBJ0008,64,L00064,PLT,Platelet Count,HEMATOLOGY,282.94,10^9/L,150.0,450.0,282.94,282.94,10^9/L,150.0,450.0,NORMAL,,WEEK 12,7,2025-01-16,84
STUDY001,LB,STUDY001-SUBJ0008,65,L00065,GLUC,Glucose,CHEMISTRY,88.94,mg/dL,70.0,100.0,88.94,88.94,mg/dL,70.0,100.0,NORMAL,,WEEK 12,7,2025-01-16,84
STUDY001,LB,STUDY001-SUBJ0008,66,L00066,BUN,Blood Urea Nitrogen,CHEMISTRY,8.43,mg/dL,7.0,20.0,8.43,8.43,mg/dL,7.0,20.0,NORMAL,,WEEK 12,7,2025-01-16,84
STUDY001,LB,STUDY001-SUBJ0008,67,L00067,CREAT,Creatinine,CHEMISTRY,0.95,mg/dL,0.6,1.2,0.95,0.95,mg/dL,0.6,1.2,NORMAL,,WEEK 12,7,2025-01-16,84
STUDY001,LB,STUDY001-SUBJ0008,68,L00068,BILI,Total Bilirubin,CHEMISTRY,0.54,mg/dL,0.1,1.2,0.54,0.54,mg/dL,0.1,1.2,NORMAL,,WEEK 12,7,2025-01-16,84
STUDY001,LB,STUDY001-SUBJ0008,69,L00069,ALP,Alkaline Phosphatase,CHEMISTRY,119.12,U/L,44.0,147.0,119.12,119.12,U/L,44.0,147.0,NORMAL,,WEEK 12,7,2025-01-16,84
STUDY001,LB,STUDY001-SUBJ0008,70,L00070,ALT,Alanine Aminotransferase,CHEMISTRY,41.11,U/L,7.0,56.0,41.11,41.11,U/L,7.0,56.0,NORMAL,,WEEK 12,7,2025-01-16,84
STUDY001,LB,STUDY001-SUBJ0008,71,L00071,HGB,Hemoglobin,HEMATOLOGY,14.27,g/dL,13.5,17.5,14.27,14.27,g/dL,13.5,17.5,NORMAL,,WEEK 16,8,2025-02-13,112
STUDY001,LB,STUDY001-SUBJ0008,72,L00072,HCT,Hematocrit,HEMATOLOGY,43.98,%,41.0,51.0,43.98,43.98,%,41.0,51.0,NORMAL,,WEEK 16,8,2025-02-13,112
STUDY001,LB,STUDY001-SUBJ0008,73,L00073,WBC,White Blood Cell Count,HEMATOLOGY,4.99,10^9/L,4.5,11.0,4.99,4.99,10^9/L,4.5,11.0,NORMAL,,WEEK 16,8,2025-02-13,112
STUDY001,LB,STUDY001-SUBJ0008,74,L00074,PLT,Platelet Count,HEMATOLOGY,287.5,10^9/L,150.0,450.0,287.5,287.5,10^9/L,150.0,450.0,NORMAL,,WEEK 16,8,2025-02-13,112
STUDY001,LB,STUDY001-SUBJ0008,75,L00075,GLUC,Glucose,CHEMISTRY,90.72,mg/dL,70.0,100.0,90.72,90.72,mg/dL,70.0,100.0,NORMAL,,WEEK 16,8,2025-02-13,112
STUDY001,LB,STUDY001-SUBJ0008,76,L00076,BUN,Blood Urea Nitrogen,CHEMISTRY,8.53,mg/dL,7.0,20.0,8.53,8.53,mg/dL,7.0,20.0,NORMAL,,WEEK 16,8,2025-02-13,112
STUDY001,LB,STUDY001-SUBJ0008,77,L00077,CREAT,Creatinine,CHEMISTRY,0.93,mg/dL,0.6,1.2,0.93,0.93,mg/dL,0.6,1.2,NORMAL,,WEEK 16,8,2025-02-13,112
STUDY001,LB,STUDY001-SUBJ0008,78,L00078,BILI,Total Bilirubin,CHEMISTRY,0.53,mg/dL,0.1,1.2,0.53,0.53,mg/dL,0.1,1.2,NORMAL,,WEEK 16,8,2025-02-13,112
STUDY001,LB,STUDY001-SUBJ0008,79,L00079,ALP,Alkaline Phosphatase,CHEMISTRY,118.56,U/L,44.0,147.0,118.56,118.56,U/L,44.0,147.0,NORMAL,,WEEK 16,8,2025-02-13,112
STUDY001,LB,STUDY001-SUBJ0008,80,L00080,ALT,Alanine Aminotransferase,CHEMISTRY,39.34,U/L,7.0,56.0,39.34,39.34,U/L,7.0,56.0,NORMAL,,WEEK 16,8,2025-02-13,112
STUDY001,LB,STUDY001-SUBJ0008,81,L00081,HGB,Hemoglobin,HEMATOLOGY,14.26,g/dL,13.5,17.5,14.26,14.26,g/dL,13.5,17.5,NORMAL,,END OF TREATMENT,9,2025-03-13,140
STUDY001,LB,STUDY001-SUBJ0008,82,L00082,HCT,Hematocrit,HEMATOLOGY,44.1,%,41.0,51.0,44.1,44.1,%,41.0,51.0,NORMAL,,END OF TREATMENT,9,2025-03-13,140
STUDY001,LB,STUDY001-SUBJ0008,83,L00083,WBC,White Blood Cell Count,HEMATOLOGY,4.74,10^9/L,4.5,11.0,4.74,4.74,10^9/L,4.5,11.0,NORMAL,,END OF TREATMENT,9,2025-03-13,140
STUDY001,LB,STUDY001-SUBJ0008,84,L00084,PLT,Platelet Count,HEMATOLOGY,293.66,10^9/L,150.0,450.0,293.66,293.66,10^9/L,150.0,450.0,NORMAL,,END OF TREATMENT,9,2025-03-13,140
STUDY001,LB,STUDY001-SUBJ0008,85,L00085,GLUC,Glucose,CHEMISTRY,90.25,mg/dL,70.0,100.0,90.25,90.25,mg/dL,70.0,100.0,NORMAL,,END OF TREATMENT,9,2025-03-13,140
STUDY001,LB,STUDY001-SUBJ0008,86,L00086,BUN,Blood Urea Nitrogen,CHEMISTRY,8.12,mg/dL,7.0,20.0,8.12,8.12,mg/dL,7.0,20.0,NORMAL,,END OF TREATMENT,9,2025-03-13,140
STUDY001,LB,STUDY001-SUBJ0008,87,L00087,CREAT,Creatinine,CHEMISTRY,0.94,mg/dL,0.6,1.2,0.94,0.94,mg/dL,0.6,1.2,NORMAL,,END OF TREATMENT,9,2025-03-13,140
STUDY001,LB,STUDY001-SUBJ0008,88,L00088,BILI,Total Bilirubin,CHEMISTRY,0.57,mg/dL,0.1,1.2,0.57,0.57,mg/dL,0.1,1.2,NORMAL,,END OF TREATMENT,9,2025-03-13,140
STUDY001,LB,STUDY001-SUBJ0008,89,L00089,ALP,Alkaline Phosphatase,CHEMISTRY,113.49,U/L,44.0,147.0,113.49,113.49,U/L,44.0,147.0,NORMAL,,END OF TREATMENT,9,2025-03-13,140
STUDY001,LB,STUDY001-SUBJ0008,90,L00090,ALT,Alanine Aminotransferase,CHEMISTRY,41.16,U/L,7.0,56.0,41.16,41.16,U/L,7.0,56.0,NORMAL,,END OF TREATMENT,9,2025-03-13,140
STUDY001,LB,STUDY001-SUBJ0009,1,L00001,HGB,Hemoglobin,HEMATOLOGY,14.21,g/dL,13.5,17.5,14.21,14.21,g/dL,13.5,17.5,NORMAL,,SCREENING,1,2025-04-25,-14
STUDY001,LB,STUDY001-SUBJ0009,2,L00002,HCT,Hematocrit,HEMATOLOGY,46.04,%,41.0,51.0,46.04,46.04,%,41.0,51.0,NORMAL,,SCREENING,1,2025-04-25,-14
STUDY001,LB,STUDY001-SUBJ0009,3,L00003,WBC,White Blood Cell Count,HEMATOLOGY,5.84,10^9/L,4.5,11.0,5.84,5.84,10^9/L,4.5,11.0,NORMAL,,SCREENING,1,2025-04-25,-14
STUDY001,LB,STUDY001-SUBJ0009,4,L00004,PLT,Platelet Count,HEMATOLOGY,220.53,10^9/L,150.0,450.0,220.53,220.53,10^9/L,150.0,450.0,NORMAL,,SCREENING,1,2025-04-25,-14
STUDY001,LB,STUDY001-SUBJ0009,5,L00005,GLUC,Glucose,CHEMISTRY,77.42,mg/dL,70.0,100.0,77.42,77.42,mg/dL,70.0,100.0,NORMAL,,SCREENING,1,2025-04-25,-14
STUDY001,LB,STUDY001-SUBJ0009,6,L00006,BUN,Blood Urea Nitrogen,CHEMISTRY,17.39,mg/dL,7.0,20.0,17.39,17.39,mg/dL,7.0,20.0,NORMAL,,SCREENING,1,2025-04-25,-14
STUDY001,LB,STUDY001-SUBJ0009,7,L00007,CREAT,Creatinine,CHEMISTRY,1.02,mg/dL,0.6,1.2,1.02,1.02,mg/dL,0.6,1.2,NORMAL,,SCREENING,1,2025-04-25,-14
STUDY001,LB,STUDY001-SUBJ0009,8,L00008,BILI,Total Bilirubin,CHEMISTRY,0.64,mg/dL,0.1,1.2,0.64,0.64,mg/dL,0.1,1.2,NORMAL,,SCREENING,1,2025-04-25,-14
STUDY001,LB,STUDY001-SUBJ0009,9,L00009,ALP,Alkaline Phosphatase,CHEMISTRY,61.23,U/L,44.0,147.0,61.23,61.23,U/L,44.0,147.0,NORMAL,,SCREENING,1,2025-04-25,-14
STUDY001,LB,STUDY001-SUBJ0009,10,L00010,ALT,Alanine Aminotransferase,CHEMISTRY,17.09,U/L,7.0,56.0,17.09,17.09,U/L,7.0,56.0,NORMAL,,SCREENING,1,2025-04-25,-14
STUDY001,LB,STUDY001-SUBJ0009,11,L00011,HGB,Hemoglobin,HEMATOLOGY,14.37,g/dL,13.5,17.5,14.37,14.37,g/dL,13.5,17.5,NORMAL,Y,BASELINE,2,2025-05-09,1
STUDY001,LB,STUDY001-SUBJ0009,12,L00012,HCT,Hematocrit,HEMATOLOGY,46.13,%,41.0,51.0,46.13,46.13,%,41.0,51.0,NORMAL,Y,BASELINE,2,2025-05-09,1
STUDY001,LB,STUDY001-SUBJ0009,13,L00013,WBC,White Blood Cell Count,HEMATOLOGY,5.27,10^9/L,4.5,11.0,5.27,5.27,10^9/L,4.5,11.0,NORMAL,Y,BASELINE,2,2025-05-09,1
STUDY001,LB,STUDY001-SUBJ0009,14,L00014,PLT,Platelet Count,HEMATOLOGY,217.04,10^9/L,150.0,450.0,217.04,217.04,10^9/L,150.0,450.0,NORMAL,Y,BASELINE,2,2025-05-09,1
STUDY001,LB,STUDY001-SUBJ0009,15,L00015,GLUC,Glucose,CHEMISTRY,77.41,mg/dL,70.0,100.0,77.41,77.41,mg/dL,70.0,100.0,NORMAL,Y,BASELINE,2,2025-05-09,1
STUDY001,LB,STUDY001-SUBJ0009,16,L00016,BUN,Blood Urea Nitrogen,CHEMISTRY,17.09,mg/dL,7.0,20.0,17.09,17.09,mg/dL,7.0,20.0,NORMAL,Y,BASELINE,2,2025-05-09,1
STUDY001,LB,STUDY001-SUBJ0009,17,L00017,CREAT,Creatinine,CHEMISTRY,1.03,mg/dL,0.6,1.2,1.03,1.03,mg/dL,0.6,1.2,NORMAL,Y,BASELINE,2,2025-05-09,1
STUDY001,LB,STUDY001-SUBJ0009,18,L00018,BILI,Total Bilirubin,CHEMISTRY,0.64,mg/dL,0.1,1.2,0.64,0.64,mg/dL,0.1,1.2,NORMAL,Y,BASELINE,2,2025-05-09,1
STUDY001,LB,STUDY001-SUBJ0009,19,L00019,ALP,Alkaline Phosphatase,CHEMISTRY,56.25,U/L,44.0,147.0,56.25,56.25,U/L,44.0,147.0,NORMAL,Y,BASELINE,2,2025-05-09,1
STUDY001,LB,STUDY001-SUBJ0009,20,L00020,ALT,Alanine Aminotransferase,CHEMISTRY,16.98,U/L,7.0,56.0,16.98,16.98,U/L,7.0,56.0,NORMAL,Y,BASELINE,2,2025-05-09,1
STUDY001,LB,STUDY001-SUBJ0009,21,L00021,HGB,Hemoglobin,HEMATOLOGY,14.36,g/dL,13.5,17.5,14.36,14.36,g/dL,13.5,17.5,NORMAL,,WEEK 1,3,2025-05-15,7
STUDY001,LB,STUDY001-SUBJ0009,22,L00022,HCT,Hematocrit,HEMATOLOGY,46.2,%,41.0,51.0,46.2,46.2,%,41.0,51.0,NORMAL,,WEEK 1,3,2025-05-15,7
STUDY001,LB,STUDY001-SUBJ0009,23,L00023,WBC,White Blood Cell Count,HEMATOLOGY,5.65,10^9/L,4.5,11.0,5.65,5.65,10^9/L,4.5,11.0,NORMAL,,WEEK 1,3,2025-05-15,7
STUDY001,LB,STUDY001-SUBJ0009,24,L00024,PLT,Platelet Count,HEMATOLOGY,217.73,10^9/L,150.0,450.0,217.73,217.73,10^9/L,150.0,450.0,NORMAL,,WEEK 1,3,2025-05-15,7
STUDY001,LB,STUDY001-SUBJ0009,25,L00025,GLUC,Glucose,CHEMISTRY,76.44,mg/dL,70.0,100.0,76.44,76.44,mg/dL,70.0,100.0,NORMAL,,WEEK 1,3,2025-05-15,7
STUDY001,LB,STUDY001-SUBJ0009,26,L00026,BUN,Blood Urea Nitrogen,CHEMISTRY,17.41,mg/dL,7.0,20.0,17.41,17.41,mg/dL,7.0,20.0,NORMAL,,WEEK 1,3,2025-05-15,7
STUDY001,LB,STUDY001-SUBJ0009,27,L00027,CREAT,Creatinine,CHEMISTRY,1.03,mg/dL,0.6,1.2,1.03,1.03,mg/dL,0.6,1.2,NORMAL,,WEEK 1,3,2025-05-15,7
STUDY001,LB,STUDY001-SUBJ0009,28,L00028,BILI,Total Bilirubin,CHEMISTRY,0.68,mg/dL,0.1,1.2,0.68,0.68,mg/dL,0.1,1.2,NORMAL,,WEEK 1,3,2025-05-15,7
STUDY001,LB,STUDY001-SUBJ0009,29,L00029,ALP,Alkaline Phosphatase,CHEMISTRY,63.4,U/L,44.0,147.0,63.4,63.4,U/L,44.0,147.0,NORMAL,,WEEK 1,3,2025-05-15,7
STUDY001,LB,STUDY001-SUBJ0009,30,L00030,ALT,Alanine Aminotransferase,CHEMISTRY,16.26,U/L,7.0,56.0,16.26,16.26,U/L,7.0,56.0,NORMAL,,WEEK 1,3,2025-05-15,7
STUDY001,LB,STUDY001-SUBJ0009,31,L00031,HGB,Hemoglobin,HEMATOLOGY,14.23,g/dL,13.5,17.5,14.23,14.23,g/dL,13.5,17.5,NORMAL,,WEEK 2,4,2025-05-22,14
STUDY001,LB,STUDY001-SUBJ0009,32,L00032,HCT,Hematocrit,HEMATOLOGY,46.06,%,41.0,51.0,46.06,46.06,%,41.0,51.0,NORMAL,,WEEK 2,4,2025-05-22,14
STUDY001,LB,STUDY001-SUBJ0009,33,L00033,WBC,White Blood Cell Count,HEMATOLOGY,5.63,10^9/L,4.5,11.0,5.63,5.63,10^9/L,4.5,11.0,NORMAL,,WEEK 2,4,2025-05-22,14
STUDY001,LB,STUDY001-SUBJ0009,34,L00034,PLT,Platelet Count,HEMATOLOGY,219.25,10^9/L,150.0,450.0,219.25,219.25,10^9/L,150.0,450.0,NORMAL,,WEEK 2,4,2025-05-22,14
STUDY001,LB,STUDY001-SUBJ0009,35,L00035,GLUC,Glucose,CHEMISTRY,76.33,mg/dL,70.0,100.0,76.33,76.33,mg/dL,70.0,100.0,NORMAL,,WEEK 2,4,2025-05-22,14
STUDY001,LB,STUDY001-SUBJ0009,36,L00036,BUN,Blood Urea Nitrogen,CHEMISTRY,17.46,mg/dL,7.0,20.0,17.46,17.46,mg/dL,7.0,20.0,NORMAL,,WEEK 2,4,2025-05-22,14
STUDY001,LB,STUDY001-SUBJ0009,37,L00037,CREAT,Creatinine,CHEMISTRY,1.04,mg/dL,0.6,1.2,1.04,1.04,mg/dL,0.6,1.2,NORMAL,,WEEK 2,4,2025-05-22,14
STUDY001,LB,STUDY001-SUBJ0009,38,L00038,BILI,Total Bilirubin,CHEMISTRY,0.67,mg/dL,0.1,1.2,0.67,0.67,mg/dL,0.1,1.2,NORMAL,,WEEK 2,4,2025-05-22,14
STUDY001,LB,STUDY001-SUBJ0009,39,L00039,ALP,Alkaline Phosphatase,CHEMISTRY,58.95,U/L,44.0,147.0,58.95,58.95,U/L,44.0,147.0,NORMAL,,WEEK 2,4,2025-05-22,14
STUDY001,LB,STUDY001-SUBJ0009,40,L00040,ALT,Alanine Aminotransferase,CHEMISTRY,13.74,U/L,7.0,56.0,13.74,13.74,U/L,7.0,56.0,NORMAL,,WEEK 2,4,2025-05-22,14
STUDY001,LB,STUDY001-SUBJ0009,41,L00041,HGB,Hemoglobin,HEMATOLOGY,14.24,g/dL,13.5,17.5,14.24,14.24,g/dL,13.5,17.5,NORMAL,,WEEK 4,5,2025-06-05,28
STUDY001,LB,STUDY001-SUBJ0009,42,L00042,HCT,Hematocrit,HEMATOLOGY,45.78,%,41.0,51.0,45.78,45.78,%,41.0,51.0,NORMAL,,WEEK 4,5,2025-06-05,28
STUDY001,LB,STUDY001-SUBJ0009,43,L00043,WBC,White Blood Cell Count,HEMATOLOGY,6.18,10^9/L,4.5,11.0,6.18,6.18,10^9/L,4.5,11.0,NORMAL,,WEEK 4,5,2025-06-05,28
STUDY001,LB,STUDY001-SUBJ0009,44,L00044,PLT,Platelet Count,HEMATOLOGY,232.43,10^9/L,150.0,450.0,232.43,232.43,10^9/L,150.0,450.0,NORMAL,,WEEK 4,5,2025-06-05,28
STUDY001,LB,STUDY001-SUBJ0009,45,L00045,GLUC,Glucose,CHEMISTRY,77.06,mg/dL,70.0,100.0,77.06,77.06,mg/dL,70.0,100.0,NORMAL,,WEEK 4,5,2025-06-05,28
STUDY001,LB,STUDY001-SUBJ0009,46,L00046,BUN,Blood Urea Nitrogen,CHEMISTRY,17.2,mg/dL,7.0,20.0,17.2,17.2,mg/dL,7.0,20.0,NORMAL,,WEEK 4,5,2025-06-05,28
STUDY001,LB,STUDY001-SUBJ0009,47,L00047,CREAT,Creatinine,CHEMISTRY,1.03,mg/dL,0.6,1.2,1.03,1.03,mg/dL,0.6,1.2,NORMAL,,WEEK 4,5,2025-06-05,28
STUDY001,LB,STUDY001-SUBJ0009,48,L00048,BILI,Total Bilirubin,CHEMISTRY,0.65,mg/dL,0.1,1.2,0.65,0.65,mg/dL,0.1,1.2,NORMAL,,WEEK 4,5,2025-06-05,28
STUDY001,LB,STUDY001-SUBJ0009,49,L00049,ALP,Alkaline Phosphatase,CHEMISTRY,63.29,U/L,44.0,147.0,63.29,63.29,U/L,44.0,147.0,NORMAL,,WEEK 4,5,2025-06-05,28
STUDY001,LB,STUDY001-SUBJ0009,50,L00050,ALT,Alanine Aminotransferase,CHEMISTRY,14.34,U/L,7.0,56.0,14.34,14.34,U/L,7.0,56.0,NORMAL,,WEEK 4,5,2025-06-05,28
STUDY001,LB,STUDY001-SUBJ0009,51,L00051,HGB,Hemoglobin,HEMATOLOGY,14.17,g/dL,13.5,17.5,14.17,14.17,g/dL,13.5,17.5,NORMAL,,WEEK 8,6,2025-07-03,56
STUDY001,LB,STUDY001-SUBJ0009,52,L00052,HCT,Hematocrit,HEMATOLOGY,46.39,%,41.0,51.0,46.39,46.39,%,41.0,51.0,NORMAL,,WEEK 8,6,2025-07-03,56
STUDY001,LB,STUDY001-SUBJ0009,53,L00053,WBC,White Blood Cell Count,HEMATOLOGY,5.81,10^9/L,4.5,11.0,5.81,5.81,10^9/L,4.5,11.0,NORMAL,,WEEK 8,6,2025-07-03,56
STUDY001,LB,STUDY001-SUBJ0009,54,L00054,PLT,Platelet Count,HEMATOLOGY,216.74,10^9/L,150.0,450.0,216.74,216.74,10^9/L,150.0,450.0,NORMAL,,WEEK 8,6,2025-07-03,56
STUDY001,LB,STUDY001-SUBJ0009,55,L00055,GLUC,Glucose,CHEMISTRY,77.73,mg/dL,70.0,100.0,77.73,77.73,mg/dL,70.0,100.0,NORMAL,,WEEK 8,6,2025-07-03,56
STUDY001,LB,STUDY001-SUBJ0009,56,L00056,BUN,Blood Urea Nitrogen,CHEMISTRY,17.68,mg/dL,7.0,20.0,17.68,17.68,mg/dL,7.0,20.0,NORMAL,,WEEK 8,6,2025-07-03,56
STUDY001,LB,STUDY001-SUBJ0009,57,L00057,CREAT,Creatinine,CHEMISTRY,1.04,mg/dL,0.6,1.2,1.04,1.04,mg/dL,0.6,1.2,NORMAL,,WEEK 8,6,2025-07-03,56
STUDY001,LB,STUDY001-SUBJ0009,58,L00058,BILI,Total Bilirubin,CHEMISTRY,0.67,mg/dL,0.1,1.2,0.67,0.67,mg/dL,0.1,1.2,NORMAL,,WEEK 8,6,2025-07-03,56
STUDY001,LB,STUDY001-SUBJ0009,59,L00059,ALP,Alkaline Phosphatase,CHEMISTRY,56.38,U/L,44.0,147.0,56.38,56.38,U/L,44.0,147.0,NORMAL,,WEEK 8,6,2025-07-03,56
STUDY001,LB,STUDY001-SUBJ0009,60,L00060,ALT,Alanine Aminotransferase,CHEMISTRY,15.08,U/L,7.0,56.0,15.08,15.08,U/L,7.0,56.0,NORMAL,,WEEK 8,6,2025-07-03,56
STUDY001,LB,STUDY001-SUBJ0009,61,L00061,HGB,Hemoglobin,HEMATOLOGY,14.23,g/dL,13.5,17.5,14.23,14.23,g/dL,13.5,17.5,NORMAL,,WEEK 12,7,2025-07-31,84
STUDY001,LB,STUDY001-SUBJ0009,62,L00062,HCT,Hematocrit,HEMATOLOGY,46.03,%,41.0,51.0,46.03,46.03,%,41.0,51.0,NORMAL,,WEEK 12,7,2025-07-31,84
STUDY001,LB,STUDY001-SUBJ0009,63,L00063,WBC,White Blood Cell Count,HEMATOLOGY,5.68,10^9/L,4.5,11.0,5.68,5.68,10^9/L,4.5,11.0,NORMAL,,WEEK 12,7,2025-07-31,84
STUDY001,LB,STUDY001-SUBJ0009,64,L00064,PLT,Platelet Count,HEMATOLOGY,227.99,10^9/L,150.0,450.0,227.99,227.99,10^9/L,150.0,450.0,NORMAL,,WEEK 12,7,2025-07-31,84
STUDY001,LB,STUDY001-SUBJ0009,65,L00065,GLUC,Glucose,CHEMISTRY,76.61,mg/dL,70.0,100.0,76.61,76.61,mg/dL,70.0,100.0,NORMAL,,WEEK 12,7,2025-07-31,84
STUDY001,LB,STUDY001-SUBJ0009,66,L00066,BUN,Blood Urea Nitrogen,CHEMISTRY,17.65,mg/dL,7.0,20.0,17.65,17.65,mg/dL,7.0,20.0,NORMAL,,WEEK 12,7,2025-07-31,84
STUDY001,LB,STUDY001-SUBJ0009,67,L00067,CREAT,Creatinine,CHEMISTRY,1.04,mg/dL,0.6,1.2,1.04,1.04,mg/dL,0.6,1.2,NORMAL,,WEEK 12,7,2025-07-31,84
STUDY001,LB,STUDY001-SUBJ0009,68,L00068,BILI,Total Bilirubin,CHEMISTRY,0.64,mg/dL,0.1,1.2,0.64,0.64,mg/dL,0.1,1.2,NORMAL,,WEEK 12,7,2025-07-31,84
STUDY001,LB,STUDY001-SUBJ0009,69,L00069,ALP,Alkaline Phosphatase,CHEMISTRY,58.48,U/L,44.0,147.0,58.48,58.48,U/L,44.0,147.0,NORMAL,,WEEK 12,7,2025-07-31,84
STUDY001,LB,STUDY001-SUBJ0009,70,L00070,ALT,Alanine Aminotransferase,CHEMISTRY,15.59,U/L,7.0,56.0,15.59,15.59,U/L,7.0,56.0,NORMAL,,WEEK 12,7,2025-07-31,84
STUDY001,LB,STUDY001-SUBJ0009,71,L00071,HGB,Hemoglobin,HEMATOLOGY,14.43,g/dL,13.5,17.5,14.43,14.43,g/dL,13.5,17.5,NORMAL,,WEEK 16,8,2025-08-28,112
STUDY001,LB,STUDY001-SUBJ0009,72,L00072,HCT,Hematocrit,HEMATOLOGY,46.09,%,41.0,51.0,46.09,46.09,%,41.0,51.0,NORMAL,,WEEK 16,8,2025-08-28,112
STUDY001,LB,STUDY001-SUBJ0009,73,L00073,WBC,White Blood Cell Count,HEMATOLOGY,5.77,10^9/L,4.5,11.0,5.77,5.77,10^9/L,4.5,11.0,NORMAL,,WEEK 16,8,2025-08-28,112
STUDY001,LB,STUDY001-SUBJ0009,74,L00074,PLT,Platelet Count,HEMATOLOGY,218.17,10^9/L,150.0,450.0,218.17,218.17,10^9/L,150.0,450.0,NORMAL,,WEEK 16,8,2025-08-28,112
STUDY001,LB,STUDY001-SUBJ0009,75,L00075,GLUC,Glucose,CHEMISTRY,77.91,mg/dL,70.0,100.0,77.91,77.91,mg/dL,70.0,100.0,NORMAL,,WEEK 16,8,2025-08-28,112
STUDY001,LB,STUDY001-SUBJ0009,76,L00076,BUN,Blood Urea Nitrogen,CHEMISTRY,17.02,mg/dL,7.0,20.0,17.02,17.02,mg/dL,7.0,20.0,NORMAL,,WEEK 16,8,2025-08-28,112
STUDY001,LB,STUDY001-SUBJ0009,77,L00077,CREAT,Creatinine,CHEMISTRY,1.07,mg/dL,0.6,1.2,1.07,1.07,mg/dL,0.6,1.2,NORMAL,,WEEK 16,8,2025-08-28,112
STUDY001,LB,STUDY001-SUBJ0009,78,L00078,BILI,Total Bilirubin,CHEMISTRY,0.66,mg/dL,0.1,1.2,0.66,0.66,mg/dL,0.1,1.2,NORMAL,,WEEK 16,8,2025-08-28,112
STUDY001,LB,STUDY001-SUBJ0009,79,L00079,ALP,Alkaline Phosphatase,CHEMISTRY,61.08,U/L,44.0,147.0,61.08,61.08,U/L,44.0,147.0,NORMAL,,WEEK 16,8,2025-08-28,112
STUDY001,LB,STUDY001-SUBJ0009,80,L00080,ALT,Alanine Aminotransferase,CHEMISTRY,16.14,U/L,7.0,56.0,16.14,16.14,U/L,7.0,56.0,NORMAL,,WEEK 16,8,2025-08-28,112
STUDY001,LB,STUDY001-SUBJ0009,81,L00081,HGB,Hemoglobin,HEMATOLOGY,14.18,g/dL,13.5,17.5,14.18,14.18,g/dL,13.5,17.5,NORMAL,,END OF TREATMENT,9,2025-09-25,140
STUDY001,LB,STUDY001-SUBJ0009,82,L00082,HCT,Hematocrit,HEMATOLOGY,46.22,%,41.0,51.0,46.22,46.22,%,41.0,51.0,NORMAL,,END OF TREATMENT,9,2025-09-25,140
STUDY001,LB,STUDY001-SUBJ0009,83,L00083,WBC,White Blood Cell Count,HEMATOLOGY,6.02,10^9/L,4.5,11.0,6.02,6.02,10^9/L,4.5,11.0,NORMAL,,END OF TREATMENT,9,2025-09-25,140
STUDY001,LB,STUDY001-SUBJ0009,84,L00084,PLT,Platelet Count,HEMATOLOGY,217.08,10^9/L,150.0,450.0,217.08,217.08,10^9/L,150.0,450.0,NORMAL,,END OF TREATMENT,9,2025-09-25,140
STUDY001,LB,STUDY001-SUBJ0009,85,L00085,GLUC,Glucose,CHEMISTRY,77.79,mg/dL,70.0,100.0,77.79,77.79,mg/dL,70.0,100.0,NORMAL,,END OF TREATMENT,9,2025-09-25,140
STUDY001,LB,STUDY001-SUBJ0009,86,L00086,BUN,Blood Urea Nitrogen,CHEMISTRY,17.6,mg/dL,7.0,20.0,17.6,17.6,mg/dL,7.0,20.0,NORMAL,,END OF TREATMENT,9,2025-09-25,140
STUDY001,LB,STUDY001-SUBJ0009,87,L00087,CREAT,Creatinine,CHEMISTRY,1.01,mg/dL,0.6,1.2,1.01,1.01,mg/dL,0.6,1.2,NORMAL,,END OF TREATMENT,9,2025-09-25,140
STUDY001,LB,STUDY001-SUBJ0009,88,L00088,BILI,Total Bilirubin,CHEMISTRY,0.66,mg/dL,0.1,1.2,0.66,0.66,mg/dL,0.1,1.2,NORMAL,,END OF TREATMENT,9,2025-09-25,140
STUDY001,LB,STUDY001-SUBJ0009,89,L00089,ALP,Alkaline Phosphatase,CHEMISTRY,58.81,U/L,44.0,147.0,58.81,58.81,U/L,44.0,147.0,NORMAL,,END OF TREATMENT,9,2025-09-25,140
STUDY001,LB,STUDY001-SUBJ0009,90,L00090,ALT,Alanine Aminotransferase,CHEMISTRY,17.6,U/L,7.0,56.0,17.6,17.6,U/L,7.0,56.0,NORMAL,,END OF TREATMENT,9,2025-09-25,140
STUDY001,LB,STUDY001-SUBJ0010,1,L00001,HGB,Hemoglobin,HEMATOLOGY,15.33,g/dL,13.5,17.5,15.33,15.33,g/dL,13.5,17.5,NORMAL,,SCREENING,1,2025-05-21,-14
STUDY001,LB,STUDY001-SUBJ0010,2,L00002,HCT,Hematocrit,HEMATOLOGY,43.04,%,41.0,51.0,43.04,43.04,%,41.0,51.0,NORMAL,,SCREENING,1,2025-05-21,-14
STUDY001,LB,STUDY001-SUBJ0010,3,L00003,WBC,White Blood Cell Count,HEMATOLOGY,5.68,10^9/L,4.5,11.0,5.68,5.68,10^9/L,4.5,11.0,NORMAL,,SCREENING,1,2025-05-21,-14
STUDY001,LB,STUDY001-SUBJ0010,4,L00004,PLT,Platelet Count,HEMATOLOGY,272.31,10^9/L,150.0,450.0,272.31,272.31,10^9/L,150.0,450.0,NORMAL,,SCREENING,1,2025-05-21,-14
STUDY001,LB,STUDY001-SUBJ0010,5,L00005,GLUC,Glucose,CHEMISTRY,101.53,mg/dL,70.0,100.0,101.53,101.53,mg/dL,70.0,100.0,HIGH,,SCREENING,1,2025-05-21,-14
STUDY001,LB,STUDY001-SUBJ0010,6,L00006,BUN,Blood Urea Nitrogen,CHEMISTRY,18.74,mg/dL,7.0,20.0,18.74,18.74,mg/dL,7.0,20.0,NORMAL,,SCREENING,1,2025-05-21,-14
STUDY001,LB,STUDY001-SUBJ0010,7,L00007,CREAT,Creatinine,CHEMISTRY,1.11,mg/dL,0.6,1.2,1.11,1.11,mg/dL,0.6,1.2,NORMAL,,SCREENING,1,2025-05-21,-14
STUDY001,LB,STUDY001-SUBJ0010,8,L00008,BILI,Total Bilirubin,CHEMISTRY,0.62,mg/dL,0.1,1.2,0.62,0.62,mg/dL,0.1,1.2,NORMAL,,SCREENING,1,2025-05-21,-14
STUDY001,LB,STUDY001-SUBJ0010,9,L00009,ALP,Alkaline Phosphatase,CHEMISTRY,93.04,U/L,44.0,147.0,93.04,93.04,U/L,44.0,147.0,NORMAL,,SCREENING,1,2025-05-21,-14
STUDY001,LB,STUDY001-SUBJ0010,10,L00010,ALT,Alanine Aminotransferase,CHEMISTRY,23.28,U/L,7.0,56.0,23.28,23.28,U/L,7.0,56.0,NORMAL,,SCREENING,1,2025-05-21,-14
STUDY001,LB,STUDY001-SUBJ0010,11,L00011,HGB,Hemoglobin,HEMATOLOGY,15.45,g/dL,13.5,17.5,15.45,15.45,g/dL,13.5,17.5,NORMAL,Y,BASELINE,2,2025-06-04,1
STUDY001,LB,STUDY001-SUBJ0010,12,L00012,HCT,Hematocrit,HEMATOLOGY,42.66,%,41.0,51.0,42.66,42.66,%,41.0,51.0,NORMAL,Y,BASELINE,2,2025-06-04,1
STUDY001,LB,STUDY001-SUBJ0010,13,L00013,WBC,White Blood Cell Count,HEMATOLOGY,5.62,10^9/L,4.5,11.0,5.62,5.62,10^9/L,4.5,11.0,NORMAL,Y,BASELINE,2,2025-06-04,1
STUDY001,LB,STUDY001-SUBJ0010,14,L00014,PLT,Platelet Count,HEMATOLOGY,268.29,10^9/L,150.0,450.0,268.29,268.29,10^9/L,150.0,450.0,NORMAL,Y,BASELINE,2,2025-06-04,1
STUDY001,LB,STUDY001-SUBJ0010,15,L00015,GLUC,Glucose,CHEMISTRY,99.32,mg/dL,70.0,100.0,99.32,99.32,mg/dL,70.0,100.0,NORMAL,Y,BASELINE,2,2025-06-04,1
STUDY001,LB,STUDY001-SUBJ0010,16,L00016,BUN,Blood Urea Nitrogen,CHEMISTRY,18.34,mg/dL,7.0,20.0,18.34,18.34,mg/dL,7.0,20.0,NORMAL,Y,BASELINE,2,2025-06-04,1
STUDY001,LB,STUDY001-SUBJ0010,17,L00017,CREAT,Creatinine,CHEMISTRY,1.12,mg/dL,0.6,1.2,1.12,1.12,mg/dL,0.6,1.2,NORMAL,Y,BASELINE,2,2025-06-04,1
STUDY001,LB,STUDY001-SUBJ0010,18,L00018,BILI,Total Bilirubin,CHEMISTRY,0.61,mg/dL,0.1,1.2,0.61,0.61,mg/dL,0.1,1.2,NORMAL,Y,BASELINE,2,2025-06-04,1
STUDY001,LB,STUDY001-SUBJ0010,19,L00019,ALP,Alkaline Phosphatase,CHEMISTRY,96.39,U/L,44.0,147.0,96.39,96.39,U/L,44.0,147.0,NORMAL,Y,BASELINE,2,2025-06-04,1
STUDY001,LB,STUDY001-SUBJ0010,20,L00020,ALT,Alanine Aminotransferase,CHEMISTRY,23.37,U/L,7.0,56.0,23.37,23.37,U/L,7.0,56.0,NORMAL,Y,BASELINE,2,2025-06-04,1
STUDY001,LB,STUDY001-SUBJ0010,21,L00021,HGB,Hemoglobin,HEMATOLOGY,15.28,g/dL,13.5,17.5,15.28,15.28,g/dL,13.5,17.5,NORMAL,,WEEK 1,3,2025-06-10,7
STUDY001,LB,STUDY001-SUBJ0010,22,L00022,HCT,Hematocrit,HEMATOLOGY,42.85,%,41.0,51.0,42.85,42.85,%,41.0,51.0,NORMAL,,WEEK 1,3,2025-06-10,7
STUDY001,LB,STUDY001-SUBJ0010,23,L00023,WBC,White Blood Cell Count,HEMATOLOGY,5.71,10^9/L,4.5,11.0,5.71,5.71,10^9/L,4.5,11.0,NORMAL,,WEEK 1,3,2025-06-10,7
STUDY001,LB,STUDY001-SUBJ0010,24,L00024,PLT,Platelet Count,HEMATOLOGY,264.31,10^9/L,150.0,450.0,264.31,264.31,10^9/L,150.0,450.0,NORMAL,,WEEK 1,3,2025-06-10,7
STUDY001,LB,STUDY001-SUBJ0010,25,L00025,GLUC,Glucose,CHEMISTRY,98.69,mg/dL,70.0,100.0,98.69,98.69,mg/dL,70.0,100.0,NORMAL,,WEEK 1,3,2025-06-10,7
STUDY001,LB,STUDY001-SUBJ0010,26,L00026,BUN,Blood Urea Nitrogen,CHEMISTRY,18.32,mg/dL,7.0,20.0,18.32,18.32,mg/dL,7.0,20.0,NORMAL,,WEEK 1,3,2025-06-10,7
STUDY001,LB,STUDY001-SUBJ0010,27,L00027,CREAT,Creatinine,CHEMISTRY,1.09,mg/dL,0.6,1.2,1.09,1.09,mg/dL,0.6,1.2,NORMAL,,WEEK 1,3,2025-06-10,7
STUDY001,LB,STUDY001-SUBJ0010,28,L00028,BILI,Total Bilirubin,CHEMISTRY,0.64,mg/dL,0.1,1.2,0.64,0.64,mg/dL,0.1,1.2,NORMAL,,WEEK 1,3,2025-06-10,7
STUDY001,LB,STUDY001-SUBJ0010,29,L00029,ALP,Alkaline Phosphatase,CHEMISTRY,94.61,U/L,44.0,147.0,94.61,94.61,U/L,44.0,147.0,NORMAL,,WEEK 1,3,2025-06-10,7
STUDY001,LB,STUDY001-SUBJ0010,30,L00030,ALT,Alanine Aminotransferase,CHEMISTRY,22.02,U/L,7.0,56.0,22.02,22.02,U/L,7.0,56.0,NORMAL,,WEEK 1,3,2025-06-10,7
STUDY001,LB,STUDY001-SUBJ0010,31,L00031,HGB,Hemoglobin,HEMATOLOGY,15.37,g/dL,13.5,17.5,15.37,15.37,g/dL,13.5,17.5,NORMAL,,WEEK 2,4,2025-06-17,14
STUDY001,LB,STUDY001-SUBJ0010,32,L00032,HCT,Hematocrit,HEMATOLOGY,42.56,%,41.0,51.0,42.56,42.56,%,41.0,51.0,NORMAL,,WEEK 2,4,2025-06-17,14
STUDY001,LB,STUDY001-SUBJ0010,33,L00033,WBC,White Blood Cell Count,HEMATOLOGY,5.47,10^9/L,4.5,11.0,5.47,5.47,10^9/L,4.5,11.0,NORMAL,,WEEK 2,4,2025-06-17,14
STUDY001,LB,STUDY001-SUBJ0010,34,L00034,PLT,Platelet Count,HEMATOLOGY,274.6,10^9/L,150.0,450.0,274.6,274.6,10^9/L,150.0,450.0,NORMAL,,WEEK 2,4,2025-06-17,14
STUDY001,LB,STUDY001-SUBJ0010,35,L00035,GLUC,Glucose,CHEMISTRY,99.81,mg/dL,70.0,100.0,99.81,99.81,mg/dL,70.0,100.0,NORMAL,,WEEK 2,4,2025-06-17,14
STUDY001,LB,STUDY001-SUBJ0010,36,L00036,BUN,Blood Urea Nitrogen,CHEMISTRY,18.56,mg/dL,7.0,20.0,18.56,18.56,mg/dL,7.0,20.0,NORMAL,,WEEK 2,4,2025-06-17,14
STUDY001,LB,STUDY001-SUBJ0010,37,L00037,CREAT,Creatinine,CHEMISTRY,1.1,mg/dL,0.6,1.2,1.1,1.1,mg/dL,0.6,1.2,NORMAL,,WEEK 2,4,2025-06-17,14
STUDY001,LB,STUDY001-SUBJ0010,38,L00038,BILI,Total Bilirubin,CHEMISTRY,0.63,mg/dL,0.1,1.2,0.63,0.63,mg/dL,0.1,1.2,NORMAL,,WEEK 2,4,2025-06-17,14
STUDY001,LB,STUDY001-SUBJ0010,39,L00039,ALP,Alkaline Phosphatase,CHEMISTRY,99.68,U/L,44.0,147.0,99.68,99.68,U/L,44.0,147.0,NORMAL,,WEEK 2,4,2025-06-17,14
STUDY001,LB,STUDY001-SUBJ0010,40,L00040,ALT,Alanine Aminotransferase,CHEMISTRY,23.73,U/L,7.0,56.0,23.73,23.73,U/L,7.0,56.0,NORMAL,,WEEK 2,4,2025-06-17,14
STUDY001,LB,STUDY001-SUBJ0010,41,L00041,HGB,Hemoglobin,HEMATOLOGY,15.36,g/dL,13.5,17.5,15.36,15.36,g/dL,13.5,17.5,NORMAL,,WEEK 4,5,2025-07-01,28
STUDY001,LB,STUDY001-SUBJ0010,42,L00042,HCT,Hematocrit,HEMATOLOGY,42.46,%,41.0,51.0,42.46,42.46,%,41.0,51.0,NORMAL,,WEEK 4,5,2025-07-01,28
STUDY001,LB,STUDY001-SUBJ0010,43,L00043,WBC,White Blood Cell Count,HEMATOLOGY,5.86,10^9/L,4.5,11.0,5.86,5.86,10^9/L,4.5,11.0,NORMAL,,WEEK 4,5,2025-07-01,28
STUDY001,LB,STUDY001-SUBJ0010,44,L00044,PLT,Platelet Count,HEMATOLOGY,265.63,10^9/L,150.0,450.0,265.63,265.63,10^9/L,150.0,450.0,NORMAL,,WEEK 4,5,2025-07-01,28
STUDY001,LB,STUDY001-SUBJ0010,45,L00045,GLUC,Glucose,CHEMISTRY,100.14,mg/dL,70.0,100.0,100.14,100.14,mg/dL,70.0,100.0,HIGH,,WEEK 4,5,2025-07-01,28
STUDY001,LB,STUDY001-SUBJ0010,46,L00046,BUN,Blood Urea Nitrogen,CHEMISTRY,18.46,mg/dL,7.0,20.0,18.46,18.46,mg/dL,7.0,20.0,NORMAL,,WEEK 4,5,2025-07-01,28
STUDY001,LB,STUDY001-SUBJ0010,47,L00047,CREAT,Creatinine,CHEMISTRY,1.11,mg/dL,0.6,1.2,1.11,1.11,mg/dL,0.6,1.2,NORMAL,,WEEK 4,5,2025-07-01,28
STUDY001,LB,STUDY001-SUBJ0010,48,L00048,BILI,Total Bilirubin,CHEMISTRY,0.66,mg/dL,0.1,1.2,0.66,0.66,mg/dL,0.1,1.2,NORMAL,,WEEK 4,5,2025-07-01,28
STUDY001,LB,STUDY001-SUBJ0010,49,L00049,ALP,Alkaline Phosphatase,CHEMISTRY,98.93,U/L,44.0,147.0,98.93,98.93,U/L,44.0,147.0,NORMAL,,WEEK 4,5,2025-07-01,28
STUDY001,LB,STUDY001-SUBJ0010,50,L00050,ALT,Alanine Aminotransferase,CHEMISTRY,23.17,U/L,7.0,56.0,23.17,23.17,U/L,7.0,56.0,NORMAL,,WEEK 4,5,2025-07-01,28
STUDY001,LB,STUDY001-SUBJ0010,51,L00051,HGB,Hemoglobin,HEMATOLOGY,15.41,g/dL,13.5,17.5,15.41,15.41,g/dL,13.5,17.5,NORMAL,,WEEK 8,6,2025-07-29,56
STUDY001,LB,STUDY001-SUBJ0010,52,L00052,HCT,Hematocrit,HEMATOLOGY,42.97,%,41.0,51.0,42.97,42.97,%,41.0,51.0,NORMAL,,WEEK 8,6,2025-07-29,56
STUDY001,LB,STUDY001-SUBJ0010,53,L00053,WBC,White Blood Cell Count,HEMATOLOGY,5.69,10^9/L,4.5,11.0,5.69,5.69,10^9/L,4.5,11.0,NORMAL,,WEEK 8,6,2025-07-29,56
STUDY001,LB,STUDY001-SUBJ0010,54,L00054,PLT,Platelet Count,HEMATOLOGY,268.08,10^9/L,150.0,450.0,268.08,268.08,10^9/L,150.0,450.0,NORMAL,,WEEK 8,6,2025-07-29,56
STUDY001,LB,STUDY001-SUBJ0010,55,L00055,GLUC,Glucose,CHEMISTRY,99.05,mg/dL,70.0,100.0,99.05,99.05,mg/dL,70.0,100.0,NORMAL,,WEEK 8,6,2025-07-29,56
STUDY001,LB,STUDY001-SUBJ0010,56,L00056,BUN,Blood Urea Nitrogen,CHEMISTRY,18.09,mg/dL,7.0,20.0,18.09,18.09,mg/dL,7.0,20.0,NORMAL,,WEEK 8,6,2025-07-29,56
STUDY001,LB,STUDY001-SUBJ0010,57,L00057,CREAT,Creatinine,CHEMISTRY,1.12,mg/dL,0.6,1.2,1.12,1.12,mg/dL,0.6,1.2,NORMAL,,WEEK 8,6,2025-07-29,56
STUDY001,LB,STUDY001-SUBJ0010,58,L00058,BILI,Total Bilirubin,CHEMISTRY,0.66,mg/dL,0.1,1.2,0.66,0.66,mg/dL,0.1,1.2,NORMAL,,WEEK 8,6,2025-07-29,56
STUDY001,LB,STUDY001-SUBJ0010,59,L00059,ALP,Alkaline Phosphatase,CHEMISTRY,95.52,U/L,44.0,147.0,95.52,95.52,U/L,44.0,147.0,NORMAL,,WEEK 8,6,2025-07-29,56
STUDY001,LB,STUDY001-SUBJ0010,60,L00060,ALT,Alanine Aminotransferase,CHEMISTRY,23.82,U/L,7.0,56.0,23.82,23.82,U/L,7.0,56.0,NORMAL,,WEEK 8,6,2025-07-29,56
STUDY001,LB,STUDY001-SUBJ0010,61,L00061,HGB,Hemoglobin,HEMATOLOGY,15.56,g/dL,13.5,17.5,15.56,15.56,g/dL,13.5,17.5,NORMAL,,WEEK 12,7,2025-08-26,84
STUDY001,LB,STUDY001-SUBJ0010,62,L00062,HCT,Hematocrit,HEMATOLOGY,42.56,%,41.0,51.0,42.56,42.56,%,41.0,51.0,NORMAL,,WEEK 12,7,2025-08-26,84
STUDY001,LB,STUDY001-SUBJ0010,63,L00063,WBC,White Blood Cell Count,HEMATOLOGY,5.59,10^9/L,4.5,11.0,5.59,5.59,10^9/L,4.5,11.0,NORMAL,,WEEK 12,7,2025-08-26,84
STUDY001,LB,STUDY001-SUBJ0010,64,L00064,PLT,Platelet Count,HEMATOLOGY,267.76,10^9/L,150.0,450.0,267.76,267.76,10^9/L,150.0,450.0,NORMAL,,WEEK 12,7,2025-08-26,84
STUDY001,LB,STUDY001-SUBJ0010,65,L00065,GLUC,Glucose,CHEMISTRY,100.17,mg/dL,70.0,100.0,100.17,100.17,mg/dL,70.0,100.0,HIGH,,WEEK 12,7,2025-08-26,84
STUDY001,LB,STUDY001-SUBJ0010,66,L00066,BUN,Blood Urea Nitrogen,CHEMISTRY,18.28,mg/dL,7.0,20.0,18.28,18.28,mg/dL,7.0,20.0,NORMAL,,WEEK 12,7,2025-08-26,84
STUDY001,LB,STUDY001-SUBJ0010,67,L00067,CREAT,Creatinine,CHEMISTRY,1.12,mg/dL,0.6,1.2,1.12,1.12,mg/dL,0.6,1.2,NORMAL,,WEEK 12,7,2025-08-26,84
STUDY001,LB,STUDY001-SUBJ0010,68,L00068,BILI,Total Bilirubin,CHEMISTRY,0.61,mg/dL,0.1,1.2,0.61,0.61,mg/dL,0.1,1.2,NORMAL,,WEEK 12,7,2025-08-26,84
STUDY001,LB,STUDY001-SUBJ0010,69,L00069,ALP,Alkaline Phosphatase,CHEMISTRY,97.46,U/L,44.0,147.0,97.46,97.46,U/L,44.0,147.0,NORMAL,,WEEK 12,7,2025-08-26,84
STUDY001,LB,STUDY001-SUBJ0010,70,L00070,ALT,Alanine Aminotransferase,CHEMISTRY,23.93,U/L,7.0,56.0,23.93,23.93,U/L,7.0,56.0,NORMAL,,WEEK 12,7,2025-08-26,84
STUDY001,LB,STUDY001-SUBJ0010,71,L00071,HGB,Hemoglobin,HEMATOLOGY,15.43,g/dL,13.5,17.5,15.43,15.43,g/dL,13.5,17.5,NORMAL,,WEEK 16,8,2025-09-23,112
STUDY001,LB,STUDY001-SUBJ0010,72,L00072,HCT,Hematocrit,HEMATOLOGY,42.94,%,41.0,51.0,42.94,42.94,%,41.0,51.0,NORMAL,,WEEK 16,8,2025-09-23,112
STUDY001,LB,STUDY001-SUBJ0010,73,L00073,WBC,White Blood Cell Count,HEMATOLOGY,5.72,10^9/L,4.5,11.0,5.72,5.72,10^9/L,4.5,11.0,NORMAL,,WEEK 16,8,2025-09-23,112
STUDY001,LB,STUDY001-SUBJ0010,74,L00074,PLT,Platelet Count,HEMATOLOGY,269.23,10^9/L,150.0,450.0,269.23,269.23,10^9/L,150.0,450.0,NORMAL,,WEEK 16,8,2025-09-23,112
STUDY001,LB,STUDY001-SUBJ0010,75,L00075,GLUC,Glucose,CHEMISTRY,99.75,mg/dL,70.0,100.0,99.75,99.75,mg/dL,70.0,100.0,NORMAL,,WEEK 16,8,2025-09-23,112
STUDY001,LB,STUDY001-SUBJ0010,76,L00076,BUN,Blood Urea Nitrogen,CHEMISTRY,18.58,mg/dL,7.0,20.0,18.58,18.58,mg/dL,7.0,20.0,NORMAL,,WEEK 16,8,2025-09-23,112
STUDY001,LB,STUDY001-SUBJ0010,77,L00077,CREAT,Creatinine,CHEMISTRY,1.1,mg/dL,0.6,1.2,1.1,1.1,mg/dL,0.6,1.2,NORMAL,,WEEK 16,8,2025-09-23,112
STUDY001,LB,STUDY001-SUBJ0010,78,L00078,BILI,Total Bilirubin,CHEMISTRY,0.64,mg/dL,0.1,1.2,0.64,0.64,mg/dL,0.1,1.2,NORMAL,,WEEK 16,8,2025-09-23,112
STUDY001,LB,STUDY001-SUBJ0010,79,L00079,ALP,Alkaline Phosphatase,CHEMISTRY,96.46,U/L,44.0,147.0,96.46,96.46,U/L,44.0,147.0,NORMAL,,WEEK 16,8,2025-09-23,112
STUDY001,LB,STUDY001-SUBJ0010,80,L00080,ALT,Alanine Aminotransferase,CHEMISTRY,22.27,U/L,7.0,56.0,22.27,22.27,U/L,7.0,56.0,NORMAL,,WEEK 16,8,2025-09-23,112
STUDY001,LB,STUDY001-SUBJ0010,81,L00081,HGB,Hemoglobin,HEMATOLOGY,15.45,g/dL,13.5,17.5,15.45,15.45,g/dL,13.5,17.5,NORMAL,,END OF TREATMENT,9,2025-10-21,140
STUDY001,LB,STUDY001-SUBJ0010,82,L00082,HCT,Hematocrit,HEMATOLOGY,42.85,%,41.0,51.0,42.85,42.85,%,41.0,51.0,NORMAL,,END OF TREATMENT,9,2025-10-21,140
STUDY001,LB,STUDY001-SUBJ0010,83,L00083,WBC,White Blood Cell Count,HEMATOLOGY,5.61,10^9/L,4.5,11.0,5.61,5.61,10^9/L,4.5,11.0,NORMAL,,END OF TREATMENT,9,2025-10-21,140
STUDY001,LB,STUDY001-SUBJ0010,84,L00084,PLT,Platelet Count,HEMATOLOGY,278.64,10^9/L,150.0,450.0,278.64,278.64,10^9/L,150.0,450.0,NORMAL,,END OF TREATMENT,9,2025-10-21,140
STUDY001,LB,STUDY001-SUBJ0010,85,L00085,GLUC,Glucose,CHEMISTRY,100.81,mg/dL,70.0,100.0,100.81,100.81,mg/dL,70.0,100.0,HIGH,,END OF TREATMENT,9,2025-10-21,140
STUDY001,LB,STUDY001-SUBJ0010,86,L00086,BUN,Blood Urea Nitrogen,CHEMISTRY,18.28,mg/dL,7.0,20.0,18.28,18.28,mg/dL,7.0,20.0,NORMAL,,END OF TREATMENT,9,2025-10-21,140
STUDY001,LB,STUDY001-SUBJ0010,87,L00087,CREAT,Creatinine,CHEMISTRY,1.09,mg/dL,0.6,1.2,1.09,1.09,mg/dL,0.6,1.2,NORMAL,,END OF TREATMENT,9,2025-10-21,140
STUDY001,LB,STUDY001-SUBJ0010,88,L00088,BILI,Total Bilirubin,CHEMISTRY,0.61,mg/dL,0.1,1.2,0.61,0.61,mg/dL,0.1,1.2,NORMAL,,END OF TREATMENT,9,2025-10-21,140
STUDY001,LB,STUDY001-SUBJ0010,89,L00089,ALP,Alkaline Phosphatase,CHEMISTRY,98.27,U/L,44.0,147.0,98.27,98.27,U/L,44.0,147.0,NORMAL,,END OF TREATMENT,9,2025-10-21,140
STUDY001,LB,STUDY001-SUBJ0010,90,L00090,ALT,Alanine Aminotransferase,CHEMISTRY,23.81,U/L,7.0,56.0,23.81,23.81,U/L,7.0,56.0,NORMAL,,END OF TREATMENT,9,2025-10-21,140
