STUDYID,DOMAIN,USUBJID,LBSEQ,LBREFID,LBTESTCD,LBTEST,LBCAT,LBORRES,LBORRESU,LBORNRLO,LBORNRHI,LBSTRESC,LBSTRESN,LBSTRESU,LBSTNRLO,LBSTNRHI,LBNRIND,LBBLFL,VISIT,VISITNUM,LBDTC,LBDY
STUDY001,LB,STUDY001-SUBJ0001,1,L00001,HGB,Hemoglobin,HEMATOLOGY,12.6,g/dL,13.5,17.5,12.6,12.6,g/dL,13.5,17.5,LOW,,SCREENING,1,2025-04-04,-14
STUDY001,LB,STUDY001-SUBJ0001,2,L00002,HCT,Hematocrit,HEMATOLOGY,44.73,%,41.0,51.0,44.73,44.73,%,41.0,51.0,NORMAL,,SCREENING,1,2025-04-04,-14
STUDY001,LB,STUDY001-SUBJ0001,3,L00003,WBC,White Blood Cell Count,HEMATOLOGY,7.97,10^9/L,4.5,11.0,7.97,7.97,10^9/L,4.5,11.0,NORMAL,,SCREENING,1,2025-04-04,-14
STUDY001,LB,STUDY001-SUBJ0001,4,L00004,PLT,Platelet Count,HEMATOLOGY,289.89,10^9/L,150.0,450.0,289.89,289.89,10^9/L,150.0,450.0,NORMAL,,SCREENING,1,2025-04-04,-14
STUDY001,LB,STUDY001-SUBJ0001,5,L00005,GLUC,Glucose,CHEMISTRY,74.9,mg/dL,70.0,100.0,74.9,74.9,mg/dL,70.0,100.0,NORMAL,,SCREENING,1,2025-04-04,-14
STUDY001,LB,STUDY001-SUBJ0001,6,L00006,BUN,Blood Urea Nitrogen,CHEMISTRY,9.61,mg/dL,7.0,20.0,9.61,9.61,mg/dL,7.0,20.0,NORMAL,,SCREENING,1,2025-04-04,-14
STUDY001,LB,STUDY001-SUBJ0001,7,L00007,CREAT,Creatinine,CHEMISTRY,0.59,mg/dL,0.6,1.2,0.59,0.59,mg/dL,0.6,1.2,LOW,,SCREENING,1,2025-04-04,-14
STUDY001,LB,STUDY001-SUBJ0001,8,L00008,BILI,Total Bilirubin,CHEMISTRY,0.77,mg/dL,0.1,1.2,0.77,0.77,mg/dL,0.1,1.2,NORMAL,,SCREENING,1,2025-04-04,-14
STUDY001,LB,STUDY001-SUBJ0001,9,L00009,ALP,Alkaline Phosphatase,CHEMISTRY,72.6,U/L,44.0,147.0,72.6,72.6,U/L,44.0,147.0,NORMAL,,SCREENING,1,2025-04-04,-14
STUDY001,LB,STUDY001-SUBJ0001,10,L00010,ALT,Alanine Aminotransferase,CHEMISTRY,28.29,U/L,7.0,56.0,28.29,28.29,U/L,7.0,56.0,NORMAL,,SCREENING,1,2025-04-04,-14
STUDY001,LB,STUDY001-SUBJ0001,11,L00011,HGB,Hemoglobin,HEMATOLOGY,12.58,g/dL,13.5,17.5,12.58,12.58,g/dL,13.5,17.5,LOW,Y,BASELINE,2,2025-04-18,1
STUDY001,LB,STUDY001-SUBJ0001,12,L00012,HCT,Hematocrit,HEMATOLOGY,44.37,%,41.0,51.0,44.37,44.37,%,41.0,51.0,NORMAL,Y,BASELINE,2,2025-04-18,1
STUDY001,LB,STUDY001-SUBJ0001,13,L00013,WBC,White Blood Cell Count,HEMATOLOGY,7.87,10^9/L,4.5,11.0,7.87,7.87,10^9/L,4.5,11.0,NORMAL,Y,BASELINE,2,2025-04-18,1
STUDY001,LB,STUDY001-SUBJ0001,14,L00014,PLT,Platelet Count,HEMATOLOGY,295.82,10^9/L,150.0,450.0,295.82,295.82,10^9/L,150.0,450.0,NORMAL,Y,BASELINE,2,2025-04-18,1
STUDY001,LB,STUDY001-SUBJ0001,15,L00015,GLUC,Glucose,CHEMISTRY,74.79,mg/dL,70.0,100.0,74.79,74.79,mg/dL,70.0,100.0,NORMAL,Y,BASELINE,2,2025-04-18,1
STUDY001,LB,STUDY001-SUBJ0001,16,L00016,BUN,Blood Urea Nitrogen,CHEMISTRY,9.43,mg/dL,7.0,20.0,9.43,9.43,mg/dL,7.0,20.0,NORMAL,Y,BASELINE,2,2025-04-18,1
STUDY001,LB,STUDY001-SUBJ0001,17,L00017,CREAT,Creatinine,CHEMISTRY,0.63,mg/dL,0.6,1.2,0.63,0.63,mg/dL,0.6,1.2,NORMAL,Y,BASELINE,2,2025-04-18,1
STUDY001,LB,STUDY001-SUBJ0001,18,L00018,BILI,Total Bilirubin,CHEMISTRY,0.78,mg/dL,0.1,1.2,0.78,0.78,mg/dL,0.1,1.2,NORMAL,Y,BASELINE,2,2025-04-18,1
STUDY001,LB,STUDY001-SUBJ0001,19,L00019,ALP,Alkaline Phosphatase,CHEMISTRY,74.44,U/L,44.0,147.0,74.44,74.44,U/L,44.0,147.0,NORMAL,Y,BASELINE,2,2025-04-18,1
STUDY001,LB,STUDY001-SUBJ0001,20,L00020,ALT,Alanine Aminotransferase,CHEMISTRY,27.29,U/L,7.0,56.0,27.29,27.29,U/L,7.0,56.0,NORMAL,Y,BASELINE,2,2025-04-18,1
STUDY001,LB,STUDY001-SUBJ0001,21,L00021,HGB,Hemoglobin,HEMATOLOGY,12.62,g/dL,13.5,17.5,12.62,12.62,g/dL,13.5,17.5,LOW,,WEEK 1,3,2025-04-24,7
STUDY001,LB,STUDY001-SUBJ0001,22,L00022,HCT,Hematocrit,HEMATOLOGY,44.76,%,41.0,51.0,44.76,44.76,%,41.0,51.0,NORMAL,,WEEK 1,3,2025-04-24,7
STUDY001,LB,STUDY001-SUBJ0001,23,L00023,WBC,White Blood Cell Count,HEMATOLOGY,7.98,10^9/L,4.5,11.0,7.98,7.98,10^9/L,4.5,11.0,NORMAL,,WEEK 1,3,2025-04-24,7
STUDY001,LB,STUDY001-SUBJ0001,24,L00024,PLT,Platelet Count,HEMATOLOGY,291.7,10^9/L,150.0,450.0,291.7,291.7,10^9/L,150.0,450.0,NORMAL,,WEEK 1,3,2025-04-24,7
STUDY001,LB,STUDY001-SUBJ0001,25,L00025,GLUC,Glucose,CHEMISTRY,76.28,mg/dL,70.0,100.0,76.28,76.28,mg/dL,70.0,100.0,NORMAL,,WEEK 1,3,2025-04-24,7
STUDY001,LB,STUDY001-SUBJ0001,26,L00026,BUN,Blood Urea Nitrogen,CHEMISTRY,9.92,mg/dL,7.0,20.0,9.92,9.92,mg/dL,7.0,20.0,NORMAL,,WEEK 1,3,2025-04-24,7
STUDY001,LB,STUDY001-SUBJ0001,27,L00027,CREAT,Creatinine,CHEMISTRY,0.59,mg/dL,0.6,1.2,0.59,0.59,mg/dL,0.6,1.2,LOW,,WEEK 1,3,2025-04-24,7
STUDY001,LB,STUDY001-SUBJ0001,28,L00028,BILI,Total Bilirubin,CHEMISTRY,0.75,mg/dL,0.1,1.2,0.75,0.75,mg/dL,0.1,1.2,NORMAL,,WEEK 1,3,2025-04-24,7
STUDY001,LB,STUDY001-SUBJ0001,29,L00029,ALP,Alkaline Phosphatase,CHEMISTRY,73.73,U/L,44.0,147.0,73.73,73.73,U/L,44.0,147.0,NORMAL,,WEEK 1,3,2025-04-24,7
STUDY001,LB,STUDY001-SUBJ0001,30,L00030,ALT,Alanine Aminotransferase,CHEMISTRY,27.85,U/L,7.0,56.0,27.85,27.85,U/L,7.0,56.0,NORMAL,,WEEK 1,3,2025-04-24,7
STUDY001,LB,STUDY001-SUBJ0001,31,L00031,HGB,Hemoglobin,HEMATOLOGY,12.64,g/dL,13.5,17.5,12.64,12.64,g/dL,13.5,17.5,LOW,,WEEK 2,4,2025-05-01,14
STUDY001,LB,STUDY001-SUBJ0001,32,L00032,HCT,Hematocrit,HEMATOLOGY,44.65,%,41.0,51.0,44.65,44.65,%,41.0,51.0,NORMAL,,WEEK 2,4,2025-05-01,14
STUDY001,LB,STUDY001-SUBJ0001,33,L00033,WBC,White Blood Cell Count,HEMATOLOGY,7.65,10^9/L,4.5,11.0,7.65,7.65,10^9/L,4.5,11.0,NORMAL,,WEEK 2,4,2025-05-01,14
STUDY001,LB,STUDY001-SUBJ0001,34,L00034,PLT,Platelet Count,HEMATOLOGY,297.66,10^9/L,150.0,450.0,297.66,297.66,10^9/L,150.0,450.0,NORMAL,,WEEK 2,4,2025-05-01,14
STUDY001,LB,STUDY001-SUBJ0001,35,L00035,GLUC,Glucose,CHEMISTRY,75.72,mg/dL,70.0,100.0,75.72,75.72,mg/dL,70.0,100.0,NORMAL,,WEEK 2,4,2025-05-01,14
STUDY001,LB,STUDY001-SUBJ0001,36,L00036,BUN,Blood Urea Nitrogen,CHEMISTRY,9.67,mg/dL,7.0,20.0,9.67,9.67,mg/dL,7.0,20.0,NORMAL,,WEEK 2,4,2025-05-01,14
STUDY001,LB,STUDY001-SUBJ0001,37,L00037,CREAT,Creatinine,CHEMISTRY,0.62,mg/dL,0.6,1.2,0.62,0.62,mg/dL,0.6,1.2,NORMAL,,WEEK 2,4,2025-05-01,14
STUDY001,LB,STUDY001-SUBJ0001,38,L00038,BILI,Total Bilirubin,CHEMISTRY,0.74,mg/dL,0.1,1.2,0.74,0.74,mg/dL,0.1,1.2,NORMAL,,WEEK 2,4,2025-05-01,14
STUDY001,LB,STUDY001-SUBJ0001,39,L00039,ALP,Alkaline Phosphatase,CHEMISTRY,75.26,U/L,44.0,147.0,75.26,75.26,U/L,44.0,147.0,NORMAL,,WEEK 2,4,2025-05-01,14
STUDY001,LB,STUDY001-SUBJ0001,40,L00040,ALT,Alanine Aminotransferase,CHEMISTRY,27.48,U/L,7.0,56.0,27.48,27.48,U/L,7.0,56.0,NORMAL,,WEEK 2,4,2025-05-01,14
STUDY001,LB,STUDY001-SUBJ0001,41,L00041,HGB,Hemoglobin,HEMATOLOGY,12.35,g/dL,13.5,17.5,12.35,12.35,g/dL,13.5,17.5,LOW,,WEEK 4,5,2025-05-15,28
STUDY001,LB,STUDY001-SUBJ0001,42,L00042,HCT,Hematocrit,HEMATOLOGY,44.6,%,41.0,51.0,44.6,44.6,%,41.0,51.0,NORMAL,,WEEK 4,5,2025-05-15,28
STUDY001,LB,STUDY001-SUBJ0001,43,L00043,WBC,White Blood Cell Count,HEMATOLOGY,8.03,10^9/L,4.5,11.0,8.03,8.03,10^9/L,4.5,11.0,NORMAL,,WEEK 4,5,2025-05-15,28
STUDY001,LB,STUDY001-SUBJ0001,44,L00044,PLT,Platelet Count,HEMATOLOGY,308.89,10^9/L,150.0,450.0,308.89,308.89,10^9/L,150.0,450.0,NORMAL,,WEEK 4,5,2025-05-15,28
STUDY001,LB,STUDY001-SUBJ0001,45,L00045,GLUC,Glucose,CHEMISTRY,73.82,mg/dL,70.0,100.0,73.82,73.82,mg/dL,70.0,100.0,NORMAL,,WEEK 4,5,2025-05-15,28
STUDY001,LB,STUDY001-SUBJ0001,46,L00046,BUN,Blood Urea Nitrogen,CHEMISTRY,8.79,mg/dL,7.0,20.0,8.79,8.79,mg/dL,7.0,20.0,NORMAL,,WEEK 4,5,2025-05-15,28
STUDY001,LB,STUDY001-SUBJ0001,47,L00047,CREAT,Creatinine,CHEMISTRY,0.64,mg/dL,0.6,1.2,0.64,0.64,mg/dL,0.6,1.2,NORMAL,,WEEK 4,5,2025-05-15,28
STUDY001,LB,STUDY001-SUBJ0001,48,L00048,BILI,Total Bilirubin,CHEMISTRY,0.79,mg/dL,0.1,1.2,0.79,0.79,mg/dL,0.1,1.2,NORMAL,,WEEK 4,5,2025-05-15,28
STUDY001,LB,STUDY001-SUBJ0001,49,L00049,ALP,Alkaline Phosphatase,CHEMISTRY,72.14,U/L,44.0,147.0,72.14,72.14,U/L,44.0,147.0,NORMAL,,WEEK 4,5,2025-05-15,28
STUDY001,LB,STUDY001-SUBJ0001,50,L00050,ALT,Alanine Aminotransferase,CHEMISTRY,25.64,U/L,7.0,56.0,25.64,25.64,U/L,7.0,56.0,NORMAL,,WEEK 4,5,2025-05-15,28
STUDY001,LB,STUDY001-SUBJ0001,51,L00051,HGB,Hemoglobin,HEMATOLOGY,12.53,g/dL,13.5,17.5,12.53,12.53,g/dL,13.5,17.5,LOW,,WEEK 8,6,2025-06-12,56
STUDY001,LB,STUDY001-SUBJ0001,52,L00052,HCT,Hematocrit,HEMATOLOGY,44.4,%,41.0,51.0,44.4,44.4,%,41.0,51.0,NORMAL,,WEEK 8,6,2025-06-12,56
STUDY001,LB,STUDY001-SUBJ0001,53,L00053,WBC,White Blood Cell Count,HEMATOLOGY,7.78,10^9/L,4.5,11.0,7.78,7.78,10^9/L,4.5,11.0,NORMAL,,WEEK 8,6,2025-06-12,56
STUDY001,LB,STUDY001-SUBJ0001,54,L00054,PLT,Platelet Count,HEMATOLOGY,298.74,10^9/L,150.0,450.0,298.74,298.74,10^9/L,150.0,450.0,NORMAL,,WEEK 8,6,2025-06-12,56
STUDY001,LB,STUDY001-SUBJ0001,55,L00055,GLUC,Glucose,CHEMISTRY,75.38,mg/dL,70.0,100.0,75.38,75.38,mg/dL,70.0,100.0,NORMAL,,WEEK 8,6,2025-06-12,56
STUDY001,LB,STUDY001-SUBJ0001,56,L00056,BUN,Blood Urea Nitrogen,CHEMISTRY,9.4,mg/dL,7.0,20.0,9.4,9.4,mg/dL,7.0,20.0,NORMAL,,WEEK 8,6,2025-06-12,56
STUDY001,LB,STUDY001-SUBJ0001,57,L00057,CREAT,Creatinine,CHEMISTRY,0.6,mg/dL,0.6,1.2,0.6,0.6,mg/dL,0.6,1.2,NORMAL,,WEEK 8,6,2025-06-12,56
STUDY001,LB,STUDY001-SUBJ0001,58,L00058,BILI,Total Bilirubin,CHEMISTRY,0.73,mg/dL,0.1,1.2,0.73,0.73,mg/dL,0.1,1.2,NORMAL,,WEEK 8,6,2025-06-12,56
STUDY001,LB,STUDY001-SUBJ0001,59,L00059,ALP,Alkaline Phosphatase,CHEMISTRY,69.84,U/L,44.0,147.0,69.84,69.84,U/L,44.0,147.0,NORMAL,,WEEK 8,6,2025-06-12,56
STUDY001,LB,STUDY001-SUBJ0001,60,L00060,ALT,Alanine Aminotransferase,CHEMISTRY,29.33,U/L,7.0,56.0,29.33,29.33,U/L,7.0,56.0,NORMAL,,WEEK 8,6,2025-06-12,56
STUDY001,LB,STUDY001-SUBJ0001,61,L00061,HGB,Hemoglobin,HEMATOLOGY,12.42,g/dL,13.5,17.5,12.42,12.42,g/dL,13.5,17.5,LOW,,WEEK 12,7,2025-07-10,84
STUDY001,LB,STUDY001-SUBJ0001,62,L00062,HCT,Hematocrit,HEMATOLOGY,44.41,%,41.0,51.0,44.41,44.41,%,41.0,51.0,NORMAL,,WEEK 12,7,2025-07-10,84
STUDY001,LB,STUDY001-SUBJ0001,63,L00063,WBC,White Blood Cell Count,HEMATOLOGY,7.79,10^9/L,4.5,11.0,7.79,7.79,10^9/L,4.5,11.0,NORMAL,,WEEK 12,7,2025-07-10,84
STUDY001,LB,STUDY001-SUBJ0001,64,L00064,PLT,Platelet Count,HEMATOLOGY,296.08,10^9/L,150.0,450.0,296.08,296.08,10^9/L,150.0,450.0,NORMAL,,WEEK 12,7,2025-07-10,84
STUDY001,LB,STUDY001-SUBJ0001,65,L00065,GLUC,Glucose,CHEMISTRY,74.41,mg/dL,70.0,100.0,74.41,74.41,mg/dL,70.0,100.0,NORMAL,,WEEK 12,7,2025-07-10,84
STUDY001,LB,STUDY001-SUBJ0001,66,L00066,BUN,Blood Urea Nitrogen,CHEMISTRY,9.75,mg/dL,7.0,20.0,9.75,9.75,mg/dL,7.0,20.0,NORMAL,,WEEK 12,7,2025-07-10,84
STUDY001,LB,STUDY001-SUBJ0001,67,L00067,CREAT,Creatinine,CHEMISTRY,0.61,mg/dL,0.6,1.2,0.61,0.61,mg/dL,0.6,1.2,NORMAL,,WEEK 12,7,2025-07-10,84
STUDY001,LB,STUDY001-SUBJ0001,68,L00068,BILI,Total Bilirubin,CHEMISTRY,0.72,mg/dL,0.1,1.2,0.72,0.72,mg/dL,0.1,1.2,NORMAL,,WEEK 12,7,2025-07-10,84
STUDY001,LB,STUDY001-SUBJ0001,69,L00069,ALP,Alkaline Phosphatase,CHEMISTRY,72.35,U/L,44.0,147.0,72.35,72.35,U/L,44.0,147.0,NORMAL,,WEEK 12,7,2025-07-10,84
STUDY001,LB,STUDY001-SUBJ0001,70,L00070,ALT,Alanine Aminotransferase,CHEMISTRY,27.94,U/L,7.0,56.0,27.94,27.94,U/L,7.0,56.0,NORMAL,,WEEK 12,7,2025-07-10,84
STUDY001,LB,STUDY001-SUBJ0001,71,L00071,HGB,Hemoglobin,HEMATOLOGY,12.68,g/dL,13.5,17.5,12.68,12.68,g/dL,13.5,17.5,LOW,,WEEK 16,8,2025-08-07,112
STUDY001,LB,STUDY001-SUBJ0001,72,L00072,HCT,Hematocrit,HEMATOLOGY,44.63,%,41.0,51.0,44.63,44.63,%,41.0,51.0,NORMAL,,WEEK 16,8,2025-08-07,112
STUDY001,LB,STUDY001-SUBJ0001,73,L00073,WBC,White Blood Cell Count,HEMATOLOGY,8.08,10^9/L,4.5,11.0,8.08,8.08,10^9/L,4.5,11.0,NORMAL,,WEEK 16,8,2025-08-07,112
STUDY001,LB,STUDY001-SUBJ0001,74,L00074,PLT,Platelet Count,HEMATOLOGY,297.21,10^9/L,150.0,450.0,297.21,297.21,10^9/L,150.0,450.0,NORMAL,,WEEK 16,8,2025-08-07,112
STUDY001,LB,STUDY001-SUBJ0001,75,L00075,GLUC,Glucose,CHEMISTRY,74.46,mg/dL,70.0,100.0,74.46,74.46,mg/dL,70.0,100.0,NORMAL,,WEEK 16,8,2025-08-07,112
STUDY001,LB,STUDY001-SUBJ0001,76,L00076,BUN,Blood Urea Nitrogen,CHEMISTRY,9.58,mg/dL,7.0,20.0,9.58,9.58,mg/dL,7.0,20.0,NORMAL,,WEEK 16,8,2025-08-07,112
STUDY001,LB,STUDY001-SUBJ0001,77,L00077,CREAT,Creatinine,CHEMISTRY,0.59,mg/dL,0.6,1.2,0.59,0.59,mg/dL,0.6,1.2,LOW,,WEEK 16,8,2025-08-07,112
STUDY001,LB,STUDY001-SUBJ0001,78,L00078,BILI,Total Bilirubin,CHEMISTRY,0.75,mg/dL,0.1,1.2,0.75,0.75,mg/dL,0.1,1.2,NORMAL,,WEEK 16,8,2025-08-07,112
STUDY001,LB,STUDY001-SUBJ0001,79,L00079,ALP,Alkaline Phosphatase,CHEMISTRY,73.07,U/L,44.0,147.0,73.07,73.07,U/L,44.0,147.0,NORMAL,,WEEK 16,8,2025-08-07,112
STUDY001,LB,STUDY001-SUBJ0001,80,L00080,ALT,Alanine Aminotransferase,CHEMISTRY,26.56,U/L,7.0,56.0,26.56,26.56,U/L,7.0,56.0,NORMAL,,WEEK 16,8,2025-08-07,112
STUDY001,LB,STUDY001-SUBJ0001,81,L00081,HGB,Hemoglobin,HEMATOLOGY,12.41,g/dL,13.5,17.5,12.41,12.41,g/dL,13.5,17.5,LOW,,END OF TREATMENT,9,2025-09-04,140
STUDY001,LB,STUDY001-SUBJ0001,82,L00082,HCT,Hematocrit,HEMATOLOGY,44.58,%,41.0,51.0,44.58,44.58,%,41.0,51.0,NORMAL,,END OF TREATMENT,9,2025-09-04,140
STUDY001,LB,STUDY001-SUBJ0001,83,L00083,WBC,White Blood Cell Count,HEMATOLOGY,7.97,10^9/L,4.5,11.0,7.97,7.97,10^9/L,4.5,11.0,NORMAL,,END OF TREATMENT,9,2025-09-04,140
STUDY001,LB,STUDY001-SUBJ0001,84,L00084,PLT,Platelet Count,HEMATOLOGY,289.92,10^9/L,150.0,450.0,289.92,289.92,10^9/L,150.0,450.0,NORMAL,,END OF TREATMENT,9,2025-09-04,140
STUDY001,LB,STUDY001-SUBJ0001,85,L00085,GLUC,Glucose,CHEMISTRY,75.41,mg/dL,70.0,100.0,75.41,75.41,mg/dL,70.0,100.0,NORMAL,,END OF TREATMENT,9,2025-09-04,140
STUDY001,LB,STUDY001-SUBJ0001,86,L00086,BUN,Blood Urea Nitrogen,CHEMISTRY,9.3,mg/dL,7.0,20.0,9.3,9.3,mg/dL,7.0,20.0,NORMAL,,END OF TREATMENT,9,2025-09-04,140
STUDY001,LB,STUDY001-SUBJ0001,87,L00087,CREAT,Creatinine,CHEMISTRY,0.59,mg/dL,0.6,1.2,0.59,0.59,mg/dL,0.6,1.2,LOW,,END OF TREATMENT,9,2025-09-04,140
STUDY001,LB,STUDY001-SUBJ0001,88,L00088,BILI,Total Bilirubin,CHEMISTRY,0.75,mg/dL,0.1,1.2,0.75,0.75,mg/dL,0.1,1.2,NORMAL,,END OF TREATMENT,9,2025-09-04,140
STUDY001,LB,STUDY001-SUBJ0001,89,L00089,ALP,Alkaline Phosphatase,CHEMISTRY,77.31,U/L,44.0,147.0,77.31,77.31,U/L,44.0,147.0,NORMAL,,END OF TREATMENT,9,2025-09-04,140
STUDY001,LB,STUDY001-SUBJ0001,90,L00090,ALT,Alanine Aminotransferase,CHEMISTRY,28.25,U/L,7.0,56.0,28.25,28.25,U/L,7.0,56.0,NORMAL,,END OF TREATMENT,9,2025-09-04,140
STUDY001,LB,STUDY001-SUBJ0002,1,L00001,HGB,Hemoglobin,HEMATOLOGY,14.82,g/dL,13.5,17.5,14.82,14.82,g/dL,13.5,17.5,NORMAL,,SCREENING,1,2025-02-13,-14
STUDY001,LB,STUDY001-SUBJ0002,2,L00002,HCT,Hematocrit,HEMATOLOGY,46.69,%,41.0,51.0,46.69,46.69,%,41.0,51.0,NORMAL,,SCREENING,1,2025-02-13,-14
STUDY001,LB,STUDY001-SUBJ0002,3,L00003,WBC,White Blood Cell Count,HEMATOLOGY,9.02,10^9/L,4.5,11.0,9.02,9.02,10^9/L,4.5,11.0,NORMAL,,SCREENING,1,2025-02-13,-14
STUDY001,LB,STUDY001-SUBJ0002,4,L00004,PLT,Platelet Count,HEMATOLOGY,221.32,10^9/L,150.0,450.0,221.32,221.32,10^9/L,150.0,450.0,NORMAL,,SCREENING,1,2025-02-13,-14
STUDY001,LB,STUDY001-SUBJ0002,5,L00005,GLUC,Glucose,CHEMISTRY,72.22,mg/dL,70.0,100.0,72.22,72.22,mg/dL,70.0,100.0,NORMAL,,SCREENING,1,2025-02-13,-14
STUDY001,LB,STUDY001-SUBJ0002,6,L00006,BUN,Blood Urea Nitrogen,CHEMISTRY,11.47,mg/dL,7.0,20.0,11.47,11.47,mg/dL,7.0,20.0,NORMAL,,SCREENING,1,2025-02-13,-14
STUDY001,LB,STUDY001-SUBJ0002,7,L00007,CREAT,Creatinine,CHEMISTRY,0.78,mg/dL,0.6,1.2,0.78,0.78,mg/dL,0.6,1.2,NORMAL,,SCREENING,1,2025-02-13,-14
STUDY001,LB,STUDY001-SUBJ0002,8,L00008,BILI,Total Bilirubin,CHEMISTRY,0.94,mg/dL,0.1,1.2,0.94,0.94,mg/dL,0.1,1.2,NORMAL,,SCREENING,1,2025-02-13,-14
STUDY001,LB,STUDY001-SUBJ0002,9,L00009,ALP,Alkaline Phosphatase,CHEMISTRY,65.62,U/L,44.0,147.0,65.62,65.62,U/L,44.0,147.0,NORMAL,,SCREENING,1,2025-02-13,-14
STUDY001,LB,STUDY001-SUBJ0002,10,L00010,ALT,Alanine Aminotransferase,CHEMISTRY,30.84,U/L,7.0,56.0,30.84,30.84,U/L,7.0,56.0,NORMAL,,SCREENING,1,2025-02-13,-14
STUDY001,LB,STUDY001-SUBJ0002,11,L00011,HGB,Hemoglobin,HEMATOLOGY,14.65,g/dL,13.5,17.5,14.65,14.65,g/dL,13.5,17.5,NORMAL,Y,BASELINE,2,2025-02-27,1
STUDY001,LB,STUDY001-SUBJ0002,12,L00012,HCT,Hematocrit,HEMATOLOGY,46.8,%,41.0,51.0,46.8,46.8,%,41.0,51.0,NORMAL,Y,BASELINE,2,2025-02-27,1
STUDY001,LB,STUDY001-SUBJ0002,13,L00013,WBC,White Blood Cell Count,HEMATOLOGY,8.99,10^9/L,4.5,11.0,8.99,8.99,10^9/L,4.5,11.0,NORMAL,Y,BASELINE,2,2025-02-27,1
STUDY001,LB,STUDY001-SUBJ0002,14,L00014,PLT,Platelet Count,HEMATOLOGY,230.96,10^9/L,150.0,450.0,230.96,230.96,10^9/L,150.0,450.0,NORMAL,Y,BASELINE,2,2025-02-27,1
STUDY001,LB,STUDY001-SUBJ0002,15,L00015,GLUC,Glucose,CHEMISTRY,74.52,mg/dL,70.0,100.0,74.52,74.52,mg/dL,70.0,100.0,NORMAL,Y,BASELINE,2,2025-02-27,1
STUDY001,LB,STUDY001-SUBJ0002,16,L00016,BUN,Blood Urea Nitrogen,CHEMISTRY,11.41,mg/dL,7.0,20.0,11.41,11.41,mg/dL,7.0,20.0,NORMAL,Y,BASELINE,2,2025-02-27,1
STUDY001,LB,STUDY001-SUBJ0002,17,L00017,CREAT,Creatinine,CHEMISTRY,0.75,mg/dL,0.6,1.2,0.75,0.75,mg/dL,0.6,1.2,NORMAL,Y,BASELINE,2,2025-02-27,1
STUDY001,LB,STUDY001-SUBJ0002,18,L00018,BILI,Total Bilirubin,CHEMISTRY,0.92,mg/dL,0.1,1.2,0.92,0.92,mg/dL,0.1,1.2,NORMAL,Y,BASELINE,2,2025-02-27,1
STUDY001,LB,STUDY001-SUBJ0002,19,L00019,ALP,Alkaline Phosphatase,CHEMISTRY,70.29,U/L,44.0,147.0,70.29,70.29,U/L,44.0,147.0,NORMAL,Y,BASELINE,2,2025-02-27,1
STUDY001,LB,STUDY001-SUBJ0002,20,L00020,ALT,Alanine Aminotransferase,CHEMISTRY,31.13,U/L,7.0,56.0,31.13,31.13,U/L,7.0,56.0,NORMAL,Y,BASELINE,2,2025-02-27,1
STUDY001,LB,STUDY001-SUBJ0002,21,L00021,HGB,Hemoglobin,HEMATOLOGY,14.75,g/dL,13.5,17.5,14.75,14.75,g/dL,13.5,17.5,NORMAL,,WEEK 1,3,2025-03-05,7
STUDY001,LB,STUDY001-SUBJ0002,22,L00022,HCT,Hematocrit,HEMATOLOGY,46.95,%,41.0,51.0,46.95,46.95,%,41.0,51.0,NORMAL,,WEEK 1,3,2025-03-05,7
STUDY001,LB,STUDY001-SUBJ0002,23,L00023,WBC,White Blood Cell Count,HEMATOLOGY,9.14,10^9/L,4.5,11.0,9.14,9.14,10^9/L,4.5,11.0,NORMAL,,WEEK 1,3,2025-03-05,7
STUDY001,LB,STUDY001-SUBJ0002,24,L00024,PLT,Platelet Count,HEMATOLOGY,237.48,10^9/L,150.0,450.0,237.48,237.48,10^9/L,150.0,450.0,NORMAL,,WEEK 1,3,2025-03-05,7
STUDY001,LB,STUDY001-SUBJ0002,25,L00025,GLUC,Glucose,CHEMISTRY,73.75,mg/dL,70.0,100.0,73.75,73.75,mg/dL,70.0,100.0,NORMAL,,WEEK 1,3,2025-03-05,7
STUDY001,LB,STUDY001-SUBJ0002,26,L00026,BUN,Blood Urea Nitrogen,CHEMISTRY,11.05,mg/dL,7.0,20.0,11.05,11.05,mg/dL,7.0,20.0,NORMAL,,WEEK 1,3,2025-03-05,7
STUDY001,LB,STUDY001-SUBJ0002,27,L00027,CREAT,Creatinine,CHEMISTRY,0.77,mg/dL,0.6,1.2,0.77,0.77,mg/dL,0.6,1.2,NORMAL,,WEEK 1,3,2025-03-05,7
STUDY001,LB,STUDY001-SUBJ0002,28,L00028,BILI,Total Bilirubin,CHEMISTRY,0.94,mg/dL,0.1,1.2,0.94,0.94,mg/dL,0.1,1.2,NORMAL,,WEEK 1,3,2025-03-05,7
STUDY001,LB,STUDY001-SUBJ0002,29,L00029,ALP,Alkaline Phosphatase,CHEMISTRY,66.52,U/L,44.0,147.0,66.52,66.52,U/L,44.0,147.0,NORMAL,,WEEK 1,3,2025-03-05,7
STUDY001,LB,STUDY001-SUBJ0002,30,L00030,ALT,Alanine Aminotransferase,CHEMISTRY,28.88,U/L,7.0,56.0,28.88,28.88,U/L,7.0,56.0,NORMAL,,WEEK 1,3,2025-03-05,7
STUDY001,LB,STUDY001-SUBJ0002,31,L00031,HGB,Hemoglobin,HEMATOLOGY,14.78,g/dL,13.5,17.5,14.78,14.78,g/dL,13.5,17.5,NORMAL,,WEEK 2,4,2025-03-12,14
STUDY001,LB,STUDY001-SUBJ0002,32,L00032,HCT,Hematocrit,HEMATOLOGY,46.43,%,41.0,51.0,46.43,46.43,%,41.0,51.0,NORMAL,,WEEK 2,4,2025-03-12,14
STUDY001,LB,STUDY001-SUBJ0002,33,L00033,WBC,White Blood Cell Count,HEMATOLOGY,8.94,10^9/L,4.5,11.0,8.94,8.94,10^9/L,4.5,11.0,NORMAL,,WEEK 2,4,2025-03-12,14
STUDY001,LB,STUDY001-SUBJ0002,34,L00034,PLT,Platelet Count,HEMATOLOGY,238.01,10^9/L,150.0,450.0,238.01,238.01,10^9/L,150.0,450.0,NORMAL,,WEEK 2,4,2025-03-12,14
STUDY001,LB,STUDY001-SUBJ0002,35,L00035,GLUC,Glucose,CHEMISTRY,72.78,mg/dL,70.0,100.0,72.78,72.78,mg/dL,70.0,100.0,NORMAL,,WEEK 2,4,2025-03-12,14
STUDY001,LB,STUDY001-SUBJ0002,36,L00036,BUN,Blood Urea Nitrogen,CHEMISTRY,11.18,mg/dL,7.0,20.0,11.18,11.18,mg/dL,7.0,20.0,NORMAL,,WEEK 2,4,2025-03-12,14
STUDY001,LB,STUDY001-SUBJ0002,37,L00037,CREAT,Creatinine,CHEMISTRY,0.77,mg/dL,0.6,1.2,0.77,0.77,mg/dL,0.6,1.2,NORMAL,,WEEK 2,4,2025-03-12,14
STUDY001,LB,STUDY001-SUBJ0002,38,L00038,BILI,Total Bilirubin,CHEMISTRY,0.96,mg/dL,0.1,1.2,0.96,0.96,mg/dL,0.1,1.2,NORMAL,,WEEK 2,4,2025-03-12,14
STUDY001,LB,STUDY001-SUBJ0002,39,L00039,ALP,Alkaline Phosphatase,CHEMISTRY,65.17,U/L,44.0,147.0,65.17,65.17,U/L,44.0,147.0,NORMAL,,WEEK 2,4,2025-03-12,14
STUDY001,LB,STUDY001-SUBJ0002,40,L00040,ALT,Alanine Aminotransferase,CHEMISTRY,31.36,U/L,7.0,56.0,31.36,31.36,U/L,7.0,56.0,NORMAL,,WEEK 2,4,2025-03-12,14
STUDY001,LB,STUDY001-SUBJ0002,41,L00041,HGB,Hemoglobin,HEMATOLOGY,14.72,g/dL,13.5,17.5,14.72,14.72,g/dL,13.5,17.5,NORMAL,,WEEK 4,5,2025-03-26,28
STUDY001,LB,STUDY001-SUBJ0002,42,L00042,HCT,Hematocrit,HEMATOLOGY,46.19,%,41.0,51.0,46.19,46.19,%,41.0,51.0,NORMAL,,WEEK 4,5,2025-03-26,28
STUDY001,LB,STUDY001-SUBJ0002,43,L00043,WBC,White Blood Cell Count,HEMATOLOGY,9.14,10^9/L,4.5,11.0,9.14,9.14,10^9/L,4.5,11.0,NORMAL,,WEEK 4,5,2025-03-26,28
STUDY001,LB,STUDY001-SUBJ0002,44,L00044,PLT,Platelet Count,HEMATOLOGY,229.82,10^9/L,150.0,450.0,229.82,229.82,10^9/L,150.0,450.0,NORMAL,,WEEK 4,5,2025-03-26,28
STUDY001,LB,STUDY001-SUBJ0002,45,L00045,GLUC,Glucose,CHEMISTRY,71.36,mg/dL,70.0,100.0,71.36,71.36,mg/dL,70.0,100.0,NORMAL,,WEEK 4,5,2025-03-26,28
STUDY001,LB,STUDY001-SUBJ0002,46,L00046,BUN,Blood Urea Nitrogen,CHEMISTRY,11.87,mg/dL,7.0,20.0,11.87,11.87,mg/dL,7.0,20.0,NORMAL,,WEEK 4,5,2025-03-26,28
STUDY001,LB,STUDY001-SUBJ0002,47,L00047,CREAT,Creatinine,CHEMISTRY,0.77,mg/dL,0.6,1.2,0.77,0.77,mg/dL,0.6,1.2,NORMAL,,WEEK 4,5,2025-03-26,28
STUDY001,LB,STUDY001-SUBJ0002,48,L00048,BILI,Total Bilirubin,CHEMISTRY,0.93,mg/dL,0.1,1.2,0.93,0.93,mg/dL,0.1,1.2,NORMAL,,WEEK 4,5,2025-03-26,28
STUDY001,LB,STUDY001-SUBJ0002,49,L00049,ALP,Alkaline Phosphatase,CHEMISTRY,65.32,U/L,44.0,147.0,65.32,65.32,U/L,44.0,147.0,NORMAL,,WEEK 4,5,2025-03-26,28
STUDY001,LB,STUDY001-SUBJ0002,50,L00050,ALT,Alanine Aminotransferase,CHEMISTRY,29.82,U/L,7.0,56.0,29.82,29.82,U/L,7.0,56.0,NORMAL,,WEEK 4,5,2025-03-26,28
STUDY001,LB,STUDY001-SUBJ0002,51,L00051,HGB,Hemoglobin,HEMATOLOGY,14.48,g/dL,13.5,17.5,14.48,14.48,g/dL,13.5,17.5,NORMAL,,WEEK 8,6,2025-04-23,56
STUDY001,LB,STUDY001-SUBJ0002,52,L00052,HCT,Hematocrit,HEMATOLOGY,47.45,%,41.0,51.0,47.45,47.45,%,41.0,51.0,NORMAL,,WEEK 8,6,2025-04-23,56
STUDY001,LB,STUDY001-SUBJ0002,53,L00053,WBC,White Blood Cell Count,HEMATOLOGY,8.95,10^9/L,4.5,11.0,8.95,8.95,10^9/L,4.5,11.0,NORMAL,,WEEK 8,6,2025-04-23,56
STUDY001,LB,STUDY001-SUBJ0002,54,L00054,PLT,Platelet Count,HEMATOLOGY,221.01,10^9/L,150.0,450.0,221.01,221.01,10^9/L,150.0,450.0,NORMAL,,WEEK 8,6,2025-04-23,56
STUDY001,LB,STUDY001-SUBJ0002,55,L00055,GLUC,Glucose,CHEMISTRY,72.98,mg/dL,70.0,100.0,72.98,72.98,mg/dL,70.0,100.0,NORMAL,,WEEK 8,6,2025-04-23,56
STUDY001,LB,STUDY001-SUBJ0002,56,L00056,BUN,Blood Urea Nitrogen,CHEMISTRY,11.7,mg/dL,7.0,20.0,11.7,11.7,mg/dL,7.0,20.0,NORMAL,,WEEK 8,6,2025-04-23,56
STUDY001,LB,STUDY001-SUBJ0002,57,L00057,CREAT,Creatinine,CHEMISTRY,0.76,mg/dL,0.6,1.2,0.76,0.76,mg/dL,0.6,1.2,NORMAL,,WEEK 8,6,2025-04-23,56
STUDY001,LB,STUDY001-SUBJ0002,58,L00058,BILI,Total Bilirubin,CHEMISTRY,0.97,mg/dL,0.1,1.2,0.97,0.97,mg/dL,0.1,1.2,NORMAL,,WEEK 8,6,2025-04-23,56
STUDY001,LB,STUDY001-SUBJ0002,59,L00059,ALP,Alkaline Phosphatase,CHEMISTRY,66.37,U/L,44.0,147.0,66.37,66.37,U/L,44.0,147.0,NORMAL,,WEEK 8,6,2025-04-23,56
STUDY001,LB,STUDY001-SUBJ0002,60,L00060,ALT,Alanine Aminotransferase,CHEMISTRY,29.62,U/L,7.0,56.0,29.62,29.62,U/L,7.0,56.0,NORMAL,,WEEK 8,6,2025-04-23,56
STUDY001,LB,STUDY001-SUBJ0002,61,L00061,HGB,Hemoglobin,HEMATOLOGY,14.68,g/dL,13.5,17.5,14.68,14.68,g/dL,13.5,17.5,NORMAL,,WEEK 12,7,2025-05-21,84
STUDY001,LB,STUDY001-SUBJ0002,62,L00062,HCT,Hematocrit,HEMATOLOGY,46.63,%,41.0,51.0,46.63,46.63,%,41.0,51.0,NORMAL,,WEEK 12,7,2025-05-21,84
STUDY001,LB,STUDY001-SUBJ0002,63,L00063,WBC,White Blood Cell Count,HEMATOLOGY,9.09,10^9/L,4.5,11.0,9.09,9.09,10^9/L,4.5,11.0,NORMAL,,WEEK 12,7,2025-05-21,84
STUDY001,LB,STUDY001-SUBJ0002,64,L00064,PLT,Platelet Count,HEMATOLOGY,233.54,10^9/L,150.0,450.0,233.54,233.54,10^9/L,150.0,450.0,NORMAL,,WEEK 12,7,2025-05-21,84
STUDY001,LB,STUDY001-SUBJ0002,65,L00065,GLUC,Glucose,CHEMISTRY,76.43,mg/dL,70.0,100.0,76.43,76.43,mg/dL,70.0,100.0,NORMAL,,WEEK 12,7,2025-05-21,84
STUDY001,LB,STUDY001-SUBJ0002,66,L00066,BUN,Blood Urea Nitrogen,CHEMISTRY,11.86,mg/dL,7.0,20.0,11.86,11.86,mg/dL,7.0,20.0,NORMAL,,WEEK 12,7,2025-05-21,84
STUDY001,LB,STUDY001-SUBJ0002,67,L00067,CREAT,Creatinine,CHEMISTRY,0.75,mg/dL,0.6,1.2,0.75,0.75,mg/dL,0.6,1.2,NORMAL,,WEEK 12,7,2025-05-21,84
STUDY001,LB,STUDY001-SUBJ0002,68,L00068,BILI,Total Bilirubin,CHEMISTRY,0.91,mg/dL,0.1,1.2,0.91,0.91,mg/dL,0.1,1.2,NORMAL,,WEEK 12,7,2025-05-21,84
STUDY001,LB,STUDY001-SUBJ0002,69,L00069,ALP,Alkaline Phosphatase,CHEMISTRY,65.97,U/L,44.0,147.0,65.97,65.97,U/L,44.0,147.0,NORMAL,,WEEK 12,7,2025-05-21,84
STUDY001,LB,STUDY001-SUBJ0002,70,L00070,ALT,Alanine Aminotransferase,CHEMISTRY,29.73,U/L,7.0,56.0,29.73,29.73,U/L,7.0,56.0,NORMAL,,WEEK 12,7,2025-05-21,84
STUDY001,LB,STUDY001-SUBJ0002,71,L00071,HGB,Hemoglobin,HEMATOLOGY,14.65,g/dL,13.5,17.5,14.65,14.65,g/dL,13.5,17.5,NORMAL,,WEEK 16,8,2025-06-18,112
STUDY001,LB,STUDY001-SUBJ0002,72,L00072,HCT,Hematocrit,HEMATOLOGY,46.57,%,41.0,51.0,46.57,46.57,%,41.0,51.0,NORMAL,,WEEK 16,8,2025-06-18,112
STUDY001,LB,STUDY001-SUBJ0002,73,L00073,WBC,White Blood Cell Count,HEMATOLOGY,9.46,10^9/L,4.5,11.0,9.46,9.46,10^9/L,4.5,11.0,NORMAL,,WEEK 16,8,2025-06-18,112
STUDY001,LB,STUDY001-SUBJ0002,74,L00074,PLT,Platelet Count,HEMATOLOGY,231.48,10^9/L,150.0,450.0,231.48,231.48,10^9/L,150.0,450.0,NORMAL,,WEEK 16,8,2025-06-18,112
STUDY001,LB,STUDY001-SUBJ0002,75,L00075,GLUC,Glucose,CHEMISTRY,74.16,mg/dL,70.0,100.0,74.16,74.16,mg/dL,70.0,100.0,NORMAL,,WEEK 16,8,2025-06-18,112
STUDY001,LB,STUDY001-SUBJ0002,76,L00076,BUN,Blood Urea Nitrogen,CHEMISTRY,11.57,mg/dL,7.0,20.0,11.57,11.57,mg/dL,7.0,20.0,NORMAL,,WEEK 16,8,2025-06-18,112
STUDY001,LB,STUDY001-SUBJ0002,77,L00077,CREAT,Creatinine,CHEMISTRY,0.76,mg/dL,0.6,1.2,0.76,0.76,mg/dL,0.6,1.2,NORMAL,,WEEK 16,8,2025-06-18,112
STUDY001,LB,STUDY001-SUBJ0002,78,L00078,BILI,Total Bilirubin,CHEMISTRY,0.97,mg/dL,0.1,1.2,0.97,0.97,mg/dL,0.1,1.2,NORMAL,,WEEK 16,8,2025-06-18,112
STUDY001,LB,STUDY001-SUBJ0002,79,L00079,ALP,Alkaline Phosphatase,CHEMISTRY,66.31,U/L,44.0,147.0,66.31,66.31,U/L,44.0,147.0,NORMAL,,WEEK 16,8,2025-06-18,112
STUDY001,LB,STUDY001-SUBJ0002,80,L00080,ALT,Alanine Aminotransferase,CHEMISTRY,30.3,U/L,7.0,56.0,30.3,30.3,U/L,7.0,56.0,NORMAL,,WEEK 16,8,2025-06-18,112
STUDY001,LB,STUDY001-SUBJ0002,81,L00081,HGB,Hemoglobin,HEMATOLOGY,14.63,g/dL,13.5,17.5,14.63,14.63,g/dL,13.5,17.5,NORMAL,,END OF TREATMENT,9,2025-07-16,140
STUDY001,LB,STUDY001-SUBJ0002,82,L00082,HCT,Hematocrit,HEMATOLOGY,46.53,%,41.0,51.0,46.53,46.53,%,41.0,51.0,NORMAL,,END OF TREATMENT,9,2025-07-16,140
STUDY001,LB,STUDY001-SUBJ0002,83,L00083,WBC,White Blood Cell Count,HEMATOLOGY,9.12,10^9/L,4.5,11.0,9.12,9.12,10^9/L,4.5,11.0,NORMAL,,END OF TREATMENT,9,2025-07-16,140
STUDY001,LB,STUDY001-SUBJ0002,84,L00084,PLT,Platelet Count,HEMATOLOGY,227.14,10^9/L,150.0,450.0,227.14,227.14,10^9/L,150.0,450.0,NORMAL,,END OF TREATMENT,9,2025-07-16,140
STUDY001,LB,STUDY001-SUBJ0002,85,L00085,GLUC,Glucose,CHEMISTRY,73.8,mg/dL,70.0,100.0,73.8,73.8,mg/dL,70.0,100.0,NORMAL,,END OF TREATMENT,9,2025-07-16,140
STUDY001,LB,STUDY001-SUBJ0002,86,L00086,BUN,Blood Urea Nitrogen,CHEMISTRY,11.34,mg/dL,7.0,20.0,11.34,11.34,mg/dL,7.0,20.0,NORMAL,,END OF TREATMENT,9,2025-07-16,140
STUDY001,LB,STUDY001-SUBJ0002,87,L00087,CREAT,Creatinine,CHEMISTRY,0.77,mg/dL,0.6,1.2,0.77,0.77,mg/dL,0.6,1.2,NORMAL,,END OF TREATMENT,9,2025-07-16,140
STUDY001,LB,STUDY001-SUBJ0002,88,L00088,BILI,Total Bilirubin,CHEMISTRY,0.95,mg/dL,0.1,1.2,0.95,0.95,mg/dL,0.1,1.2,NORMAL,,END OF TREATMENT,9,2025-07-16,140
STUDY001,LB,STUDY001-SUBJ0002,89,L00089,ALP,Alkaline Phosphatase,CHEMISTRY,66.43,U/L,44.0,147.0,66.43,66.43,U/L,44.0,147.0,NORMAL,,END OF TREATMENT,9,2025-07-16,140
STUDY001,LB,STUDY001-SUBJ0002,90,L00090,ALT,Alanine Aminotransferase,CHEMISTRY,28.85,U/L,7.0,56.0,28.85,28.85,U/L,7.0,56.0,NORMAL,,END OF TREATMENT,9,2025-07-16,140
STUDY001,LB,STUDY001-SUBJ0003,1,L00001,HGB,Hemoglobin,HEMATOLOGY,16.16,g/dL,13.5,17.5,16.16,16.16,g/dL,13.5,17.5,NORMAL,,SCREENING,1,2024-09-30,-14
STUDY001,LB,STUDY001-SUBJ0003,2,L00002,HCT,Hematocrit,HEMATOLOGY,43.09,%,41.0,51.0,43.09,43.09,%,41.0,51.0,NORMAL,,SCREENING,1,2024-09-30,-14
STUDY001,LB,STUDY001-SUBJ0003,3,L00003,WBC,White Blood Cell Count,HEMATOLOGY,4.66,10^9/L,4.5,11.0,4.66,4.66,10^9/L,4.5,11.0,NORMAL,,SCREENING,1,2024-09-30,-14
STUDY001,LB,STUDY001-SUBJ0003,4,L00004,PLT,Platelet Count,HEMATOLOGY,337.52,10^9/L,150.0,450.0,337.52,337.52,10^9/L,150.0,450.0,NORMAL,,SCREENING,1,2024-09-30,-14
STUDY001,LB,STUDY001-SUBJ0003,5,L00005,GLUC,Glucose,CHEMISTRY,91.82,mg/dL,70.0,100.0,91.82,91.82,mg/dL,70.0,100.0,NORMAL,,SCREENING,1,2024-09-30,-14
STUDY001,LB,STUDY001-SUBJ0003,6,L00006,BUN,Blood Urea Nitrogen,CHEMISTRY,8.46,mg/dL,7.0,20.0,8.46,8.46,mg/dL,7.0,20.0,NORMAL,,SCREENING,1,2024-09-30,-14
STUDY001,LB,STUDY001-SUBJ0003,7,L00007,CREAT,Creatinine,CHEMISTRY,0.56,mg/dL,0.6,1.2,0.56,0.56,mg/dL,0.6,1.2,LOW,,SCREENING,1,2024-09-30,-14
STUDY001,LB,STUDY001-SUBJ0003,8,L00008,BILI,Total Bilirubin,CHEMISTRY,0.58,mg/dL,0.1,1.2,0.58,0.58,mg/dL,0.1,1.2,NORMAL,,SCREENING,1,2024-09-30,-14
STUDY001,LB,STUDY001-SUBJ0003,9,L00009,ALP,Alkaline Phosphatase,CHEMISTRY,94.46,U/L,44.0,147.0,94.46,94.46,U/L,44.0,147.0,NORMAL,,SCREENING,1,2024-09-30,-14
STUDY001,LB,STUDY001-SUBJ0003,10,L00010,ALT,Alanine Aminotransferase,CHEMISTRY,24.78,U/L,7.0,56.0,24.78,24.78,U/L,7.0,56.0,NORMAL,,SCREENING,1,2024-09-30,-14
STUDY001,LB,STUDY001-SUBJ0003,11,L00011,HGB,Hemoglobin,HEMATOLOGY,16.19,g/dL,13.5,17.5,16.19,16.19,g/dL,13.5,17.5,NORMAL,Y,BASELINE,2,2024-10-14,1
STUDY001,LB,STUDY001-SUBJ0003,12,L00012,HCT,Hematocrit,HEMATOLOGY,43.29,%,41.0,51.0,43.29,43.29,%,41.0,51.0,NORMAL,Y,BASELINE,2,2024-10-14,1
STUDY001,LB,STUDY001-SUBJ0003,13,L00013,WBC,White Blood Cell Count,HEMATOLOGY,4.58,10^9/L,4.5,11.0,4.58,4.58,10^9/L,4.5,11.0,NORMAL,Y,BASELINE,2,2024-10-14,1
STUDY001,LB,STUDY001-SUBJ0003,14,L00014,PLT,Platelet Count,HEMATOLOGY,331.88,10^9/L,150.0,450.0,331.88,331.88,10^9/L,150.0,450.0,NORMAL,Y,BASELINE,2,2024-10-14,1
STUDY001,LB,STUDY001-SUBJ0003,15,L00015,GLUC,Glucose,CHEMISTRY,91.29,mg/dL,70.0,100.0,91.29,91.29,mg/dL,70.0,100.0,NORMAL,Y,BASELINE,2,2024-10-14,1
STUDY001,LB,STUDY001-SUBJ0003,16,L00016,BUN,Blood Urea Nitrogen,CHEMISTRY,9.06,mg/dL,7.0,20.0,9.06,9.06,mg/dL,7.0,20.0,NORMAL,Y,BASELINE,2,2024-10-14,1
STUDY001,LB,STUDY001-SUBJ0003,17,L00017,CREAT,Creatinine,CHEMISTRY,0.57,mg/dL,0.6,1.2,0.57,0.57,mg/dL,0.6,1.2,LOW,Y,BASELINE,2,2024-10-14,1
STUDY001,LB,STUDY001-SUBJ0003,18,L00018,BILI,Total Bilirubin,CHEMISTRY,0.58,mg/dL,0.1,1.2,0.58,0.58,mg/dL,0.1,1.2,NORMAL,Y,BASELINE,2,2024-10-14,1
STUDY001,LB,STUDY001-SUBJ0003,19,L00019,ALP,Alkaline Phosphatase,CHEMISTRY,90.81,U/L,44.0,147.0,90.81,90.81,U/L,44.0,147.0,NORMAL,Y,BASELINE,2,2024-10-14,1
STUDY001,LB,STUDY001-SUBJ0003,20,L00020,ALT,Alanine Aminotransferase,CHEMISTRY,27.42,U/L,7.0,56.0,27.42,27.42,U/L,7.0,56.0,NORMAL,Y,BASELINE,2,2024-10-14,1
STUDY001,LB,STUDY001-SUBJ0003,21,L00021,HGB,Hemoglobin,HEMATOLOGY,16.28,g/dL,13.5,17.5,16.28,16.28,g/dL,13.5,17.5,NORMAL,,WEEK 1,3,2024-10-20,7
STUDY001,LB,STUDY001-SUBJ0003,22,L00022,HCT,Hematocrit,HEMATOLOGY,43.07,%,41.0,51.0,43.07,43.07,%,41.0,51.0,NORMAL,,WEEK 1,3,2024-10-20,7
STUDY001,LB,STUDY001-SUBJ0003,23,L00023,WBC,White Blood Cell Count,HEMATOLOGY,4.55,10^9/L,4.5,11.0,4.55,4.55,10^9/L,4.5,11.0,NORMAL,,WEEK 1,3,2024-10-20,7
STUDY001,LB,STUDY001-SUBJ0003,24,L00024,PLT,Platelet Count,HEMATOLOGY,331.31,10^9/L,150.0,450.0,331.31,331.31,10^9/L,150.0,450.0,NORMAL,,WEEK 1,3,2024-10-20,7
STUDY001,LB,STUDY001-SUBJ0003,25,L00025,GLUC,Glucose,CHEMISTRY,90.67,mg/dL,70.0,100.0,90.67,90.67,mg/dL,70.0,100.0,NORMAL,,WEEK 1,3,2024-10-20,7
STUDY001,LB,STUDY001-SUBJ0003,26,L00026,BUN,Blood Urea Nitrogen,CHEMISTRY,8.62,mg/dL,7.0,20.0,8.62,8.62,mg/dL,7.0,20.0,NORMAL,,WEEK 1,3,2024-10-20,7
STUDY001,LB,STUDY001-SUBJ0003,27,L00027,CREAT,Creatinine,CHEMISTRY,0.55,mg/dL,0.6,1.2,0.55,0.55,mg/dL,0.6,1.2,LOW,,WEEK 1,3,2024-10-20,7
STUDY001,LB,STUDY001-SUBJ0003,28,L00028,BILI,Total Bilirubin,CHEMISTRY,0.59,mg/dL,0.1,1.2,0.59,0.59,mg/dL,0.1,1.2,NORMAL,,WEEK 1,3,2024-10-20,7
STUDY001,LB,STUDY001-SUBJ0003,29,L00029,ALP,Alkaline Phosphatase,CHEMISTRY,95.91,U/L,44.0,147.0,95.91,95.91,U/L,44.0,147.0,NORMAL,,WEEK 1,3,2024-10-20,7
STUDY001,LB,STUDY001-SUBJ0003,30,L00030,ALT,Alanine Aminotransferase,CHEMISTRY,22.48,U/L,7.0,56.0,22.48,22.48,U/L,7.0,56.0,NORMAL,,WEEK 1,3,2024-10-20,7
STUDY001,LB,STUDY001-SUBJ0003,31,L00031,HGB,Hemoglobin,HEMATOLOGY,16.2,g/dL,13.5,17.5,16.2,16.2,g/dL,13.5,17.5,NORMAL,,WEEK 2,4,2024-10-27,14
STUDY001,LB,STUDY001-SUBJ0003,32,L00032,HCT,Hematocrit,HEMATOLOGY,43.11,%,41.0,51.0,43.11,43.11,%,41.0,51.0,NORMAL,,WEEK 2,4,2024-10-27,14
STUDY001,LB,STUDY001-SUBJ0003,33,L00033,WBC,White Blood Cell Count,HEMATOLOGY,4.69,10^9/L,4.5,11.0,4.69,4.69,10^9/L,4.5,11.0,NORMAL,,WEEK 2,4,2024-10-27,14
STUDY001,LB,STUDY001-SUBJ0003,34,L00034,PLT,Platelet Count,HEMATOLOGY,327.96,10^9/L,150.0,450.0,327.96,327.96,10^9/L,150.0,450.0,NORMAL,,WEEK 2,4,2024-10-27,14
STUDY001,LB,STUDY001-SUBJ0003,35,L00035,GLUC,Glucose,CHEMISTRY,89.35,mg/dL,70.0,100.0,89.35,89.35,mg/dL,70.0,100.0,NORMAL,,WEEK 2,4,2024-10-27,14
STUDY001,LB,STUDY001-SUBJ0003,36,L00036,BUN,Blood Urea Nitrogen,CHEMISTRY,8.96,mg/dL,7.0,20.0,8.96,8.96,mg/dL,7.0,20.0,NORMAL,,WEEK 2,4,2024-10-27,14
STUDY001,LB,STUDY001-SUBJ0003,37,L00037,CREAT,Creatinine,CHEMISTRY,0.58,mg/dL,0.6,1.2,0.58,0.58,mg/dL,0.6,1.2,LOW,,WEEK 2,4,2024-10-27,14
STUDY001,LB,STUDY001-SUBJ0003,38,L00038,BILI,Total Bilirubin,CHEMISTRY,0.53,mg/dL,0.1,1.2,0.53,0.53,mg/dL,0.1,1.2,NORMAL,,WEEK 2,4,2024-10-27,14
STUDY001,LB,STUDY001-SUBJ0003,39,L00039,ALP,Alkaline Phosphatase,CHEMISTRY,91.07,U/L,44.0,147.0,91.07,91.07,U/L,44.0,147.0,NORMAL,,WEEK 2,4,2024-10-27,14
STUDY001,LB,STUDY001-SUBJ0003,40,L00040,ALT,Alanine Aminotransferase,CHEMISTRY,22.29,U/L,7.0,56.0,22.29,22.29,U/L,7.0,56.0,NORMAL,,WEEK 2,4,2024-10-27,14
STUDY001,LB,STUDY001-SUBJ0003,41,L00041,HGB,Hemoglobin,HEMATOLOGY,16.08,g/dL,13.5,17.5,16.08,16.08,g/dL,13.5,17.5,NORMAL,,WEEK 4,5,2024-11-10,28
STUDY001,LB,STUDY001-SUBJ0003,42,L00042,HCT,Hematocrit,HEMATOLOGY,43.07,%,41.0,51.0,43.07,43.07,%,41.0,51.0,NORMAL,,WEEK 4,5,2024-11-10,28
STUDY001,LB,STUDY001-SUBJ0003,43,L00043,WBC,White Blood Cell Count,HEMATOLOGY,4.71,10^9/L,4.5,11.0,4.71,4.71,10^9/L,4.5,11.0,NORMAL,,WEEK 4,5,2024-11-10,28
STUDY001,LB,STUDY001-SUBJ0003,44,L00044,PLT,Platelet Count,HEMATOLOGY,337.02,10^9/L,150.0,450.0,337.02,337.02,10^9/L,150.0,450.0,NORMAL,,WEEK 4,5,2024-11-10,28
STUDY001,LB,STUDY001-SUBJ0003,45,L00045,GLUC,Glucose,CHEMISTRY,89.79,mg/dL,70.0,100.0,89.79,89.79,mg/dL,70.0,100.0,NORMAL,,WEEK 4,5,2024-11-10,28
STUDY001,LB,STUDY001-SUBJ0003,46,L00046,BUN,Blood Urea Nitrogen,CHEMISTRY,8.75,mg/dL,7.0,20.0,8.75,8.75,mg/dL,7.0,20.0,NORMAL,,WEEK 4,5,2024-11-10,28
STUDY001,LB,STUDY001-SUBJ0003,47,L00047,CREAT,Creatinine,CHEMISTRY,0.59,mg/dL,0.6,1.2,0.59,0.59,mg/dL,0.6,1.2,LOW,,WEEK 4,5,2024-11-10,28
STUDY001,LB,STUDY001-SUBJ0003,48,L00048,BILI,Total Bilirubin,CHEMISTRY,0.54,mg/dL,0.1,1.2,0.54,0.54,mg/dL,0.1,1.2,NORMAL,,WEEK 4,5,2024-11-10,28
STUDY001,LB,STUDY001-SUBJ0003,49,L00049,ALP,Alkaline Phosphatase,CHEMISTRY,91.87,U/L,44.0,147.0,91.87,91.87,U/L,44.0,147.0,NORMAL,,WEEK 4,5,2024-11-10,28
STUDY001,LB,STUDY001-SUBJ0003,50,L00050,ALT,Alanine Aminotransferase,CHEMISTRY,23.55,U/L,7.0,56.0,23.55,23.55,U/L,7.0,56.0,NORMAL,,WEEK 4,5,2024-11-10,28
STUDY001,LB,STUDY001-SUBJ0003,51,L00051,HGB,Hemoglobin,HEMATOLOGY,16.31,g/dL,13.5,17.5,16.31,16.31,g/dL,13.5,17.5,NORMAL,,WEEK 8,6,2024-12-08,56
STUDY001,LB,STUDY001-SUBJ0003,52,L00052,HCT,Hematocrit,HEMATOLOGY,42.99,%,41.0,51.0,42.99,42.99,%,41.0,51.0,NORMAL,,WEEK 8,6,2024-12-08,56
STUDY001,LB,STUDY001-SUBJ0003,53,L00053,WBC,White Blood Cell Count,HEMATOLOGY,4.57,10^9/L,4.5,11.0,4.57,4.57,10^9/L,4.5,11.0,NORMAL,,WEEK 8,6,2024-12-08,56
STUDY001,LB,STUDY001-SUBJ0003,54,L00054,PLT,Platelet Count,HEMATOLOGY,334.91,10^9/L,150.0,450.0,334.91,334.91,10^9/L,150.0,450.0,NORMAL,,WEEK 8,6,2024-12-08,56
STUDY001,LB,STUDY001-SUBJ0003,55,L00055,GLUC,Glucose,CHEMISTRY,89.26,mg/dL,70.0,100.0,89.26,89.26,mg/dL,70.0,100.0,NORMAL,,WEEK 8,6,2024-12-08,56
STUDY001,LB,STUDY001-SUBJ0003,56,L00056,BUN,Blood Urea Nitrogen,CHEMISTRY,8.62,mg/dL,7.0,20.0,8.62,8.62,mg/dL,7.0,20.0,NORMAL,,WEEK 8,6,2024-12-08,56
STUDY001,LB,STUDY001-SUBJ0003,57,L00057,CREAT,Creatinine,CHEMISTRY,0.57,mg/dL,0.6,1.2,0.57,0.57,mg/dL,0.6,1.2,LOW,,WEEK 8,6,2024-12-08,56
STUDY001,LB,STUDY001-SUBJ0003,58,L00058,BILI,Total Bilirubin,CHEMISTRY,0.56,mg/dL,0.1,1.2,0.56,0.56,mg/dL,0.1,1.2,NORMAL,,WEEK 8,6,2024-12-08,56
STUDY001,LB,STUDY001-SUBJ0003,59,L00059,ALP,Alkaline Phosphatase,CHEMISTRY,90.69,U/L,44.0,147.0,90.69,90.69,U/L,44.0,147.0,NORMAL,,WEEK 8,6,2024-12-08,56
STUDY001,LB,STUDY001-SUBJ0003,60,L00060,ALT,Alanine Aminotransferase,CHEMISTRY,23.75,U/L,7.0,56.0,23.75,23.75,U/L,7.0,56.0,NORMAL,,WEEK 8,6,2024-12-08,56
STUDY001,LB,STUDY001-SUBJ0003,61,L00061,HGB,Hemoglobin,HEMATOLOGY,16.16,g/dL,13.5,17.5,16.16,16.16,g/dL,13.5,17.5,NORMAL,,WEEK 12,7,2025-01-05,84
STUDY001,LB,STUDY001-SUBJ0003,62,L00062,HCT,Hematocrit,HEMATOLOGY,42.95,%,41.0,51.0,42.95,42.95,%,41.0,51.0,NORMAL,,WEEK 12,7,2025-01-05,84
STUDY001,LB,STUDY001-SUBJ0003,63,L00063,WBC,White Blood Cell Count,HEMATOLOGY,4.62,10^9/L,4.5,11.0,4.62,4.62,10^9/L,4.5,11.0,NORMAL,,WEEK 12,7,2025-01-05,84
STUDY001,LB,STUDY001-SUBJ0003,64,L00064,PLT,Platelet Count,HEMATOLOGY,326.09,10^9/L,150.0,450.0,326.09,326.09,10^9/L,150.0,450.0,NORMAL,,WEEK 12,7,2025-01-05,84
STUDY001,LB,STUDY001-SUBJ0003,65,L00065,GLUC,Glucose,CHEMISTRY,91.27,mg/dL,70.0,100.0,91.27,91.27,mg/dL,70.0,100.0,NORMAL,,WEEK 12,7,2025-01-05,84
STUDY001,LB,STUDY001-SUBJ0003,66,L00066,BUN,Blood Urea Nitrogen,CHEMISTRY,8.91,mg/dL,7.0,20.0,8.91,8.91,mg/dL,7.0,20.0,NORMAL,,WEEK 12,7,2025-01-05,84
STUDY001,LB,STUDY001-SUBJ0003,67,L00067,CREAT,Creatinine,CHEMISTRY,0.56,mg/dL,0.6,1.2,0.56,0.56,mg/dL,0.6,1.2,LOW,,WEEK 12,7,2025-01-05,84
STUDY001,LB,STUDY001-SUBJ0003,68,L00068,BILI,Total Bilirubin,CHEMISTRY,0.54,mg/dL,0.1,1.2,0.54,0.54,mg/dL,0.1,1.2,NORMAL,,WEEK 12,7,2025-01-05,84
STUDY001,LB,STUDY001-SUBJ0003,69,L00069,ALP,Alkaline Phosphatase,CHEMISTRY,92.35,U/L,44.0,147.0,92.35,92.35,U/L,44.0,147.0,NORMAL,,WEEK 12,7,2025-01-05,84
STUDY001,LB,STUDY001-SUBJ0003,70,L00070,ALT,Alanine Aminotransferase,CHEMISTRY,25.63,U/L,7.0,56.0,25.63,25.63,U/L,7.0,56.0,NORMAL,,WEEK 12,7,2025-01-05,84
STUDY001,LB,STUDY001-SUBJ0003,71,L00071,HGB,Hemoglobin,HEMATOLOGY,16.05,g/dL,13.5,17.5,16.05,16.05,g/dL,13.5,17.5,NORMAL,,WEEK 16,8,2025-02-02,112
STUDY001,LB,STUDY001-SUBJ0003,72,L00072,HCT,Hematocrit,HEMATOLOGY,42.86,%,41.0,51.0,42.86,42.86,%,41.0,51.0,NORMAL,,WEEK 16,8,2025-02-02,112
STUDY001,LB,STUDY001-SUBJ0003,73,L00073,WBC,White Blood Cell Count,HEMATOLOGY,4.56,10^9/L,4.5,11.0,4.56,4.56,10^9/L,4.5,11.0,NORMAL,,WEEK 16,8,2025-02-02,112
STUDY001,LB,STUDY001-SUBJ0003,74,L00074,PLT,Platelet Count,HEMATOLOGY,327.99,10^9/L,150.0,450.0,327.99,327.99,10^9/L,150.0,450.0,NORMAL,,WEEK 16,8,2025-02-02,112
STUDY001,LB,STUDY001-SUBJ0003,75,L00075,GLUC,Glucose,CHEMISTRY,91.47,mg/dL,70.0,100.0,91.47,91.47,mg/dL,70.0,100.0,NORMAL,,WEEK 16,8,2025-02-02,112
STUDY001,LB,STUDY001-SUBJ0003,76,L00076,BUN,Blood Urea Nitrogen,CHEMISTRY,8.74,mg/dL,7.0,20.0,8.74,8.74,mg/dL,7.0,20.0,NORMAL,,WEEK 16,8,2025-02-02,112
STUDY001,LB,STUDY001-SUBJ0003,77,L00077,CREAT,Creatinine,CHEMISTRY,0.57,mg/dL,0.6,1.2,0.57,0.57,mg/dL,0.6,1.2,LOW,,WEEK 16,8,2025-02-02,112
STUDY001,LB,STUDY001-SUBJ0003,78,L00078,BILI,Total Bilirubin,CHEMISTRY,0.57,mg/dL,0.1,1.2,0.57,0.57,mg/dL,0.1,1.2,NORMAL,,WEEK 16,8,2025-02-02,112
STUDY001,LB,STUDY001-SUBJ0003,79,L00079,ALP,Alkaline Phosphatase,CHEMISTRY,88.29,U/L,44.0,147.0,88.29,88.29,U/L,44.0,147.0,NORMAL,,WEEK 16,8,2025-02-02,112
STUDY001,LB,STUDY001-SUBJ0003,80,L00080,ALT,Alanine Aminotransferase,CHEMISTRY,24.62,U/L,7.0,56.0,24.62,24.62,U/L,7.0,56.0,NORMAL,,WEEK 16,8,2025-02-02,112
STUDY001,LB,STUDY001-SUBJ0003,81,L00081,HGB,Hemoglobin,HEMATOLOGY,16.24,g/dL,13.5,17.5,16.24,16.24,g/dL,13.5,17.5,NORMAL,,END OF TREATMENT,9,2025-03-02,140
STUDY001,LB,STUDY001-SUBJ0003,82,L00082,HCT,Hematocrit,HEMATOLOGY,42.83,%,41.0,51.0,42.83,42.83,%,41.0,51.0,NORMAL,,END OF TREATMENT,9,2025-03-02,140
STUDY001,LB,STUDY001-SUBJ0003,83,L00083,WBC,White Blood Cell Count,HEMATOLOGY,4.79,10^9/L,4.5,11.0,4.79,4.79,10^9/L,4.5,11.0,NORMAL,,END OF TREATMENT,9,2025-03-02,140
STUDY001,LB,STUDY001-SUBJ0003,84,L00084,PLT,Platelet Count,HEMATOLOGY,339.95,10^9/L,150.0,450.0,339.95,339.95,10^9/L,150.0,450.0,NORMAL,,END OF TREATMENT,9,2025-03-02,140
STUDY001,LB,STUDY001-SUBJ0003,85,L00085,GLUC,Glucose,CHEMISTRY,92.43,mg/dL,70.0,100.0,92.43,92.43,mg/dL,70.0,100.0,NORMAL,,END OF TREATMENT,9,2025-03-02,140
STUDY001,LB,STUDY001-SUBJ0003,86,L00086,BUN,Blood Urea Nitrogen,CHEMISTRY,8.89,mg/dL,7.0,20.0,8.89,8.89,mg/dL,7.0,20.0,NORMAL,,END OF TREATMENT,9,2025-03-02,140
STUDY001,LB,STUDY001-SUBJ0003,87,L00087,CREAT,Creatinine,CHEMISTRY,0.58,mg/dL,0.6,1.2,0.58,0.58,mg/dL,0.6,1.2,LOW,,END OF TREATMENT,9,2025-03-02,140
STUDY001,LB,STUDY001-SUBJ0003,88,L00088,BILI,Total Bilirubin,CHEMISTRY,0.57,mg/dL,0.1,1.2,0.57,0.57,mg/dL,0.1,1.2,NORMAL,,END OF TREATMENT,9,2025-03-02,140
STUDY001,LB,STUDY001-SUBJ0003,89,L00089,ALP,Alkaline Phosphatase,CHEMISTRY,91.37,U/L,44.0,147.0,91.37,91.37,U/L,44.0,147.0,NORMAL,,END OF TREATMENT,9,2025-03-02,140
STUDY001,LB,STUDY001-SUBJ0003,90,L00090,ALT,Alanine Aminotransferase,CHEMISTRY,24.18,U/L,7.0,56.0,24.18,24.18,U/L,7.0,56.0,NORMAL,,END OF TREATMENT,9,2025-03-02,140
STUDY001,LB,STUDY001-SUBJ0004,1,L00001,HGB,Hemoglobin,HEMATOLOGY,13.58,g/dL,13.5,17.5,13.58,13.58,g/dL,13.5,17.5,NORMAL,,SCREENING,1,2024-10-10,-14
STUDY001,LB,STUDY001-SUBJ0004,2,L00002,HCT,Hematocrit,HEMATOLOGY,45.92,%,41.0,51.0,45.92,45.92,%,41.0,51.0,NORMAL,,SCREENING,1,2024-10-10,-14
STUDY001,LB,STUDY001-SUBJ0004,3,L00003,WBC,White Blood Cell Count,HEMATOLOGY,6.67,10^9/L,4.5,11.0,6.67,6.67,10^9/L,4.5,11.0,NORMAL,,SCREENING,1,2024-10-10,-14
STUDY001,LB,STUDY001-SUBJ0004,4,L00004,PLT,Platelet Count,HEMATOLOGY,361.49,10^9/L,150.0,450.0,361.49,361.49,10^9/L,150.0,450.0,NORMAL,,SCREENING,1,2024-10-10,-14
STUDY001,LB,STUDY001-SUBJ0004,5,L00005,GLUC,Glucose,CHEMISTRY,86.47,mg/dL,70.0,100.0,86.47,86.47,mg/dL,70.0,100.0,NORMAL,,SCREENING,1,2024-10-10,-14
STUDY001,LB,STUDY001-SUBJ0004,6,L00006,BUN,Blood Urea Nitrogen,CHEMISTRY,16.01,mg/dL,7.0,20.0,16.01,16.01,mg/dL,7.0,20.0,NORMAL,,SCREENING,1,2024-10-10,-14
STUDY001,LB,STUDY001-SUBJ0004,7,L00007,CREAT,Creatinine,CHEMISTRY,0.7,mg/dL,0.6,1.2,0.7,0.7,mg/dL,0.6,1.2,NORMAL,,SCREENING,1,2024-10-10,-14
STUDY001,LB,STUDY001-SUBJ0004,8,L00008,BILI,Total Bilirubin,CHEMISTRY,0.65,mg/dL,0.1,1.2,0.65,0.65,mg/dL,0.1,1.2,NORMAL,,SCREENING,1,2024-10-10,-14
STUDY001,LB,STUDY001-SUBJ0004,9,L00009,ALP,Alkaline Phosphatase,CHEMISTRY,115.59,U/L,44.0,147.0,115.59,115.59,U/L,44.0,147.0,NORMAL,,SCREENING,1,2024-10-10,-14
STUDY001,LB,STUDY001-SUBJ0004,10,L00010,ALT,Alanine Aminotransferase,CHEMISTRY,33.61,U/L,7.0,56.0,33.61,33.61,U/L,7.0,56.0,NORMAL,,SCREENING,1,2024-10-10,-14
STUDY001,LB,STUDY001-SUBJ0004,11,L00011,HGB,Hemoglobin,HEMATOLOGY,13.63,g/dL,13.5,17.5,13.63,13.63,g/dL,13.5,17.5,NORMAL,Y,BASELINE,2,2024-10-24,1
STUDY001,LB,STUDY001-SUBJ0004,12,L00012,HCT,Hematocrit,HEMATOLOGY,45.78,%,41.0,51.0,45.78,45.78,%,41.0,51.0,NORMAL,Y,BASELINE,2,2024-10-24,1
STUDY001,LB,STUDY001-SUBJ0004,13,L00013,WBC,White Blood Cell Count,HEMATOLOGY,6.72,10^9/L,4.5,11.0,6.72,6.72,10^9/L,4.5,11.0,NORMAL,Y,BASELINE,2,2024-10-24,1
STUDY001,LB,STUDY001-SUBJ0004,14,L00014,PLT,Platelet Count,HEMATOLOGY,360.89,10^9/L,150.0,450.0,360.89,360.89,10^9/L,150.0,450.0,NORMAL,Y,BASELINE,2,2024-10-24,1
STUDY001,LB,STUDY001-SUBJ0004,15,L00015,GLUC,Glucose,CHEMISTRY,85.71,mg/dL,70.0,100.0,85.71,85.71,mg/dL,70.0,100.0,NORMAL,Y,BASELINE,2,2024-10-24,1
STUDY001,LB,STUDY001-SUBJ0004,16,L00016,BUN,Blood Urea Nitrogen,CHEMISTRY,15.78,mg/dL,7.0,20.0,15.78,15.78,mg/dL,7.0,20.0,NORMAL,Y,BASELINE,2,2024-10-24,1
STUDY001,LB,STUDY001-SUBJ0004,17,L00017,CREAT,Creatinine,CHEMISTRY,0.73,mg/dL,0.6,1.2,0.73,0.73,mg/dL,0.6,1.2,NORMAL,Y,BASELINE,2,2024-10-24,1
STUDY001,LB,STUDY001-SUBJ0004,18,L00018,BILI,Total Bilirubin,CHEMISTRY,0.65,mg/dL,0.1,1.2,0.65,0.65,mg/dL,0.1,1.2,NORMAL,Y,BASELINE,2,2024-10-24,1
STUDY001,LB,STUDY001-SUBJ0004,19,L00019,ALP,Alkaline Phosphatase,CHEMISTRY,111.33,U/L,44.0,147.0,111.33,111.33,U/L,44.0,147.0,NORMAL,Y,BASELINE,2,2024-10-24,1
STUDY001,LB,STUDY001-SUBJ0004,20,L00020,ALT,Alanine Aminotransferase,CHEMISTRY,31.85,U/L,7.0,56.0,31.85,31.85,U/L,7.0,56.0,NORMAL,Y,BASELINE,2,2024-10-24,1
STUDY001,LB,STUDY001-SUBJ0004,21,L00021,HGB,Hemoglobin,HEMATOLOGY,13.57,g/dL,13.5,17.5,13.57,13.57,g/dL,13.5,17.5,NORMAL,,WEEK 1,3,2024-10-30,7
STUDY001,LB,STUDY001-SUBJ0004,22,L00022,HCT,Hematocrit,HEMATOLOGY,46.13,%,41.0,51.0,46.13,46.13,%,41.0,51.0,NORMAL,,WEEK 1,3,2024-10-30,7
STUDY001,LB,STUDY001-SUBJ0004,23,L00023,WBC,White Blood Cell Count,HEMATOLOGY,6.56,10^9/L,4.5,11.0,6.56,6.56,10^9/L,4.5,11.0,NORMAL,,WEEK 1,3,2024-10-30,7
STUDY001,LB,STUDY001-SUBJ0004,24,L00024,PLT,Platelet Count,HEMATOLOGY,356.86,10^9/L,150.0,450.0,356.86,356.86,10^9/L,150.0,450.0,NORMAL,,WEEK 1,3,2024-10-30,7
STUDY001,LB,STUDY001-SUBJ0004,25,L00025,GLUC,Glucose,CHEMISTRY,86.79,mg/dL,70.0,100.0,86.79,86.79,mg/dL,70.0,100.0,NORMAL,,WEEK 1,3,2024-10-30,7
STUDY001,LB,STUDY001-SUBJ0004,26,L00026,BUN,Blood Urea Nitrogen,CHEMISTRY,15.32,mg/dL,7.0,20.0,15.32,15.32,mg/dL,7.0,20.0,NORMAL,,WEEK 1,3,2024-10-30,7
STUDY001,LB,STUDY001-SUBJ0004,27,L00027,CREAT,Creatinine,CHEMISTRY,0.71,mg/dL,0.6,1.2,0.71,0.71,mg/dL,0.6,1.2,NORMAL,,WEEK 1,3,2024-10-30,7
STUDY001,LB,STUDY001-SUBJ0004,28,L00028,BILI,Total Bilirubin,CHEMISTRY,0.58,mg/dL,0.1,1.2,0.58,0.58,mg/dL,0.1,1.2,NORMAL,,WEEK 1,3,2024-10-30,7
STUDY001,LB,STUDY001-SUBJ0004,29,L00029,ALP,Alkaline Phosphatase,CHEMISTRY,112.5,U/L,44.0,147.0,112.5,112.5,U/L,44.0,147.0,NORMAL,,WEEK 1,3,2024-10-30,7
STUDY001,LB,STUDY001-SUBJ0004,30,L00030,ALT,Alanine Aminotransferase,CHEMISTRY,32.82,U/L,7.0,56.0,32.82,32.82,U/L,7.0,56.0,NORMAL,,WEEK 1,3,2024-10-30,7
STUDY001,LB,STUDY001-SUBJ0004,31,L00031,HGB,Hemoglobin,HEMATOLOGY,13.74,g/dL,13.5,17.5,13.74,13.74,g/dL,13.5,17.5,NORMAL,,WEEK 2,4,2024-11-06,14
STUDY001,LB,STUDY001-SUBJ0004,32,L00032,HCT,Hematocrit,HEMATOLOGY,46.23,%,41.0,51.0,46.23,46.23,%,41.0,51.0,NORMAL,,WEEK 2,4,2024-11-06,14
STUDY001,LB,STUDY001-SUBJ0004,33,L00033,WBC,White Blood Cell Count,HEMATOLOGY,6.52,10^9/L,4.5,11.0,6.52,6.52,10^9/L,4.5,11.0,NORMAL,,WEEK 2,4,2024-11-06,14
STUDY001,LB,STUDY001-SUBJ0004,34,L00034,PLT,Platelet Count,HEMATOLOGY,368.74,10^9/L,150.0,450.0,368.74,368.74,10^9/L,150.0,450.0,NORMAL,,WEEK 2,4,2024-11-06,14
STUDY001,LB,STUDY001-SUBJ0004,35,L00035,GLUC,Glucose,CHEMISTRY,85.42,mg/dL,70.0,100.0,85.42,85.42,mg/dL,70.0,100.0,NORMAL,,WEEK 2,4,2024-11-06,14
STUDY001,LB,STUDY001-SUBJ0004,36,L00036,BUN,Blood Urea Nitrogen,CHEMISTRY,16.2,mg/dL,7.0,20.0,16.2,16.2,mg/dL,7.0,20.0,NORMAL,,WEEK 2,4,2024-11-06,14
STUDY001,LB,STUDY001-SUBJ0004,37,L00037,CREAT,Creatinine,CHEMISTRY,0.71,mg/dL,0.6,1.2,0.71,0.71,mg/dL,0.6,1.2,NORMAL,,WEEK 2,4,2024-11-06,14
STUDY001,LB,STUDY001-SUBJ0004,38,L00038,BILI,Total Bilirubin,CHEMISTRY,0.63,mg/dL,0.1,1.2,0.63,0.63,mg/dL,0.1,1.2,NORMAL,,WEEK 2,4,2024-11-06,14
STUDY001,LB,STUDY001-SUBJ0004,39,L00039,ALP,Alkaline Phosphatase,CHEMISTRY,113.85,U/L,44.0,147.0,113.85,113.85,U/L,44.0,147.0,NORMAL,,WEEK 2,4,2024-11-06,14
STUDY001,LB,STUDY001-SUBJ0004,40,L00040,ALT,Alanine Aminotransferase,CHEMISTRY,33.21,U/L,7.0,56.0,33.21,33.21,U/L,7.0,56.0,NORMAL,,WEEK 2,4,2024-11-06,14
STUDY001,LB,STUDY001-SUBJ0004,41,L00041,HGB,Hemoglobin,HEMATOLOGY,13.67,g/dL,13.5,17.5,13.67,13.67,g/dL,13.5,17.5,NORMAL,,WEEK 4,5,2024-11-20,28
STUDY001,LB,STUDY001-SUBJ0004,42,L00042,HCT,Hematocrit,HEMATOLOGY,46.13,%,41.0,51.0,46.13,46.13,%,41.0,51.0,NORMAL,,WEEK 4,5,2024-11-20,28
STUDY001,LB,STUDY001-SUBJ0004,43,L00043,WBC,White Blood Cell Count,HEMATOLOGY,6.69,10^9/L,4.5,11.0,6.69,6.69,10^9/L,4.5,11.0,NORMAL,,WEEK 4,5,2024-11-20,28
STUDY001,LB,STUDY001-SUBJ0004,44,L00044,PLT,Platelet Count,HEMATOLOGY,364.42,10^9/L,150.0,450.0,364.42,364.42,10^9/L,150.0,450.0,NORMAL,,WEEK 4,5,2024-11-20,28
STUDY001,LB,STUDY001-SUBJ0004,45,L00045,GLUC,Glucose,CHEMISTRY,85.62,mg/dL,70.0,100.0,85.62,85.62,mg/dL,70.0,100.0,NORMAL,,WEEK 4,5,2024-11-20,28
STUDY001,LB,STUDY001-SUBJ0004,46,L00046,BUN,Blood Urea Nitrogen,CHEMISTRY,16.01,mg/dL,7.0,20.0,16.01,16.01,mg/dL,7.0,20.0,NORMAL,,WEEK 4,5,2024-11-20,28
STUDY001,LB,STUDY001-SUBJ0004,47,L00047,CREAT,Creatinine,CHEMISTRY,0.68,mg/dL,0.6,1.2,0.68,0.68,mg/dL,0.6,1.2,NORMAL,,WEEK 4,5,2024-11-20,28
STUDY001,LB,STUDY001-SUBJ0004,48,L00048,BILI,Total Bilirubin,CHEMISTRY,0.61,mg/dL,0.1,1.2,0.61,0.61,mg/dL,0.1,1.2,NORMAL,,WEEK 4,5,2024-11-20,28
STUDY001,LB,STUDY001-SUBJ0004,49,L00049,ALP,Alkaline Phosphatase,CHEMISTRY,111.03,U/L,44.0,147.0,111.03,111.03,U/L,44.0,147.0,NORMAL,,WEEK 4,5,2024-11-20,28
STUDY001,LB,STUDY001-SUBJ0004,50,L00050,ALT,Alanine Aminotransferase,CHEMISTRY,33.24,U/L,7.0,56.0,33.24,33.24,U/L,7.0,56.0,NORMAL,,WEEK 4,5,2024-11-20,28
STUDY001,LB,STUDY001-SUBJ0004,51,L00051,HGB,Hemoglobin,HEMATOLOGY,13.66,g/dL,13.5,17.5,13.66,13.66,g/dL,13.5,17.5,NORMAL,,WEEK 8,6,2024-12-18,56
STUDY001,LB,STUDY001-SUBJ0004,52,L00052,HCT,Hematocrit,HEMATOLOGY,46.47,%,41.0,51.0,46.47,46.47,%,41.0,51.0,NORMAL,,WEEK 8,6,2024-12-18,56
STUDY001,LB,STUDY001-SUBJ0004,53,L00053,WBC,White Blood Cell Count,HEMATOLOGY,6.79,10^9/L,4.5,11.0,6.79,6.79,10^9/L,4.5,11.0,NORMAL,,WEEK 8,6,2024-12-18,56
STUDY001,LB,STUDY001-SUBJ0004,54,L00054,PLT,Platelet Count,HEMATOLOGY,360.04,10^9/L,150.0,450.0,360.04,360.04,10^9/L,150.0,450.0,NORMAL,,WEEK 8,6,2024-12-18,56
STUDY001,LB,STUDY001-SUBJ0004,55,L00055,GLUC,Glucose,CHEMISTRY,85.53,mg/dL,70.0,100.0,85.53,85.53,mg/dL,70.0,100.0,NORMAL,,WEEK 8,6,2024-12-18,56
STUDY001,LB,STUDY001-SUBJ0004,56,L00056,BUN,Blood Urea Nitrogen,CHEMISTRY,15.55,mg/dL,7.0,20.0,15.55,15.55,mg/dL,7.0,20.0,NORMAL,,WEEK 8,6,2024-12-18,56
STUDY001,LB,STUDY001-SUBJ0004,57,L00057,CREAT,Creatinine,CHEMISTRY,0.7,mg/dL,0.6,1.2,0.7,0.7,mg/dL,0.6,1.2,NORMAL,,WEEK 8,6,2024-12-18,56
STUDY001,LB,STUDY001-SUBJ0004,58,L00058,BILI,Total Bilirubin,CHEMISTRY,0.64,mg/dL,0.1,1.2,0.64,0.64,mg/dL,0.1,1.2,NORMAL,,WEEK 8,6,2024-12-18,56
STUDY001,LB,STUDY001-SUBJ0004,59,L00059,ALP,Alkaline Phosphatase,CHEMISTRY,114.51,U/L,44.0,147.0,114.51,114.51,U/L,44.0,147.0,NORMAL,,WEEK 8,6,2024-12-18,56
STUDY001,LB,STUDY001-SUBJ0004,60,L00060,ALT,Alanine Aminotransferase,CHEMISTRY,31.37,U/L,7.0,56.0,31.37,31.37,U/L,7.0,56.0,NORMAL,,WEEK 8,6,2024-12-18,56
STUDY001,LB,STUDY001-SUBJ0004,61,L00061,HGB,Hemoglobin,HEMATOLOGY,13.71,g/dL,13.5,17.5,13.71,13.71,g/dL,13.5,17.5,NORMAL,,WEEK 12,7,2025-01-15,84
STUDY001,LB,STUDY001-SUBJ0004,62,L00062,HCT,Hematocrit,HEMATOLOGY,46.55,%,41.0,51.0,46.55,46.55,%,41.0,51.0,NORMAL,,WEEK 12,7,2025-01-15,84
STUDY001,LB,STUDY001-SUBJ0004,63,L00063,WBC,White Blood Cell Count,HEMATOLOGY,6.62,10^9/L,4.5,11.0,6.62,6.62,10^9/L,4.5,11.0,NORMAL,,WEEK 12,7,2025-01-15,84
STUDY001,LB,STUDY001-SUBJ0004,64,L00064,PLT,Platelet Count,HEMATOLOGY,373.45,10^9/L,150.0,450.0,373.45,373.45,10^9/L,150.0,450.0,NORMAL,,WEEK 12,7,2025-01-15,84
STUDY001,LB,STUDY001-SUBJ0004,65,L00065,GLUC,Glucose,CHEMISTRY,85.81,mg/dL,70.0,100.0,85.81,85.81,mg/dL,70.0,100.0,NORMAL,,WEEK 12,7,2025-01-15,84
STUDY001,LB,STUDY001-SUBJ0004,66,L00066,BUN,Blood Urea Nitrogen,CHEMISTRY,15.71,mg/dL,7.0,20.0,15.71,15.71,mg/dL,7.0,20.0,NORMAL,,WEEK 12,7,2025-01-15,84
STUDY001,LB,STUDY001-SUBJ0004,67,L00067,CREAT,Creatinine,CHEMISTRY,0.74,mg/dL,0.6,1.2,0.74,0.74,mg/dL,0.6,1.2,NORMAL,,WEEK 12,7,2025-01-15,84
STUDY001,LB,STUDY001-SUBJ0004,68,L00068,BILI,Total Bilirubin,CHEMISTRY,0.6,mg/dL,0.1,1.2,0.6,0.6,mg/dL,0.1,1.2,NORMAL,,WEEK 12,7,2025-01-15,84
STUDY001,LB,STUDY001-SUBJ0004,69,L00069,ALP,Alkaline Phosphatase,CHEMISTRY,111.78,U/L,44.0,147.0,111.78,111.78,U/L,44.0,147.0,NORMAL,,WEEK 12,7,2025-01-15,84
STUDY001,LB,STUDY001-SUBJ0004,70,L00070,ALT,Alanine Aminotransferase,CHEMISTRY,32.07,U/L,7.0,56.0,32.07,32.07,U/L,7.0,56.0,NORMAL,,WEEK 12,7,2025-01-15,84
STUDY001,LB,STUDY001-SUBJ0004,71,L00071,HGB,Hemoglobin,HEMATOLOGY,13.57,g/dL,13.5,17.5,13.57,13.57,g/dL,13.5,17.5,NORMAL,,WEEK 16,8,2025-02-12,112
STUDY001,LB,STUDY001-SUBJ0004,72,L00072,HCT,Hematocrit,HEMATOLOGY,46.16,%,41.0,51.0,46.16,46.16,%,41.0,51.0,NORMAL,,WEEK 16,8,2025-02-12,112
STUDY001,LB,STUDY001-SUBJ0004,73,L00073,WBC,White Blood Cell Count,HEMATOLOGY,6.87,10^9/L,4.5,11.0,6.87,6.87,10^9/L,4.5,11.0,NORMAL,,WEEK 16,8,2025-02-12,112
STUDY001,LB,STUDY001-SUBJ0004,74,L00074,PLT,Platelet Count,HEMATOLOGY,362.15,10^9/L,150.0,450.0,362.15,362.15,10^9/L,150.0,450.0,NORMAL,,WEEK 16,8,2025-02-12,112
STUDY001,LB,STUDY001-SUBJ0004,75,L00075,GLUC,Glucose,CHEMISTRY,85.53,mg/dL,70.0,100.0,85.53,85.53,mg/dL,70.0,100.0,NORMAL,,WEEK 16,8,2025-02-12,112
STUDY001,LB,STUDY001-SUBJ0004,76,L00076,BUN,Blood Urea Nitrogen,CHEMISTRY,15.56,mg/dL,7.0,20.0,15.56,15.56,mg/dL,7.0,20.0,NORMAL,,WEEK 16,8,2025-02-12,112
STUDY001,LB,STUDY001-SUBJ0004,77,L00077,CREAT,Creatinine,CHEMISTRY,0.7,mg/dL,0.6,1.2,0.7,0.7,mg/dL,0.6,1.2,NORMAL,,WEEK 16,8,2025-02-12,112
STUDY001,LB,STUDY001-SUBJ0004,78,L00078,BILI,Total Bilirubin,CHEMISTRY,0.59,mg/dL,0.1,1.2,0.59,0.59,mg/dL,0.1,1.2,NORMAL,,WEEK 16,8,2025-02-12,112
STUDY001,LB,STUDY001-SUBJ0004,79,L00079,ALP,Alkaline Phosphatase,CHEMISTRY,113.24,U/L,44.0,147.0,113.24,113.24,U/L,44.0,147.0,NORMAL,,WEEK 16,8,2025-02-12,112
STUDY001,LB,STUDY001-SUBJ0004,80,L00080,ALT,Alanine Aminotransferase,CHEMISTRY,34.82,U/L,7.0,56.0,34.82,34.82,U/L,7.0,56.0,NORMAL,,WEEK 16,8,2025-02-12,112
STUDY001,LB,STUDY001-SUBJ0004,81,L00081,HGB,Hemoglobin,HEMATOLOGY,13.56,g/dL,13.5,17.5,13.56,13.56,g/dL,13.5,17.5,NORMAL,,END OF TREATMENT,9,2025-03-12,140
STUDY001,LB,STUDY001-SUBJ0004,82,L00082,HCT,Hematocrit,HEMATOLOGY,46.17,%,41.0,51.0,46.17,46.17,%,41.0,51.0,NORMAL,,END OF TREATMENT,9,2025-03-12,140
STUDY001,LB,STUDY001-SUBJ0004,83,L00083,WBC,White Blood Cell Count,HEMATOLOGY,6.69,10^9/L,4.5,11.0,6.69,6.69,10^9/L,4.5,11.0,NORMAL,,END OF TREATMENT,9,2025-03-12,140
STUDY001,LB,STUDY001-SUBJ0004,84,L00084,PLT,Platelet Count,HEMATOLOGY,364.94,10^9/L,150.0,450.0,364.94,364.94,10^9/L,150.0,450.0,NORMAL,,END OF TREATMENT,9,2025-03-12,140
STUDY001,LB,STUDY001-SUBJ0004,85,L00085,GLUC,Glucose,CHEMISTRY,84.94,mg/dL,70.0,100.0,84.94,84.94,mg/dL,70.0,100.0,NORMAL,,END OF TREATMENT,9,2025-03-12,140
STUDY001,LB,STUDY001-SUBJ0004,86,L00086,BUN,Blood Urea Nitrogen,CHEMISTRY,15.91,mg/dL,7.0,20.0,15.91,15.91,mg/dL,7.0,20.0,NORMAL,,END OF TREATMENT,9,2025-03-12,140
STUDY001,LB,STUDY001-SUBJ0004,87,L00087,CREAT,Creatinine,CHEMISTRY,0.69,mg/dL,0.6,1.2,0.69,0.69,mg/dL,0.6,1.2,NORMAL,,END OF TREATMENT,9,2025-03-12,140
STUDY001,LB,STUDY001-SUBJ0004,88,L00088,BILI,Total Bilirubin,CHEMISTRY,0.63,mg/dL,0.1,1.2,0.63,0.63,mg/dL,0.1,1.2,NORMAL,,END OF TREATMENT,9,2025-03-12,140
STUDY001,LB,STUDY001-SUBJ0004,89,L00089,ALP,Alkaline Phosphatase,CHEMISTRY,113.2,U/L,44.0,147.0,113.2,113.2,U/L,44.0,147.0,NORMAL,,END OF TREATMENT,9,2025-03-12,140
STUDY001,LB,STUDY001-SUBJ0004,90,L00090,ALT,Alanine Aminotransferase,CHEMISTRY,32.1,U/L,7.0,56.0,32.1,32.1,U/L,7.0,56.0,NORMAL,,END OF TREATMENT,9,2025-03-12,140
STUDY001,LB,STUDY001-SUBJ0005,1,L00001,HGB,Hemoglobin,HEMATOLOGY,15.83,g/dL,13.5,17.5,15.83,15.83,g/dL,13.5,17.5,NORMAL,,SCREENING,1,2025-05-07,-14
STUDY001,LB,STUDY001-SUBJ0005,2,L00002,HCT,Hematocrit,HEMATOLOGY,47.05,%,41.0,51.0,47.05,47.05,%,41.0,51.0,NORMAL,,SCREENING,1,2025-05-07,-14
STUDY001,LB,STUDY001-SUBJ0005,3,L00003,WBC,White Blood Cell Count,HEMATOLOGY,5.48,10^9/L,4.5,11.0,5.48,5.48,10^9/L,4.5,11.0,NORMAL,,SCREENING,1,2025-05-07,-14
STUDY001,LB,STUDY001-SUBJ0005,4,L00004,PLT,Platelet Count,HEMATOLOGY,245.21,10^9/L,150.0,450.0,245.21,245.21,10^9/L,150.0,450.0,NORMAL,,SCREENING,1,2025-05-07,-14
STUDY001,LB,STUDY001-SUBJ0005,5,L00005,GLUC,Glucose,CHEMISTRY,76.99,mg/dL,70.0,100.0,76.99,76.99,mg/dL,70.0,100.0,NORMAL,,SCREENING,1,2025-05-07,-14
STUDY001,LB,STUDY001-SUBJ0005,6,L00006,BUN,Blood Urea Nitrogen,CHEMISTRY,9.89,mg/dL,7.0,20.0,9.89,9.89,mg/dL,7.0,20.0,NORMAL,,SCREENING,1,2025-05-07,-14
STUDY001,LB,STUDY001-SUBJ0005,7,L00007,CREAT,Creatinine,CHEMISTRY,0.72,mg/dL,0.6,1.2,0.72,0.72,mg/dL,0.6,1.2,NORMAL,,SCREENING,1,2025-05-07,-14
STUDY001,LB,STUDY001-SUBJ0005,8,L00008,BILI,Total Bilirubin,CHEMISTRY,0.84,mg/dL,0.1,1.2,0.84,0.84,mg/dL,0.1,1.2,NORMAL,,SCREENING,1,2025-05-07,-14
STUDY001,LB,STUDY001-SUBJ0005,9,L00009,ALP,Alkaline Phosphatase,CHEMISTRY,82.02,U/L,44.0,147.0,82.02,82.02,U/L,44.0,147.0,NORMAL,,SCREENING,1,2025-05-07,-14
STUDY001,LB,STUDY001-SUBJ0005,10,L00010,ALT,Alanine Aminotransferase,CHEMISTRY,34.2,U/L,7.0,56.0,34.2,34.2,U/L,7.0,56.0,NORMAL,,SCREENING,1,2025-05-07,-14
STUDY001,LB,STUDY001-SUBJ0005,11,L00011,HGB,Hemoglobin,HEMATOLOGY,15.6,g/dL,13.5,17.5,15.6,15.6,g/dL,13.5,17.5,NORMAL,Y,BASELINE,2,2025-05-21,1
STUDY001,LB,STUDY001-SUBJ0005,12,L00012,HCT,Hematocrit,HEMATOLOGY,46.87,%,41.0,51.0,46.87,46.87,%,41.0,51.0,NORMAL,Y,BASELINE,2,2025-05-21,1
STUDY001,LB,STUDY001-SUBJ0005,13,L00013,WBC,White Blood Cell Count,HEMATOLOGY,5.15,10^9/L,4.5,11.0,5.15,5.15,10^9/L,4.5,11.0,NORMAL,Y,BASELINE,2,2025-05-21,1
STUDY001,LB,STUDY001-SUBJ0005,14,L00014,PLT,Platelet Count,HEMATOLOGY,247.8,10^9/L,150.0,450.0,247.8,247.8,10^9/L,150.0,450.0,NORMAL,Y,BASELINE,2,2025-05-21,1
STUDY001,LB,STUDY001-SUBJ0005,15,L00015,GLUC,Glucose,CHEMISTRY,75.78,mg/dL,70.0,100.0,75.78,75.78,mg/dL,70.0,100.0,NORMAL,Y,BASELINE,2,2025-05-21,1
STUDY001,LB,STUDY001-SUBJ0005,16,L00016,BUN,Blood Urea Nitrogen,CHEMISTRY,9.87,mg/dL,7.0,20.0,9.87,9.87,mg/dL,7.0,20.0,NORMAL,Y,BASELINE,2,2025-05-21,1
STUDY001,LB,STUDY001-SUBJ0005,17,L00017,CREAT,Creatinine,CHEMISTRY,0.68,mg/dL,0.6,1.2,0.68,0.68,mg/dL,0.6,1.2,NORMAL,Y,BASELINE,2,2025-05-21,1
STUDY001,LB,STUDY001-SUBJ0005,18,L00018,BILI,Total Bilirubin,CHEMISTRY,0.86,mg/dL,0.1,1.2,0.86,0.86,mg/dL,0.1,1.2,NORMAL,Y,BASELINE,2,2025-05-21,1
STUDY001,LB,STUDY001-SUBJ0005,19,L00019,ALP,Alkaline Phosphatase,CHEMISTRY,82.79,U/L,44.0,147.0,82.79,82.79,U/L,44.0,147.0,NORMAL,Y,BASELINE,2,2025-05-21,1
STUDY001,LB,STUDY001-SUBJ0005,20,L00020,ALT,Alanine Aminotransferase,CHEMISTRY,32.62,U/L,7.0,56.0,32.62,32.62,U/L,7.0,56.0,NORMAL,Y,BASELINE,2,2025-05-21,1
STUDY001,LB,STUDY001-SUBJ0005,21,L00021,HGB,Hemoglobin,HEMATOLOGY,15.68,g/dL,13.5,17.5,15.68,15.68,g/dL,13.5,17.5,NORMAL,,WEEK 1,3,2025-05-27,7
STUDY001,LB,STUDY001-SUBJ0005,22,L00022,HCT,Hematocrit,HEMATOLOGY,46.69,%,41.0,51.0,46.69,46.69,%,41.0,51.0,NORMAL,,WEEK 1,3,2025-05-27,7
STUDY001,LB,STUDY001-SUBJ0005,23,L00023,WBC,White Blood Cell Count,HEMATOLOGY,5.5,10^9/L,4.5,11.0,5.5,5.5,10^9/L,4.5,11.0,NORMAL,,WEEK 1,3,2025-05-27,7
STUDY001,LB,STUDY001-SUBJ0005,24,L00024,PLT,Platelet Count,HEMATOLOGY,248.29,10^9/L,150.0,450.0,248.29,248.29,10^9/L,150.0,450.0,NORMAL,,WEEK 1,3,2025-05-27,7
STUDY001,LB,STUDY001-SUBJ0005,25,L00025,GLUC,Glucose,CHEMISTRY,75.82,mg/dL,70.0,100.0,75.82,75.82,mg/dL,70.0,100.0,NORMAL,,WEEK 1,3,2025-05-27,7
STUDY001,LB,STUDY001-SUBJ0005,26,L00026,BUN,Blood Urea Nitrogen,CHEMISTRY,9.71,mg/dL,7.0,20.0,9.71,9.71,mg/dL,7.0,20.0,NORMAL,,WEEK 1,3,2025-05-27,7
STUDY001,LB,STUDY001-SUBJ0005,27,L00027,CREAT,Creatinine,CHEMISTRY,0.74,mg/dL,0.6,1.2,0.74,0.74,mg/dL,0.6,1.2,NORMAL,,WEEK 1,3,2025-05-27,7
STUDY001,LB,STUDY001-SUBJ0005,28,L00028,BILI,Total Bilirubin,CHEMISTRY,0.81,mg/dL,0.1,1.2,0.81,0.81,mg/dL,0.1,1.2,NORMAL,,WEEK 1,3,2025-05-27,7
STUDY001,LB,STUDY001-SUBJ0005,29,L00029,ALP,Alkaline Phosphatase,CHEMISTRY,79.41,U/L,44.0,147.0,79.41,79.41,U/L,44.0,147.0,NORMAL,,WEEK 1,3,2025-05-27,7
STUDY001,LB,STUDY001-SUBJ0005,30,L00030,ALT,Alanine Aminotransferase,CHEMISTRY,33.36,U/L,7.0,56.0,33.36,33.36,U/L,7.0,56.0,NORMAL,,WEEK 1,3,2025-05-27,7
STUDY001,LB,STUDY001-SUBJ0005,31,L00031,HGB,Hemoglobin,HEMATOLOGY,15.72,g/dL,13.5,17.5,15.72,15.72,g/dL,13.5,17.5,NORMAL,,WEEK 2,4,2025-06-03,14
STUDY001,LB,STUDY001-SUBJ0005,32,L00032,HCT,Hematocrit,HEMATOLOGY,47.32,%,41.0,51.0,47.32,47.32,%,41.0,51.0,NORMAL,,WEEK 2,4,2025-06-03,14
STUDY001,LB,STUDY001-SUBJ0005,33,L00033,WBC,White Blood Cell Count,HEMATOLOGY,5.53,10^9/L,4.5,11.0,5.53,5.53,10^9/L,4.5,11.0,NORMAL,,WEEK 2,4,2025-06-03,14
STUDY001,LB,STUDY001-SUBJ0005,34,L00034,PLT,Platelet Count,HEMATOLOGY,248.43,10^9/L,150.0,450.0,248.43,248.43,10^9/L,150.0,450.0,NORMAL,,WEEK 2,4,2025-06-03,14
STUDY001,LB,STUDY001-SUBJ0005,35,L00035,GLUC,Glucose,CHEMISTRY,76.66,mg/dL,70.0,100.0,76.66,76.66,mg/dL,70.0,100.0,NORMAL,,WEEK 2,4,2025-06-03,14
STUDY001,LB,STUDY001-SUBJ0005,36,L00036,BUN,Blood Urea Nitrogen,CHEMISTRY,9.19,mg/dL,7.0,20.0,9.19,9.19,mg/dL,7.0,20.0,NORMAL,,WEEK 2,4,2025-06-03,14
STUDY001,LB,STUDY001-SUBJ0005,37,L00037,CREAT,Creatinine,CHEMISTRY,0.7,mg/dL,0.6,1.2,0.7,0.7,mg/dL,0.6,1.2,NORMAL,,WEEK 2,4,2025-06-03,14
STUDY001,LB,STUDY001-SUBJ0005,38,L00038,BILI,Total Bilirubin,CHEMISTRY,0.85,mg/dL,0.1,1.2,0.85,0.85,mg/dL,0.1,1.2,NORMAL,,WEEK 2,4,2025-06-03,14
STUDY001,LB,STUDY001-SUBJ0005,39,L00039,ALP,Alkaline Phosphatase,CHEMISTRY,83.01,U/L,44.0,147.0,83.01,83.01,U/L,44.0,147.0,NORMAL,,WEEK 2,4,2025-06-03,14
STUDY001,LB,STUDY001-SUBJ0005,40,L00040,ALT,Alanine Aminotransferase,CHEMISTRY,34.36,U/L,7.0,56.0,34.36,34.36,U/L,7.0,56.0,NORMAL,,WEEK 2,4,2025-06-03,14
STUDY001,LB,STUDY001-SUBJ0005,41,L00041,HGB,Hemoglobin,HEMATOLOGY,15.74,g/dL,13.5,17.5,15.74,15.74,g/dL,13.5,17.5,NORMAL,,WEEK 4,5,2025-06-17,28
STUDY001,LB,STUDY001-SUBJ0005,42,L00042,HCT,Hematocrit,HEMATOLOGY,47.1,%,41.0,51.0,47.1,47.1,%,41.0,51.0,NORMAL,,WEEK 4,5,2025-06-17,28
STUDY001,LB,STUDY001-SUBJ0005,43,L00043,WBC,White Blood Cell Count,HEMATOLOGY,5.41,10^9/L,4.5,11.0,5.41,5.41,10^9/L,4.5,11.0,NORMAL,,WEEK 4,5,2025-06-17,28
STUDY001,LB,STUDY001-SUBJ0005,44,L00044,PLT,Platelet Count,HEMATOLOGY,240.91,10^9/L,150.0,450.0,240.91,240.91,10^9/L,150.0,450.0,NORMAL,,WEEK 4,5,2025-06-17,28
STUDY001,LB,STUDY001-SUBJ0005,45,L00045,GLUC,Glucose,CHEMISTRY,76.93,mg/dL,70.0,100.0,76.93,76.93,mg/dL,70.0,100.0,NORMAL,,WEEK 4,5,2025-06-17,28
STUDY001,LB,STUDY001-SUBJ0005,46,L00046,BUN,Blood Urea Nitrogen,CHEMISTRY,9.56,mg/dL,7.0,20.0,9.56,9.56,mg/dL,7.0,20.0,NORMAL,,WEEK 4,5,2025-06-17,28
STUDY001,LB,STUDY001-SUBJ0005,47,L00047,CREAT,Creatinine,CHEMISTRY,0.73,mg/dL,0.6,1.2,0.73,0.73,mg/dL,0.6,1.2,NORMAL,,WEEK 4,5,2025-06-17,28
STUDY001,LB,STUDY001-SUBJ0005,48,L00048,BILI,Total Bilirubin,CHEMISTRY,0.9,mg/dL,0.1,1.2,0.9,0.9,mg/dL,0.1,1.2,NORMAL,,WEEK 4,5,2025-06-17,28
STUDY001,LB,STUDY001-SUBJ0005,49,L00049,ALP,Alkaline Phosphatase,CHEMISTRY,79.65,U/L,44.0,147.0,79.65,79.65,U/L,44.0,147.0,NORMAL,,WEEK 4,5,2025-06-17,28
STUDY001,LB,STUDY001-SUBJ0005,50,L00050,ALT,Alanine Aminotransferase,CHEMISTRY,33.29,U/L,7.0,56.0,33.29,33.29,U/L,7.0,56.0,NORMAL,,WEEK 4,5,2025-06-17,28
STUDY001,LB,STUDY001-SUBJ0005,51,L00051,HGB,Hemoglobin,HEMATOLOGY,15.54,g/dL,13.5,17.5,15.54,15.54,g/dL,13.5,17.5,NORMAL,,WEEK 8,6,2025-07-15,56
STUDY001,LB,STUDY001-SUBJ0005,52,L00052,HCT,Hematocrit,HEMATOLOGY,47.07,%,41.0,51.0,47.07,47.07,%,41.0,51.0,NORMAL,,WEEK 8,6,2025-07-15,56
STUDY001,LB,STUDY001-SUBJ0005,53,L00053,WBC,White Blood Cell Count,HEMATOLOGY,5.46,10^9/L,4.5,11.0,5.46,5.46,10^9/L,4.5,11.0,NORMAL,,WEEK 8,6,2025-07-15,56
STUDY001,LB,STUDY001-SUBJ0005,54,L00054,PLT,Platelet Count,HEMATOLOGY,241.29,10^9/L,150.0,450.0,241.29,241.29,10^9/L,150.0,450.0,NORMAL,,WEEK 8,6,2025-07-15,56
STUDY001,LB,STUDY001-SUBJ0005,55,L00055,GLUC,Glucose,CHEMISTRY,76.24,mg/dL,70.0,100.0,76.24,76.24,mg/dL,70.0,100.0,NORMAL,,WEEK 8,6,2025-07-15,56
STUDY001,LB,STUDY001-SUBJ0005,56,L00056,BUN,Blood Urea Nitrogen,CHEMISTRY,9.14,mg/dL,7.0,20.0,9.14,9.14,mg/dL,7.0,20.0,NORMAL,,WEEK 8,6,2025-07-15,56
STUDY001,LB,STUDY001-SUBJ0005,57,L00057,CREAT,Creatinine,CHEMISTRY,0.74,mg/dL,0.6,1.2,0.74,0.74,mg/dL,0.6,1.2,NORMAL,,WEEK 8,6,2025-07-15,56
STUDY001,LB,STUDY001-SUBJ0005,58,L00058,BILI,Total Bilirubin,CHEMISTRY,0.85,mg/dL,0.1,1.2,0.85,0.85,mg/dL,0.1,1.2,NORMAL,,WEEK 8,6,2025-07-15,56
STUDY001,LB,STUDY001-SUBJ0005,59,L00059,ALP,Alkaline Phosphatase,CHEMISTRY,82.44,U/L,44.0,147.0,82.44,82.44,U/L,44.0,147.0,NORMAL,,WEEK 8,6,2025-07-15,56
STUDY001,LB,STUDY001-SUBJ0005,60,L00060,ALT,Alanine Aminotransferase,CHEMISTRY,34.49,U/L,7.0,56.0,34.49,34.49,U/L,7.0,56.0,NORMAL,,WEEK 8,6,2025-07-15,56
STUDY001,LB,STUDY001-SUBJ0005,61,L00061,HGB,Hemoglobin,HEMATOLOGY,15.7,g/dL,13.5,17.5,15.7,15.7,g/dL,13.5,17.5,NORMAL,,WEEK 12,7,2025-08-12,84
STUDY001,LB,STUDY001-SUBJ0005,62,L00062,HCT,Hematocrit,HEMATOLOGY,46.86,%,41.0,51.0,46.86,46.86,%,41.0,51.0,NORMAL,,WEEK 12,7,2025-08-12,84
STUDY001,LB,STUDY001-SUBJ0005,63,L00063,WBC,White Blood Cell Count,HEMATOLOGY,5.54,10^9/L,4.5,11.0,5.54,5.54,10^9/L,4.5,11.0,NORMAL,,WEEK 12,7,2025-08-12,84
STUDY001,LB,STUDY001-SUBJ0005,64,L00064,PLT,Platelet Count,HEMATOLOGY,245.06,10^9/L,150.0,450.0,245.06,245.06,10^9/L,150.0,450.0,NORMAL,,WEEK 12,7,2025-08-12,84
STUDY001,LB,STUDY001-SUBJ0005,65,L00065,GLUC,Glucose,CHEMISTRY,76.54,mg/dL,70.0,100.0,76.54,76.54,mg/dL,70.0,100.0,NORMAL,,WEEK 12,7,2025-08-12,84
STUDY001,LB,STUDY001-SUBJ0005,66,L00066,BUN,Blood Urea Nitrogen,CHEMISTRY,9.44,mg/dL,7.0,20.0,9.44,9.44,mg/dL,7.0,20.0,NORMAL,,WEEK 12,7,2025-08-12,84
STUDY001,LB,STUDY001-SUBJ0005,67,L00067,CREAT,Creatinine,CHEMISTRY,0.69,mg/dL,0.6,1.2,0.69,0.69,mg/dL,0.6,1.2,NORMAL,,WEEK 12,7,2025-08-12,84
STUDY001,LB,STUDY001-SUBJ0005,68,L00068,BILI,Total Bilirubin,CHEMISTRY,0.84,mg/dL,0.1,1.2,0.84,0.84,mg/dL,0.1,1.2,NORMAL,,WEEK 12,7,2025-08-12,84
STUDY001,LB,STUDY001-SUBJ0005,69,L00069,ALP,Alkaline Phosphatase,CHEMISTRY,80.86,U/L,44.0,147.0,80.86,80.86,U/L,44.0,147.0,NORMAL,,WEEK 12,7,2025-08-12,84
STUDY001,LB,STUDY001-SUBJ0005,70,L00070,ALT,Alanine Aminotransferase,CHEMISTRY,32.39,U/L,7.0,56.0,32.39,32.39,U/L,7.0,56.0,NORMAL,,WEEK 12,7,2025-08-12,84
STUDY001,LB,STUDY001-SUBJ0005,71,L00071,HGB,Hemoglobin,HEMATOLOGY,15.71,g/dL,13.5,17.5,15.71,15.71,g/dL,13.5,17.5,NORMAL,,WEEK 16,8,2025-09-09,112
STUDY001,LB,STUDY001-SUBJ0005,72,L00072,HCT,Hematocrit,HEMATOLOGY,46.79,%,41.0,51.0,46.79,46.79,%,41.0,51.0,NORMAL,,WEEK 16,8,2025-09-09,112
STUDY001,LB,STUDY001-SUBJ0005,73,L00073,WBC,White Blood Cell Count,HEMATOLOGY,5.4,10^9/L,4.5,11.0,5.4,5.4,10^9/L,4.5,11.0,NORMAL,,WEEK 16,8,2025-09-09,112
STUDY001,LB,STUDY001-SUBJ0005,74,L00074,PLT,Platelet Count,HEMATOLOGY,251.13,10^9/L,150.0,450.0,251.13,251.13,10^9/L,150.0,450.0,NORMAL,,WEEK 16,8,2025-09-09,112
STUDY001,LB,STUDY001-SUBJ0005,75,L00075,GLUC,Glucose,CHEMISTRY,76.69,mg/dL,70.0,100.0,76.69,76.69,mg/dL,70.0,100.0,NORMAL,,WEEK 16,8,2025-09-09,112
STUDY001,LB,STUDY001-SUBJ0005,76,L00076,BUN,Blood Urea Nitrogen,CHEMISTRY,9.3,mg/dL,7.0,20.0,9.3,9.3,mg/dL,7.0,20.0,NORMAL,,WEEK 16,8,2025-09-09,112
STUDY001,LB,STUDY001-SUBJ0005,77,L00077,CREAT,Creatinine,CHEMISTRY,0.74,mg/dL,0.6,1.2,0.74,0.74,mg/dL,0.6,1.2,NORMAL,,WEEK 16,8,2025-09-09,112
STUDY001,LB,STUDY001-SUBJ0005,78,L00078,BILI,Total Bilirubin,CHEMISTRY,0.84,mg/dL,0.1,1.2,0.84,0.84,mg/dL,0.1,1.2,NORMAL,,WEEK 16,8,2025-09-09,112
STUDY001,LB,STUDY001-SUBJ0005,79,L00079,ALP,Alkaline Phosphatase,CHEMISTRY,80.01,U/L,44.0,147.0,80.01,80.01,U/L,44.0,147.0,NORMAL,,WEEK 16,8,2025-09-09,112
STUDY001,LB,STUDY001-SUBJ0005,80,L00080,ALT,Alanine Aminotransferase,CHEMISTRY,33.98,U/L,7.0,56.0,33.98,33.98,U/L,7.0,56.0,NORMAL,,WEEK 16,8,2025-09-09,112
STUDY001,LB,STUDY001-SUBJ0005,81,L00081,HGB,Hemoglobin,HEMATOLOGY,15.62,g/dL,13.5,17.5,15.62,15.62,g/dL,13.5,17.5,NORMAL,,END OF TREATMENT,9,2025-10-07,140
STUDY001,LB,STUDY001-SUBJ0005,82,L00082,HCT,Hematocrit,HEMATOLOGY,46.84,%,41.0,51.0,46.84,46.84,%,41.0,51.0,NORMAL,,END OF TREATMENT,9,2025-10-07,140
STUDY001,LB,STUDY001-SUBJ0005,83,L00083,WBC,White Blood Cell Count,HEMATOLOGY,5.53,10^9/L,4.5,11.0,5.53,5.53,10^9/L,4.5,11.0,NORMAL,,END OF TREATMENT,9,2025-10-07,140
STUDY001,LB,STUDY001-SUBJ0005,84,L00084,PLT,Platelet Count,HEMATOLOGY,243.22,10^9/L,150.0,450.0,243.22,243.22,10^9/L,150.0,450.0,NORMAL,,END OF TREATMENT,9,2025-10-07,140
STUDY001,LB,STUDY001-SUBJ0005,85,L00085,GLUC,Glucose,CHEMISTRY,77.56,mg/dL,70.0,100.0,77.56,77.56,mg/dL,70.0,100.0,NORMAL,,END OF TREATMENT,9,2025-10-07,140
STUDY001,LB,STUDY001-SUBJ0005,86,L00086,BUN,Blood Urea Nitrogen,CHEMISTRY,9.38,mg/dL,7.0,20.0,9.38,9.38,mg/dL,7.0,20.0,NORMAL,,END OF TREATMENT,9,2025-10-07,140
STUDY001,LB,STUDY001-SUBJ0005,87,L00087,CREAT,Creatinine,CHEMISTRY,0.71,mg/dL,0.6,1.2,0.71,0.71,mg/dL,0.6,1.2,NORMAL,,END OF TREATMENT,9,2025-10-07,140
STUDY001,LB,STUDY001-SUBJ0005,88,L00088,BILI,Total Bilirubin,CHEMISTRY,0.83,mg/dL,0.1,1.2,0.83,0.83,mg/dL,0.1,1.2,NORMAL,,END OF TREATMENT,9,2025-10-07,140
STUDY001,LB,STUDY001-SUBJ0005,89,L00089,ALP,Alkaline Phosphatase,CHEMISTRY,85.78,U/L,44.0,147.0,85.78,85.78,U/L,44.0,147.0,NORMAL,,END OF TREATMENT,9,2025-10-07,140
STUDY001,LB,STUDY001-SUBJ0005,90,L00090,ALT,Alanine Aminotransferase,CHEMISTRY,34.92,U/L,7.0,56.0,34.92,34.92,U/L,7.0,56.0,NORMAL,,END OF TREATMENT,9,2025-10-07,140
STUDY001,LB,STUDY001-SUBJ0006,1,L00001,HGB,Hemoglobin,HEMATOLOGY,17.6,g/dL,13.5,17.5,17.6,17.6,g/dL,13.5,17.5,HIGH,,SCREENING,1,2024-08-31,-14
STUDY001,LB,STUDY001-SUBJ0006,2,L00002,HCT,Hematocrit,HEMATOLOGY,48.64,%,41.0,51.0,48.64,48.64,%,41.0,51.0,NORMAL,,SCREENING,1,2024-08-31,-14
STUDY001,LB,STUDY001-SUBJ0006,3,L00003,WBC,White Blood Cell Count,HEMATOLOGY,6.81,10^9/L,4.5,11.0,6.81,6.81,10^9/L,4.5,11.0,NORMAL,,SCREENING,1,2024-08-31,-14
STUDY001,LB,STUDY001-SUBJ0006,4,L00004,PLT,Platelet Count,HEMATOLOGY,184.58,10^9/L,150.0,450.0,184.58,184.58,10^9/L,150.0,450.0,NORMAL,,SCREENING,1,2024-08-31,-14
STUDY001,LB,STUDY001-SUBJ0006,5,L00005,GLUC,Glucose,CHEMISTRY,68.91,mg/dL,70.0,100.0,68.91,68.91,mg/dL,70.0,100.0,LOW,,SCREENING,1,2024-08-31,-14
STUDY001,LB,STUDY001-SUBJ0006,6,L00006,BUN,Blood Urea Nitrogen,CHEMISTRY,14.87,mg/dL,7.0,20.0,14.87,14.87,mg/dL,7.0,20.0,NORMAL,,SCREENING,1,2024-08-31,-14
STUDY001,LB,STUDY001-SUBJ0006,7,L00007,CREAT,Creatinine,CHEMISTRY,0.99,mg/dL,0.6,1.2,0.99,0.99,mg/dL,0.6,1.2,NORMAL,,SCREENING,1,2024-08-31,-14
STUDY001,LB,STUDY001-SUBJ0006,8,L00008,BILI,Total Bilirubin,CHEMISTRY,0.77,mg/dL,0.1,1.2,0.77,0.77,mg/dL,0.1,1.2,NORMAL,,SCREENING,1,2024-08-31,-14
STUDY001,LB,STUDY001-SUBJ0006,9,L00009,ALP,Alkaline Phosphatase,CHEMISTRY,97.7,U/L,44.0,147.0,97.7,97.7,U/L,44.0,147.0,NORMAL,,SCREENING,1,2024-08-31,-14
STUDY001,LB,STUDY001-SUBJ0006,10,L00010,ALT,Alanine Aminotransferase,CHEMISTRY,25.05,U/L,7.0,56.0,25.05,25.05,U/L,7.0,56.0,NORMAL,,SCREENING,1,2024-08-31,-14
STUDY001,LB,STUDY001-SUBJ0006,11,L00011,HGB,Hemoglobin,HEMATOLOGY,17.62,g/dL,13.5,17.5,17.62,17.62,g/dL,13.5,17.5,HIGH,Y,BASELINE,2,2024-09-14,1
STUDY001,LB,STUDY001-SUBJ0006,12,L00012,HCT,Hematocrit,HEMATOLOGY,48.77,%,41.0,51.0,48.77,48.77,%,41.0,51.0,NORMAL,Y,BASELINE,2,2024-09-14,1
STUDY001,LB,STUDY001-SUBJ0006,13,L00013,WBC,White Blood Cell Count,HEMATOLOGY,6.93,10^9/L,4.5,11.0,6.93,6.93,10^9/L,4.5,11.0,NORMAL,Y,BASELINE,2,2024-09-14,1
STUDY001,LB,STUDY001-SUBJ0006,14,L00014,PLT,Platelet Count,HEMATOLOGY,178.2,10^9/L,150.0,450.0,178.2,178.2,10^9/L,150.0,450.0,NORMAL,Y,BASELINE,2,2024-09-14,1
STUDY001,LB,STUDY001-SUBJ0006,15,L00015,GLUC,Glucose,CHEMISTRY,68.7,mg/dL,70.0,100.0,68.7,68.7,mg/dL,70.0,100.0,LOW,Y,BASELINE,2,2024-09-14,1
STUDY001,LB,STUDY001-SUBJ0006,16,L00016,BUN,Blood Urea Nitrogen,CHEMISTRY,14.65,mg/dL,7.0,20.0,14.65,14.65,mg/dL,7.0,20.0,NORMAL,Y,BASELINE,2,2024-09-14,1
STUDY001,LB,STUDY001-SUBJ0006,17,L00017,CREAT,Creatinine,CHEMISTRY,1.0,mg/dL,0.6,1.2,1.0,1.0,mg/dL,0.6,1.2,NORMAL,Y,BASELINE,2,2024-09-14,1
STUDY001,LB,STUDY001-SUBJ0006,18,L00018,BILI,Total Bilirubin,CHEMISTRY,0.77,mg/dL,0.1,1.2,0.77,0.77,mg/dL,0.1,1.2,NORMAL,Y,BASELINE,2,2024-09-14,1
STUDY001,LB,STUDY001-SUBJ0006,19,L00019,ALP,Alkaline Phosphatase,CHEMISTRY,98.54,U/L,44.0,147.0,98.54,98.54,U/L,44.0,147.0,NORMAL,Y,BASELINE,2,2024-09-14,1
STUDY001,LB,STUDY001-SUBJ0006,20,L00020,ALT,Alanine Aminotransferase,CHEMISTRY,24.64,U/L,7.0,56.0,24.64,24.64,U/L,7.0,56.0,NORMAL,Y,BASELINE,2,2024-09-14,1
STUDY001,LB,STUDY001-SUBJ0006,21,L00021,HGB,Hemoglobin,HEMATOLOGY,17.67,g/dL,13.5,17.5,17.67,17.67,g/dL,13.5,17.5,HIGH,,WEEK 1,3,2024-09-20,7
STUDY001,LB,STUDY001-SUBJ0006,22,L00022,HCT,Hematocrit,HEMATOLOGY,48.76,%,41.0,51.0,48.76,48.76,%,41.0,51.0,NORMAL,,WEEK 1,3,2024-09-20,7
STUDY001,LB,STUDY001-SUBJ0006,23,L00023,WBC,White Blood Cell Count,HEMATOLOGY,6.83,10^9/L,4.5,11.0,6.83,6.83,10^9/L,4.5,11.0,NORMAL,,WEEK 1,3,2024-09-20,7
STUDY001,LB,STUDY001-SUBJ0006,24,L00024,PLT,Platelet Count,HEMATOLOGY,184.85,10^9/L,150.0,450.0,184.85,184.85,10^9/L,150.0,450.0,NORMAL,,WEEK 1,3,2024-09-20,7
STUDY001,LB,STUDY001-SUBJ0006,25,L00025,GLUC,Glucose,CHEMISTRY,66.32,mg/dL,70.0,100.0,66.32,66.32,mg/dL,70.0,100.0,LOW,,WEEK 1,3,2024-09-20,7
STUDY001,LB,STUDY001-SUBJ0006,26,L00026,BUN,Blood Urea Nitrogen,CHEMISTRY,14.45,mg/dL,7.0,20.0,14.45,14.45,mg/dL,7.0,20.0,NORMAL,,WEEK 1,3,2024-09-20,7
STUDY001,LB,STUDY001-SUBJ0006,27,L00027,CREAT,Creatinine,CHEMISTRY,0.99,mg/dL,0.6,1.2,0.99,0.99,mg/dL,0.6,1.2,NORMAL,,WEEK 1,3,2024-09-20,7
STUDY001,LB,STUDY001-SUBJ0006,28,L00028,BILI,Total Bilirubin,CHEMISTRY,0.74,mg/dL,0.1,1.2,0.74,0.74,mg/dL,0.1,1.2,NORMAL,,WEEK 1,3,2024-09-20,7
STUDY001,LB,STUDY001-SUBJ0006,29,L00029,ALP,Alkaline Phosphatase,CHEMISTRY,95.02,U/L,44.0,147.0,95.02,95.02,U/L,44.0,147.0,NORMAL,,WEEK 1,3,2024-09-20,7
STUDY001,LB,STUDY001-SUBJ0006,30,L00030,ALT,Alanine Aminotransferase,CHEMISTRY,25.66,U/L,7.0,56.0,25.66,25.66,U/L,7.0,56.0,NORMAL,,WEEK 1,3,2024-09-20,7
STUDY001,LB,STUDY001-SUBJ0006,31,L00031,HGB,Hemoglobin,HEMATOLOGY,17.66,g/dL,13.5,17.5,17.66,17.66,g/dL,13.5,17.5,HIGH,,WEEK 2,4,2024-09-27,14
STUDY001,LB,STUDY001-SUBJ0006,32,L00032,HCT,Hematocrit,HEMATOLOGY,48.37,%,41.0,51.0,48.37,48.37,%,41.0,51.0,NORMAL,,WEEK 2,4,2024-09-27,14
STUDY001,LB,STUDY001-SUBJ0006,33,L00033,WBC,White Blood Cell Count,HEMATOLOGY,6.63,10^9/L,4.5,11.0,6.63,6.63,10^9/L,4.5,11.0,NORMAL,,WEEK 2,4,2024-09-27,14
STUDY001,LB,STUDY001-SUBJ0006,34,L00034,PLT,Platelet Count,HEMATOLOGY,187.25,10^9/L,150.0,450.0,187.25,187.25,10^9/L,150.0,450.0,NORMAL,,WEEK 2,4,2024-09-27,14
STUDY001,LB,STUDY001-SUBJ0006,35,L00035,GLUC,Glucose,CHEMISTRY,66.93,mg/dL,70.0,100.0,66.93,66.93,mg/dL,70.0,100.0,LOW,,WEEK 2,4,2024-09-27,14
STUDY001,LB,STUDY001-SUBJ0006,36,L00036,BUN,Blood Urea Nitrogen,CHEMISTRY,15.09,mg/dL,7.0,20.0,15.09,15.09,mg/dL,7.0,20.0,NORMAL,,WEEK 2,4,2024-09-27,14
STUDY001,LB,STUDY001-SUBJ0006,37,L00037,CREAT,Creatinine,CHEMISTRY,1.01,mg/dL,0.6,1.2,1.01,1.01,mg/dL,0.6,1.2,NORMAL,,WEEK 2,4,2024-09-27,14
STUDY001,LB,STUDY001-SUBJ0006,38,L00038,BILI,Total Bilirubin,CHEMISTRY,0.76,mg/dL,0.1,1.2,0.76,0.76,mg/dL,0.1,1.2,NORMAL,,WEEK 2,4,2024-09-27,14
STUDY001,LB,STUDY001-SUBJ0006,39,L00039,ALP,Alkaline Phosphatase,CHEMISTRY,97.84,U/L,44.0,147.0,97.84,97.84,U/L,44.0,147.0,NORMAL,,WEEK 2,4,2024-09-27,14
STUDY001,LB,STUDY001-SUBJ0006,40,L00040,ALT,Alanine Aminotransferase,CHEMISTRY,24.79,U/L,7.0,56.0,24.79,24.79,U/L,7.0,56.0,NORMAL,,WEEK 2,4,2024-09-27,14
STUDY001,LB,STUDY001-SUBJ0006,41,L00041,HGB,Hemoglobin,HEMATOLOGY,17.58,g/dL,13.5,17.5,17.58,17.58,g/dL,13.5,17.5,HIGH,,WEEK 4,5,2024-10-11,28
STUDY001,LB,STUDY001-SUBJ0006,42,L00042,HCT,Hematocrit,HEMATOLOGY,48.47,%,41.0,51.0,48.47,48.47,%,41.0,51.0,NORMAL,,WEEK 4,5,2024-10-11,28
STUDY001,LB,STUDY001-SUBJ0006,43,L00043,WBC,White Blood Cell Count,HEMATOLOGY,6.99,10^9/L,4.5,11.0,6.99,6.99,10^9/L,4.5,11.0,NORMAL,,WEEK 4,5,2024-10-11,28
STUDY001,LB,STUDY001-SUBJ0006,44,L00044,PLT,Platelet Count,HEMATOLOGY,179.58,10^9/L,150.0,450.0,179.58,179.58,10^9/L,150.0,450.0,NORMAL,,WEEK 4,5,2024-10-11,28
STUDY001,LB,STUDY001-SUBJ0006,45,L00045,GLUC,Glucose,CHEMISTRY,68.4,mg/dL,70.0,100.0,68.4,68.4,mg/dL,70.0,100.0,LOW,,WEEK 4,5,2024-10-11,28
STUDY001,LB,STUDY001-SUBJ0006,46,L00046,BUN,Blood Urea Nitrogen,CHEMISTRY,15.15,mg/dL,7.0,20.0,15.15,15.15,mg/dL,7.0,20.0,NORMAL,,WEEK 4,5,2024-10-11,28
STUDY001,LB,STUDY001-SUBJ0006,47,L00047,CREAT,Creatinine,CHEMISTRY,0.98,mg/dL,0.6,1.2,0.98,0.98,mg/dL,0.6,1.2,NORMAL,,WEEK 4,5,2024-10-11,28
STUDY001,LB,STUDY001-SUBJ0006,48,L00048,BILI,Total Bilirubin,CHEMISTRY,0.79,mg/dL,0.1,1.2,0.79,0.79,mg/dL,0.1,1.2,NORMAL,,WEEK 4,5,2024-10-11,28
STUDY001,LB,STUDY001-SUBJ0006,49,L00049,ALP,Alkaline Phosphatase,CHEMISTRY,96.14,U/L,44.0,147.0,96.14,96.14,U/L,44.0,147.0,NORMAL,,WEEK 4,5,2024-10-11,28
STUDY001,LB,STUDY001-SUBJ0006,50,L00050,ALT,Alanine Aminotransferase,CHEMISTRY,24.51,U/L,7.0,56.0,24.51,24.51,U/L,7.0,56.0,NORMAL,,WEEK 4,5,2024-10-11,28
STUDY001,LB,STUDY001-SUBJ0006,51,L00051,HGB,Hemoglobin,HEMATOLOGY,17.55,g/dL,13.5,17.5,17.55,17.55,g/dL,13.5,17.5,HIGH,,WEEK 8,6,2024-11-08,56
STUDY001,LB,STUDY001-SUBJ0006,52,L00052,HCT,Hematocrit,HEMATOLOGY,48.69,%,41.0,51.0,48.69,48.69,%,41.0,51.0,NORMAL,,WEEK 8,6,2024-11-08,56
STUDY001,LB,STUDY001-SUBJ0006,53,L00053,WBC,White Blood Cell Count,HEMATOLOGY,6.8,10^9/L,4.5,11.0,6.8,6.8,10^9/L,4.5,11.0,NORMAL,,WEEK 8,6,2024-11-08,56
STUDY001,LB,STUDY001-SUBJ0006,54,L00054,PLT,Platelet Count,HEMATOLOGY,181.11,10^9/L,150.0,450.0,181.11,181.11,10^9/L,150.0,450.0,NORMAL,,WEEK 8,6,2024-11-08,56
STUDY001,LB,STUDY001-SUBJ0006,55,L00055,GLUC,Glucose,CHEMISTRY,69.43,mg/dL,70.0,100.0,69.43,69.43,mg/dL,70.0,100.0,LOW,,WEEK 8,6,2024-11-08,56
STUDY001,LB,STUDY001-SUBJ0006,56,L00056,BUN,Blood Urea Nitrogen,CHEMISTRY,15.06,mg/dL,7.0,20.0,15.06,15.06,mg/dL,7.0,20.0,NORMAL,,WEEK 8,6,2024-11-08,56
STUDY001,LB,STUDY001-SUBJ0006,57,L00057,CREAT,Creatinine,CHEMISTRY,0.99,mg/dL,0.6,1.2,0.99,0.99,mg/dL,0.6,1.2,NORMAL,,WEEK 8,6,2024-11-08,56
STUDY001,LB,STUDY001-SUBJ0006,58,L00058,BILI,Total Bilirubin,CHEMISTRY,0.78,mg/dL,0.1,1.2,0.78,0.78,mg/dL,0.1,1.2,NORMAL,,WEEK 8,6,2024-11-08,56
STUDY001,LB,STUDY001-SUBJ0006,59,L00059,ALP,Alkaline Phosphatase,CHEMISTRY,96.16,U/L,44.0,147.0,96.16,96.16,U/L,44.0,147.0,NORMAL,,WEEK 8,6,2024-11-08,56
STUDY001,LB,STUDY001-SUBJ0006,60,L00060,ALT,Alanine Aminotransferase,CHEMISTRY,26.25,U/L,7.0,56.0,26.25,26.25,U/L,7.0,56.0,NORMAL,,WEEK 8,6,2024-11-08,56
STUDY001,LB,STUDY001-SUBJ0006,61,L00061,HGB,Hemoglobin,HEMATOLOGY,17.67,g/dL,13.5,17.5,17.67,17.67,g/dL,13.5,17.5,HIGH,,WEEK 12,7,2024-12-06,84
STUDY001,LB,STUDY001-SUBJ0006,62,L00062,HCT,Hematocrit,HEMATOLOGY,48.6,%,41.0,51.0,48.6,48.6,%,41.0,51.0,NORMAL,,WEEK 12,7,2024-12-06,84
STUDY001,LB,STUDY001-SUBJ0006,63,L00063,WBC,White Blood Cell Count,HEMATOLOGY,7.0,10^9/L,4.5,11.0,7.0,7.0,10^9/L,4.5,11.0,NORMAL,,WEEK 12,7,2024-12-06,84
STUDY001,LB,STUDY001-SUBJ0006,64,L00064,PLT,Platelet Count,HEMATOLOGY,185.32,10^9/L,150.0,450.0,185.32,185.32,10^9/L,150.0,450.0,NORMAL,,WEEK 12,7,2024-12-06,84
STUDY001,LB,STUDY001-SUBJ0006,65,L00065,GLUC,Glucose,CHEMISTRY,67.85,mg/dL,70.0,100.0,67.85,67.85,mg/dL,70.0,100.0,LOW,,WEEK 12,7,2024-12-06,84
STUDY001,LB,STUDY001-SUBJ0006,66,L00066,BUN,Blood Urea Nitrogen,CHEMISTRY,14.91,mg/dL,7.0,20.0,14.91,14.91,mg/dL,7.0,20.0,NORMAL,,WEEK 12,7,2024-12-06,84
STUDY001,LB,STUDY001-SUBJ0006,67,L00067,CREAT,Creatinine,CHEMISTRY,0.96,mg/dL,0.6,1.2,0.96,0.96,mg/dL,0.6,1.2,NORMAL,,WEEK 12,7,2024-12-06,84
STUDY001,LB,STUDY001-SUBJ0006,68,L00068,BILI,Total Bilirubin,CHEMISTRY,0.77,mg/dL,0.1,1.2,0.77,0.77,mg/dL,0.1,1.2,NORMAL,,WEEK 12,7,2024-12-06,84
STUDY001,LB,STUDY001-SUBJ0006,69,L00069,ALP,Alkaline Phosphatase,CHEMISTRY,98.2,U/L,44.0,147.0,98.2,98.2,U/L,44.0,147.0,NORMAL,,WEEK 12,7,2024-12-06,84
STUDY001,LB,STUDY001-SUBJ0006,70,L00070,ALT,Alanine Aminotransferase,CHEMISTRY,24.02,U/L,7.0,56.0,24.02,24.02,U/L,7.0,56.0,NORMAL,,WEEK 12,7,2024-12-06,84
STUDY001,LB,STUDY001-SUBJ0006,71,L00071,HGB,Hemoglobin,HEMATOLOGY,17.59,g/dL,13.5,17.5,17.59,17.59,g/dL,13.5,17.5,HIGH,,WEEK 16,8,2025-01-03,112
STUDY001,LB,STUDY001-SUBJ0006,72,L00072,HCT,Hematocrit,HEMATOLOGY,48.79,%,41.0,51.0,48.79,48.79,%,41.0,51.0,NORMAL,,WEEK 16,8,2025-01-03,112
STUDY001,LB,STUDY001-SUBJ0006,73,L00073,WBC,White Blood Cell Count,HEMATOLOGY,6.92,10^9/L,4.5,11.0,6.92,6.92,10^9/L,4.5,11.0,NORMAL,,WEEK 16,8,2025-01-03,112
STUDY001,LB,STUDY001-SUBJ0006,74,L00074,PLT,Platelet Count,HEMATOLOGY,178.66,10^9/L,150.0,450.0,178.66,178.66,10^9/L,150.0,450.0,NORMAL,,WEEK 16,8,2025-01-03,112
STUDY001,LB,STUDY001-SUBJ0006,75,L00075,GLUC,Glucose,CHEMISTRY,67.86,mg/dL,70.0,100.0,67.86,67.86,mg/dL,70.0,100.0,LOW,,WEEK 16,8,2025-01-03,112
STUDY001,LB,STUDY001-SUBJ0006,76,L00076,BUN,Blood Urea Nitrogen,CHEMISTRY,14.94,mg/dL,7.0,20.0,14.94,14.94,mg/dL,7.0,20.0,NORMAL,,WEEK 16,8,2025-01-03,112
STUDY001,LB,STUDY001-SUBJ0006,77,L00077,CREAT,Creatinine,CHEMISTRY,1.0,mg/dL,0.6,1.2,1.0,1.0,mg/dL,0.6,1.2,NORMAL,,WEEK 16,8,2025-01-03,112
STUDY001,LB,STUDY001-SUBJ0006,78,L00078,BILI,Total Bilirubin,CHEMISTRY,0.79,mg/dL,0.1,1.2,0.79,0.79,mg/dL,0.1,1.2,NORMAL,,WEEK 16,8,2025-01-03,112
STUDY001,LB,STUDY001-SUBJ0006,79,L00079,ALP,Alkaline Phosphatase,CHEMISTRY,96.79,U/L,44.0,147.0,96.79,96.79,U/L,44.0,147.0,NORMAL,,WEEK 16,8,2025-01-03,112
STUDY001,LB,STUDY001-SUBJ0006,80,L00080,ALT,Alanine Aminotransferase,CHEMISTRY,26.59,U/L,7.0,56.0,26.59,26.59,U/L,7.0,56.0,NORMAL,,WEEK 16,8,2025-01-03,112
STUDY001,LB,STUDY001-SUBJ0006,81,L00081,HGB,Hemoglobin,HEMATOLOGY,17.51,g/dL,13.5,17.5,17.51,17.51,g/dL,13.5,17.5,HIGH,,END OF TREATMENT,9,2025-01-31,140
STUDY001,LB,STUDY001-SUBJ0006,82,L00082,HCT,Hematocrit,HEMATOLOGY,48.48,%,41.0,51.0,48.48,48.48,%,41.0,51.0,NORMAL,,END OF TREATMENT,9,2025-01-31,140
STUDY001,LB,STUDY001-SUBJ0006,83,L00083,WBC,White Blood Cell Count,HEMATOLOGY,6.76,10^9/L,4.5,11.0,6.76,6.76,10^9/L,4.5,11.0,NORMAL,,END OF TREATMENT,9,2025-01-31,140
STUDY001,LB,STUDY001-SUBJ0006,84,L00084,PLT,Platelet Count,HEMATOLOGY,182.01,10^9/L,150.0,450.0,182.01,182.01,10^9/L,150.0,450.0,NORMAL,,END OF TREATMENT,9,2025-01-31,140
STUDY001,LB,STUDY001-SUBJ0006,85,L00085,GLUC,Glucose,CHEMISTRY,65.73,mg/dL,70.0,100.0,65.73,65.73,mg/dL,70.0,100.0,LOW,,END OF TREATMENT,9,2025-01-31,140
STUDY001,LB,STUDY001-SUBJ0006,86,L00086,BUN,Blood Urea Nitrogen,CHEMISTRY,14.69,mg/dL,7.0,20.0,14.69,14.69,mg/dL,7.0,20.0,NORMAL,,END OF TREATMENT,9,2025-01-31,140
STUDY001,LB,STUDY001-SUBJ0006,87,L00087,CREAT,Creatinine,CHEMISTRY,1.0,mg/dL,0.6,1.2,1.0,1.0,mg/dL,0.6,1.2,NORMAL,,END OF TREATMENT,9,2025-01-31,140
STUDY001,LB,STUDY001-SUBJ0006,88,L00088,BILI,Total Bilirubin,CHEMISTRY,0.76,mg/dL,0.1,1.2,0.76,0.76,mg/dL,0.1,1.2,NORMAL,,END OF TREATMENT,9,2025-01-31,140
STUDY001,LB,STUDY001-SUBJ0006,89,L00089,ALP,Alkaline Phosphatase,CHEMISTRY,99.31,U/L,44.0,147.0,99.31,99.31,U/L,44.0,147.0,NORMAL,,END OF TREATMENT,9,2025-01-31,140
STUDY001,LB,STUDY001-SUBJ0006,90,L00090,ALT,Alanine Aminotransferase,CHEMISTRY,25.12,U/L,7.0,56.0,25.12,25.12,U/L,7.0,56.0,NORMAL,,END OF TREATMENT,9,2025-01-31,140
STUDY001,LB,STUDY001-SUBJ0007,1,L00001,HGB,Hemoglobin,HEMATOLOGY,14.8,g/dL,13.5,17.5,14.8,14.8,g/dL,13.5,17.5,NORMAL,,SCREENING,1,2025-07-02,-14
STUDY001,LB,STUDY001-SUBJ0007,2,L00002,HCT,Hematocrit,HEMATOLOGY,47.55,%,41.0,51.0,47.55,47.55,%,41.0,51.0,NORMAL,,SCREENING,1,2025-07-02,-14
STUDY001,LB,STUDY001-SUBJ0007,3,L00003,WBC,White Blood Cell Count,HEMATOLOGY,8.13,10^9/L,4.5,11.0,8.13,8.13,10^9/L,4.5,11.0,NORMAL,,SCREENING,1,2025-07-02,-14
STUDY001,LB,STUDY001-SUBJ0007,4,L00004,PLT,Platelet Count,HEMATOLOGY,268.7,10^9/L,150.0,450.0,268.7,268.7,10^9/L,150.0,450.0,NORMAL,,SCREENING,1,2025-07-02,-14
STUDY001,LB,STUDY001-SUBJ0007,5,L00005,GLUC,Glucose,CHEMISTRY,72.9,mg/dL,70.0,100.0,72.9,72.9,mg/dL,70.0,100.0,NORMAL,,SCREENING,1,2025-07-02,-14
STUDY001,LB,STUDY001-SUBJ0007,6,L00006,BUN,Blood Urea Nitrogen,CHEMISTRY,12.23,mg/dL,7.0,20.0,12.23,12.23,mg/dL,7.0,20.0,NORMAL,,SCREENING,1,2025-07-02,-14
STUDY001,LB,STUDY001-SUBJ0007,7,L00007,CREAT,Creatinine,CHEMISTRY,0.86,mg/dL,0.6,1.2,0.86,0.86,mg/dL,0.6,1.2,NORMAL,,SCREENING,1,2025-07-02,-14
STUDY001,LB,STUDY001-SUBJ0007,8,L00008,BILI,Total Bilirubin,CHEMISTRY,0.88,mg/dL,0.1,1.2,0.88,0.88,mg/dL,0.1,1.2,NORMAL,,SCREENING,1,2025-07-02,-14
STUDY001,LB,STUDY001-SUBJ0007,9,L00009,ALP,Alkaline Phosphatase,CHEMISTRY,82.96,U/L,44.0,147.0,82.96,82.96,U/L,44.0,147.0,NORMAL,,SCREENING,1,2025-07-02,-14
STUDY001,LB,STUDY001-SUBJ0007,10,L00010,ALT,Alanine Aminotransferase,CHEMISTRY,15.14,U/L,7.0,56.0,15.14,15.14,U/L,7.0,56.0,NORMAL,,SCREENING,1,2025-07-02,-14
STUDY001,LB,STUDY001-SUBJ0007,11,L00011,HGB,Hemoglobin,HEMATOLOGY,14.98,g/dL,13.5,17.5,14.98,14.98,g/dL,13.5,17.5,NORMAL,Y,BASELINE,2,2025-07-16,1
STUDY001,LB,STUDY001-SUBJ0007,12,L00012,HCT,Hematocrit,HEMATOLOGY,47.52,%,41.0,51.0,47.52,47.52,%,41.0,51.0,NORMAL,Y,BASELINE,2,2025-07-16,1
STUDY001,LB,STUDY001-SUBJ0007,13,L00013,WBC,White Blood Cell Count,HEMATOLOGY,8.24,10^9/L,4.5,11.0,8.24,8.24,10^9/L,4.5,11.0,NORMAL,Y,BASELINE,2,2025-07-16,1
STUDY001,LB,STUDY001-SUBJ0007,14,L00014,PLT,Platelet Count,HEMATOLOGY,273.12,10^9/L,150.0,450.0,273.12,273.12,10^9/L,150.0,450.0,NORMAL,Y,BASELINE,2,2025-07-16,1
STUDY001,LB,STUDY001-SUBJ0007,15,L00015,GLUC,Glucose,CHEMISTRY,73.64,mg/dL,70.0,100.0,73.64,73.64,mg/dL,70.0,100.0,NORMAL,Y,BASELINE,2,2025-07-16,1
STUDY001,LB,STUDY001-SUBJ0007,16,L00016,BUN,Blood Urea Nitrogen,CHEMISTRY,12.95,mg/dL,7.0,20.0,12.95,12.95,mg/dL,7.0,20.0,NORMAL,Y,BASELINE,2,2025-07-16,1
STUDY001,LB,STUDY001-SUBJ0007,17,L00017,CREAT,Creatinine,CHEMISTRY,0.86,mg/dL,0.6,1.2,0.86,0.86,mg/dL,0.6,1.2,NORMAL,Y,BASELINE,2,2025-07-16,1
STUDY001,LB,STUDY001-SUBJ0007,18,L00018,BILI,Total Bilirubin,CHEMISTRY,0.95,mg/dL,0.1,1.2,0.95,0.95,mg/dL,0.1,1.2,NORMAL,Y,BASELINE,2,2025-07-16,1
STUDY001,LB,STUDY001-SUBJ0007,19,L00019,ALP,Alkaline Phosphatase,CHEMISTRY,84.11,U/L,44.0,147.0,84.11,84.11,U/L,44.0,147.0,NORMAL,Y,BASELINE,2,2025-07-16,1
STUDY001,LB,STUDY001-SUBJ0007,20,L00020,ALT,Alanine Aminotransferase,CHEMISTRY,15.98,U/L,7.0,56.0,15.98,15.98,U/L,7.0,56.0,NORMAL,Y,BASELINE,2,2025-07-16,1
STUDY001,LB,STUDY001-SUBJ0007,21,L00021,HGB,Hemoglobin,HEMATOLOGY,14.82,g/dL,13.5,17.5,14.82,14.82,g/dL,13.5,17.5,NORMAL,,WEEK 1,3,2025-07-22,7
STUDY001,LB,STUDY001-SUBJ0007,22,L00022,HCT,Hematocrit,HEMATOLOGY,47.49,%,41.0,51.0,47.49,47.49,%,41.0,51.0,NORMAL,,WEEK 1,3,2025-07-22,7
STUDY001,LB,STUDY001-SUBJ0007,23,L00023,WBC,White Blood Cell Count,HEMATOLOGY,8.23,10^9/L,4.5,11.0,8.23,8.23,10^9/L,4.5,11.0,NORMAL,,WEEK 1,3,2025-07-22,7
STUDY001,LB,STUDY001-SUBJ0007,24,L00024,PLT,Platelet Count,HEMATOLOGY,280.3,10^9/L,150.0,450.0,280.3,280.3,10^9/L,150.0,450.0,NORMAL,,WEEK 1,3,2025-07-22,7
STUDY001,LB,STUDY001-SUBJ0007,25,L00025,GLUC,Glucose,CHEMISTRY,75.01,mg/dL,70.0,100.0,75.01,75.01,mg/dL,70.0,100.0,NORMAL,,WEEK 1,3,2025-07-22,7
STUDY001,LB,STUDY001-SUBJ0007,26,L00026,BUN,Blood Urea Nitrogen,CHEMISTRY,12.58,mg/dL,7.0,20.0,12.58,12.58,mg/dL,7.0,20.0,NORMAL,,WEEK 1,3,2025-07-22,7
STUDY001,LB,STUDY001-SUBJ0007,27,L00027,CREAT,Creatinine,CHEMISTRY,0.83,mg/dL,0.6,1.2,0.83,0.83,mg/dL,0.6,1.2,NORMAL,,WEEK 1,3,2025-07-22,7
STUDY001,LB,STUDY001-SUBJ0007,28,L00028,BILI,Total Bilirubin,CHEMISTRY,0.96,mg/dL,0.1,1.2,0.96,0.96,mg/dL,0.1,1.2,NORMAL,,WEEK 1,3,2025-07-22,7
STUDY001,LB,STUDY001-SUBJ0007,29,L00029,ALP,Alkaline Phosphatase,CHEMISTRY,86.34,U/L,44.0,147.0,86.34,86.34,U/L,44.0,147.0,NORMAL,,WEEK 1,3,2025-07-22,7
STUDY001,LB,STUDY001-SUBJ0007,30,L00030,ALT,Alanine Aminotransferase,CHEMISTRY,15.96,U/L,7.0,56.0,15.96,15.96,U/L,7.0,56.0,NORMAL,,WEEK 1,3,2025-07-22,7
STUDY001,LB,STUDY001-SUBJ0007,31,L00031,HGB,Hemoglobin,HEMATOLOGY,14.96,g/dL,13.5,17.5,14.96,14.96,g/dL,13.5,17.5,NORMAL,,WEEK 2,4,2025-07-29,14
STUDY001,LB,STUDY001-SUBJ0007,32,L00032,HCT,Hematocrit,HEMATOLOGY,47.56,%,41.0,51.0,47.56,47.56,%,41.0,51.0,NORMAL,,WEEK 2,4,2025-07-29,14
STUDY001,LB,STUDY001-SUBJ0007,33,L00033,WBC,White Blood Cell Count,HEMATOLOGY,8.05,10^9/L,4.5,11.0,8.05,8.05,10^9/L,4.5,11.0,NORMAL,,WEEK 2,4,2025-07-29,14
STUDY001,LB,STUDY001-SUBJ0007,34,L00034,PLT,Platelet Count,HEMATOLOGY,280.36,10^9/L,150.0,450.0,280.36,280.36,10^9/L,150.0,450.0,NORMAL,,WEEK 2,4,2025-07-29,14
STUDY001,LB,STUDY001-SUBJ0007,35,L00035,GLUC,Glucose,CHEMISTRY,73.21,mg/dL,70.0,100.0,73.21,73.21,mg/dL,70.0,100.0,NORMAL,,WEEK 2,4,2025-07-29,14
STUDY001,LB,STUDY001-SUBJ0007,36,L00036,BUN,Blood Urea Nitrogen,CHEMISTRY,12.67,mg/dL,7.0,20.0,12.67,12.67,mg/dL,7.0,20.0,NORMAL,,WEEK 2,4,2025-07-29,14
STUDY001,LB,STUDY001-SUBJ0007,37,L00037,CREAT,Creatinine,CHEMISTRY,0.86,mg/dL,0.6,1.2,0.86,0.86,mg/dL,0.6,1.2,NORMAL,,WEEK 2,4,2025-07-29,14
STUDY001,LB,STUDY001-SUBJ0007,38,L00038,BILI,Total Bilirubin,CHEMISTRY,0.91,mg/dL,0.1,1.2,0.91,0.91,mg/dL,0.1,1.2,NORMAL,,WEEK 2,4,2025-07-29,14
STUDY001,LB,STUDY001-SUBJ0007,39,L00039,ALP,Alkaline Phosphatase,CHEMISTRY,83.71,U/L,44.0,147.0,83.71,83.71,U/L,44.0,147.0,NORMAL,,WEEK 2,4,2025-07-29,14
STUDY001,LB,STUDY001-SUBJ0007,40,L00040,ALT,Alanine Aminotransferase,CHEMISTRY,14.76,U/L,7.0,56.0,14.76,14.76,U/L,7.0,56.0,NORMAL,,WEEK 2,4,2025-07-29,14
STUDY001,LB,STUDY001-SUBJ0007,41,L00041,HGB,Hemoglobin,HEMATOLOGY,14.92,g/dL,13.5,17.5,14.92,14.92,g/dL,13.5,17.5,NORMAL,,WEEK 4,5,2025-08-12,28
STUDY001,LB,STUDY001-SUBJ0007,42,L00042,HCT,Hematocrit,HEMATOLOGY,47.61,%,41.0,51.0,47.61,47.61,%,41.0,51.0,NORMAL,,WEEK 4,5,2025-08-12,28
STUDY001,LB,STUDY001-SUBJ0007,43,L00043,WBC,White Blood Cell Count,HEMATOLOGY,8.37,10^9/L,4.5,11.0,8.37,8.37,10^9/L,4.5,11.0,NORMAL,,WEEK 4,5,2025-08-12,28
STUDY001,LB,STUDY001-SUBJ0007,44,L00044,PLT,Platelet Count,HEMATOLOGY,272.65,10^9/L,150.0,450.0,272.65,272.65,10^9/L,150.0,450.0,NORMAL,,WEEK 4,5,2025-08-12,28
STUDY001,LB,STUDY001-SUBJ0007,45,L00045,GLUC,Glucose,CHEMISTRY,72.84,mg/dL,70.0,100.0,72.84,72.84,mg/dL,70.0,100.0,NORMAL,,WEEK 4,5,2025-08-12,28
STUDY001,LB,STUDY001-SUBJ0007,46,L00046,BUN,Blood Urea Nitrogen,CHEMISTRY,12.06,mg/dL,7.0,20.0,12.06,12.06,mg/dL,7.0,20.0,NORMAL,,WEEK 4,5,2025-08-12,28
STUDY001,LB,STUDY001-SUBJ0007,47,L00047,CREAT,Creatinine,CHEMISTRY,0.85,mg/dL,0.6,1.2,0.85,0.85,mg/dL,0.6,1.2,NORMAL,,WEEK 4,5,2025-08-12,28
STUDY001,LB,STUDY001-SUBJ0007,48,L00048,BILI,Total Bilirubin,CHEMISTRY,0.9,mg/dL,0.1,1.2,0.9,0.9,mg/dL,0.1,1.2,NORMAL,,WEEK 4,5,2025-08-12,28
STUDY001,LB,STUDY001-SUBJ0007,49,L00049,ALP,Alkaline Phosphatase,CHEMISTRY,81.4,U/L,44.0,147.0,81.4,81.4,U/L,44.0,147.0,NORMAL,,WEEK 4,5,2025-08-12,28
STUDY001,LB,STUDY001-SUBJ0007,50,L00050,ALT,Alanine Aminotransferase,CHEMISTRY,17.04,U/L,7.0,56.0,17.04,17.04,U/L,7.0,56.0,NORMAL,,WEEK 4,5,2025-08-12,28
STUDY001,LB,STUDY001-SUBJ0007,51,L00051,HGB,Hemoglobin,HEMATOLOGY,14.97,g/dL,13.5,17.5,14.97,14.97,g/dL,13.5,17.5,NORMAL,,WEEK 8,6,2025-09-09,56
STUDY001,LB,STUDY001-SUBJ0007,52,L00052,HCT,Hematocrit,HEMATOLOGY,47.58,%,41.0,51.0,47.58,47.58,%,41.0,51.0,NORMAL,,WEEK 8,6,2025-09-09,56
STUDY001,LB,STUDY001-SUBJ0007,53,L00053,WBC,White Blood Cell Count,HEMATOLOGY,8.14,10^9/L,4.5,11.0,8.14,8.14,10^9/L,4.5,11.0,NORMAL,,WEEK 8,6,2025-09-09,56
STUDY001,LB,STUDY001-SUBJ0007,54,L00054,PLT,Platelet Count,HEMATOLOGY,269.6,10^9/L,150.0,450.0,269.6,269.6,10^9/L,150.0,450.0,NORMAL,,WEEK 8,6,2025-09-09,56
STUDY001,LB,STUDY001-SUBJ0007,55,L00055,GLUC,Glucose,CHEMISTRY,73.39,mg/dL,70.0,100.0,73.39,73.39,mg/dL,70.0,100.0,NORMAL,,WEEK 8,6,2025-09-09,56
STUDY001,LB,STUDY001-SUBJ0007,56,L00056,BUN,Blood Urea Nitrogen,CHEMISTRY,12.37,mg/dL,7.0,20.0,12.37,12.37,mg/dL,7.0,20.0,NORMAL,,WEEK 8,6,2025-09-09,56
STUDY001,LB,STUDY001-SUBJ0007,57,L00057,CREAT,Creatinine,CHEMISTRY,0.84,mg/dL,0.6,1.2,0.84,0.84,mg/dL,0.6,1.2,NORMAL,,WEEK 8,6,2025-09-09,56
STUDY001,LB,STUDY001-SUBJ0007,58,L00058,BILI,Total Bilirubin,CHEMISTRY,0.97,mg/dL,0.1,1.2,0.97,0.97,mg/dL,0.1,1.2,NORMAL,,WEEK 8,6,2025-09-09,56
STUDY001,LB,STUDY001-SUBJ0007,59,L00059,ALP,Alkaline Phosphatase,CHEMISTRY,85.29,U/L,44.0,147.0,85.29,85.29,U/L,44.0,147.0,NORMAL,,WEEK 8,6,2025-09-09,56
STUDY001,LB,STUDY001-SUBJ0007,60,L00060,ALT,Alanine Aminotransferase,CHEMISTRY,16.97,U/L,7.0,56.0,16.97,16.97,U/L,7.0,56.0,NORMAL,,WEEK 8,6,2025-09-09,56
STUDY001,LB,STUDY001-SUBJ0007,61,L00061,HGB,Hemoglobin,HEMATOLOGY,14.92,g/dL,13.5,17.5,14.92,14.92,g/dL,13.5,17.5,NORMAL,,WEEK 12,7,2025-10-07,84
STUDY001,LB,STUDY001-SUBJ0007,62,L00062,HCT,Hematocrit,HEMATOLOGY,47.44,%,41.0,51.0,47.44,47.44,%,41.0,51.0,NORMAL,,WEEK 12,7,2025-10-07,84
STUDY001,LB,STUDY001-SUBJ0007,63,L00063,WBC,White Blood Cell Count,HEMATOLOGY,8.47,10^9/L,4.5,11.0,8.47,8.47,10^9/L,4.5,11.0,NORMAL,,WEEK 12,7,2025-10-07,84
STUDY001,LB,STUDY001-SUBJ0007,64,L00064,PLT,Platelet Count,HEMATOLOGY,271.85,10^9/L,150.0,450.0,271.85,271.85,10^9/L,150.0,450.0,NORMAL,,WEEK 12,7,2025-10-07,84
STUDY001,LB,STUDY001-SUBJ0007,65,L00065,GLUC,Glucose,CHEMISTRY,73.85,mg/dL,70.0,100.0,73.85,73.85,mg/dL,70.0,100.0,NORMAL,,WEEK 12,7,2025-10-07,84
STUDY001,LB,STUDY001-SUBJ0007,66,L00066,BUN,Blood Urea Nitrogen,CHEMISTRY,12.53,mg/dL,7.0,20.0,12.53,12.53,mg/dL,7.0,20.0,NORMAL,,WEEK 12,7,2025-10-07,84
STUDY001,LB,STUDY001-SUBJ0007,67,L00067,CREAT,Creatinine,CHEMISTRY,0.86,mg/dL,0.6,1.2,0.86,0.86,mg/dL,0.6,1.2,NORMAL,,WEEK 12,7,2025-10-07,84
STUDY001,LB,STUDY001-SUBJ0007,68,L00068,BILI,Total Bilirubin,CHEMISTRY,0.93,mg/dL,0.1,1.2,0.93,0.93,mg/dL,0.1,1.2,NORMAL,,WEEK 12,7,2025-10-07,84
STUDY001,LB,STUDY001-SUBJ0007,69,L00069,ALP,Alkaline Phosphatase,CHEMISTRY,83.67,U/L,44.0,147.0,83.67,83.67,U/L,44.0,147.0,NORMAL,,WEEK 12,7,2025-10-07,84
STUDY001,LB,STUDY001-SUBJ0007,70,L00070,ALT,Alanine Aminotransferase,CHEMISTRY,16.92,U/L,7.0,56.0,16.92,16.92,U/L,7.0,56.0,NORMAL,,WEEK 12,7,2025-10-07,84
STUDY001,LB,STUDY001-SUBJ0007,71,L00071,HGB,Hemoglobin,HEMATOLOGY,14.61,g/dL,13.5,17.5,14.61,14.61,g/dL,13.5,17.5,NORMAL,,WEEK 16,8,2025-11-04,112
STUDY001,LB,STUDY001-SUBJ0007,72,L00072,HCT,Hematocrit,HEMATOLOGY,47.93,%,41.0,51.0,47.93,47.93,%,41.0,51.0,NORMAL,,WEEK 16,8,2025-11-04,112
STUDY001,LB,STUDY001-SUBJ0007,73,L00073,WBC,White Blood Cell Count,HEMATOLOGY,8.25,10^9/L,4.5,11.0,8.25,8.25,10^9/L,4.5,11.0,NORMAL,,WEEK 16,8,2025-11-04,112
STUDY001,LB,STUDY001-SUBJ0007,74,L00074,PLT,Platelet Count,HEMATOLOGY,268.74,10^9/L,150.0,450.0,268.74,268.74,10^9/L,150.0,450.0,NORMAL,,WEEK 16,8,2025-11-04,112
STUDY001,LB,STUDY001-SUBJ0007,75,L00075,GLUC,Glucose,CHEMISTRY,73.52,mg/dL,70.0,100.0,73.52,73.52,mg/dL,70.0,100.0,NORMAL,,WEEK 16,8,2025-11-04,112
STUDY001,LB,STUDY001-SUBJ0007,76,L00076,BUN,Blood Urea Nitrogen,CHEMISTRY,12.35,mg/dL,7.0,20.0,12.35,12.35,mg/dL,7.0,20.0,NORMAL,,WEEK 16,8,2025-11-04,112
STUDY001,LB,STUDY001-SUBJ0007,77,L00077,CREAT,Creatinine,CHEMISTRY,0.84,mg/dL,0.6,1.2,0.84,0.84,mg/dL,0.6,1.2,NORMAL,,WEEK 16,8,2025-11-04,112
STUDY001,LB,STUDY001-SUBJ0007,78,L00078,BILI,Total Bilirubin,CHEMISTRY,0.96,mg/dL,0.1,1.2,0.96,0.96,mg/dL,0.1,1.2,NORMAL,,WEEK 16,8,2025-11-04,112
STUDY001,LB,STUDY001-SUBJ0007,79,L00079,ALP,Alkaline Phosphatase,CHEMISTRY,85.13,U/L,44.0,147.0,85.13,85.13,U/L,44.0,147.0,NORMAL,,WEEK 16,8,2025-11-04,112
STUDY001,LB,STUDY001-SUBJ0007,80,L00080,ALT,Alanine Aminotransferase,CHEMISTRY,17.61,U/L,7.0,56.0,17.61,17.61,U/L,7.0,56.0,NORMAL,,WEEK 16,8,2025-11-04,112
STUDY001,LB,STUDY001-SUBJ0007,81,L00081,HGB,Hemoglobin,HEMATOLOGY,14.83,g/dL,13.5,17.5,14.83,14.83,g/dL,13.5,17.5,NORMAL,,END OF TREATMENT,9,2025-12-02,140
STUDY001,LB,STUDY001-SUBJ0007,82,L00082,HCT,Hematocrit,HEMATOLOGY,47.44,%,41.0,51.0,47.44,47.44,%,41.0,51.0,NORMAL,,END OF TREATMENT,9,2025-12-02,140
STUDY001,LB,STUDY001-SUBJ0007,83,L00083,WBC,White Blood Cell Count,HEMATOLOGY,8.03,10^9/L,4.5,11.0,8.03,8.03,10^9/L,4.5,11.0,NORMAL,,END OF TREATMENT,9,2025-12-02,140
STUDY001,LB,STUDY001-SUBJ0007,84,L00084,PLT,Platelet Count,HEMATOLOGY,276.01,10^9/L,150.0,450.0,276.01,276.01,10^9/L,150.0,450.0,NORMAL,,END OF TREATMENT,9,2025-12-02,140
STUDY001,LB,STUDY001-SUBJ0007,85,L00085,GLUC,Glucose,CHEMISTRY,74.98,mg/dL,70.0,100.0,74.98,74.98,mg/dL,70.0,100.0,NORMAL,,END OF TREATMENT,9,2025-12-02,140
STUDY001,LB,STUDY001-SUBJ0007,86,L00086,BUN,Blood Urea Nitrogen,CHEMISTRY,12.69,mg/dL,7.0,20.0,12.69,12.69,mg/dL,7.0,20.0,NORMAL,,END OF TREATMENT,9,2025-12-02,140
STUDY001,LB,STUDY001-SUBJ0007,87,L00087,CREAT,Creatinine,CHEMISTRY,0.88,mg/dL,0.6,1.2,0.88,0.88,mg/dL,0.6,1.2,NORMAL,,END OF TREATMENT,9,2025-12-02,140
STUDY001,LB,STUDY001-SUBJ0007,88,L00088,BILI,Total Bilirubin,CHEMISTRY,0.92,mg/dL,0.1,1.2,0.92,0.92,mg/dL,0.1,1.2,NORMAL,,END OF TREATMENT,9,2025-12-02,140
STUDY001,LB,STUDY001-SUBJ0007,89,L00089,ALP,Alkaline Phosphatase,CHEMISTRY,79.37,U/L,44.0,147.0,79.37,79.37,U/L,44.0,147.0,NORMAL,,END OF TREATMENT,9,2025-12-02,140
STUDY001,LB,STUDY001-SUBJ0007,90,L00090,ALT,Alanine Aminotransferase,CHEMISTRY,16.53,U/L,7.0,56.0,16.53,16.53,U/L,7.0,56.0,NORMAL,,END OF TREATMENT,9,2025-12-02,140
STUDY001,LB,STUDY001-SUBJ0008,1,L00001,HGB,Hemoglobin,HEMATOLOGY,16.13,g/dL,13.5,17.5,16.13,16.13,g/dL,13.5,17.5,NORMAL,,SCREENING,1,2024-10-11,-14
STUDY001,LB,STUDY001-SUBJ0008,2,L00002,HCT,Hematocrit,HEMATOLOGY,47.17,%,41.0,51.0,47.17,47.17,%,41.0,51.0,NORMAL,,SCREENING,1,2024-10-11,-14
STUDY001,LB,STUDY001-SUBJ0008,3,L00003,WBC,White Blood Cell Count,HEMATOLOGY,6.64,10^9/L,4.5,11.0,6.64,6.64,10^9/L,4.5,11.0,NORMAL,,SCREENING,1,2024-10-11,-14
STUDY001,LB,STUDY001-SUBJ0008,4,L00004,PLT,Platelet Count,HEMATOLOGY,227.03,10^9/L,150.0,450.0,227.03,227.03,10^9/L,150.0,450.0,NORMAL,,SCREENING,1,2024-10-11,-14
STUDY001,LB,STUDY001-SUBJ0008,5,L00005,GLUC,Glucose,CHEMISTRY,76.68,mg/dL,70.0,100.0,76.68,76.68,mg/dL,70.0,100.0,NORMAL,,SCREENING,1,2024-10-11,-14
STUDY001,LB,STUDY001-SUBJ0008,6,L00006,BUN,Blood Urea Nitrogen,CHEMISTRY,11.92,mg/dL,7.0,20.0,11.92,11.92,mg/dL,7.0,20.0,NORMAL,,SCREENING,1,2024-10-11,-14
STUDY001,LB,STUDY001-SUBJ0008,7,L00007,CREAT,Creatinine,CHEMISTRY,0.82,mg/dL,0.6,1.2,0.82,0.82,mg/dL,0.6,1.2,NORMAL,,SCREENING,1,2024-10-11,-14
STUDY001,LB,STUDY001-SUBJ0008,8,L00008,BILI,Total Bilirubin,CHEMISTRY,0.93,mg/dL,0.1,1.2,0.93,0.93,mg/dL,0.1,1.2,NORMAL,,SCREENING,1,2024-10-11,-14
STUDY001,LB,STUDY001-SUBJ0008,9,L00009,ALP,Alkaline Phosphatase,CHEMISTRY,119.19,U/L,44.0,147.0,119.19,119.19,U/L,44.0,147.0,NORMAL,,SCREENING,1,2024-10-11,-14
STUDY001,LB,STUDY001-SUBJ0008,10,L00010,ALT,Alanine Aminotransferase,CHEMISTRY,38.11,U/L,7.0,56.0,38.11,38.11,U/L,7.0,56.0,NORMAL,,SCREENING,1,2024-10-11,-14
STUDY001,LB,STUDY001-SUBJ0008,11,L00011,HGB,Hemoglobin,HEMATOLOGY,15.92,g/dL,13.5,17.5,15.92,15.92,g/dL,13.5,17.5,NORMAL,Y,BASELINE,2,2024-10-25,1
STUDY001,LB,STUDY001-SUBJ0008,12,L00012,HCT,Hematocrit,HEMATOLOGY,47.06,%,41.0,51.0,47.06,47.06,%,41.0,51.0,NORMAL,Y,BASELINE,2,2024-10-25,1
STUDY001,LB,STUDY001-SUBJ0008,13,L00013,WBC,White Blood Cell Count,HEMATOLOGY,6.99,10^9/L,4.5,11.0,6.99,6.99,10^9/L,4.5,11.0,NORMAL,Y,BASELINE,2,2024-10-25,1
STUDY001,LB,STUDY001-SUBJ0008,14,L00014,PLT,Platelet Count,HEMATOLOGY,239.53,10^9/L,150.0,450.0,239.53,239.53,10^9/L,150.0,450.0,NORMAL,Y,BASELINE,2,2024-10-25,1
STUDY001,LB,STUDY001-SUBJ0008,15,L00015,GLUC,Glucose,CHEMISTRY,78.49,mg/dL,70.0,100.0,78.49,78.49,mg/dL,70.0,100.0,NORMAL,Y,BASELINE,2,2024-10-25,1
STUDY001,LB,STUDY001-SUBJ0008,16,L00016,BUN,Blood Urea Nitrogen,CHEMISTRY,12.17,mg/dL,7.0,20.0,12.17,12.17,mg/dL,7.0,20.0,NORMAL,Y,BASELINE,2,2024-10-25,1
STUDY001,LB,STUDY001-SUBJ0008,17,L00017,CREAT,Creatinine,CHEMISTRY,0.81,mg/dL,0.6,1.2,0.81,0.81,mg/dL,0.6,1.2,NORMAL,Y,BASELINE,2,2024-10-25,1
STUDY001,LB,STUDY001-SUBJ0008,18,L00018,BILI,Total Bilirubin,CHEMISTRY,0.88,mg/dL,0.1,1.2,0.88,0.88,mg/dL,0.1,1.2,NORMAL,Y,BASELINE,2,2024-10-25,1
STUDY001,LB,STUDY001-SUBJ0008,19,L00019,ALP,Alkaline Phosphatase,CHEMISTRY,117.52,U/L,44.0,147.0,117.52,117.52,U/L,44.0,147.0,NORMAL,Y,BASELINE,2,2024-10-25,1
STUDY001,LB,STUDY001-SUBJ0008,20,L00020,ALT,Alanine Aminotransferase,CHEMISTRY,38.68,U/L,7.0,56.0,38.68,38.68,U/L,7.0,56.0,NORMAL,Y,BASELINE,2,2024-10-25,1
STUDY001,LB,STUDY001-SUBJ0008,21,L00021,HGB,Hemoglobin,HEMATOLOGY,15.8,g/dL,13.5,17.5,15.8,15.8,g/dL,13.5,17.5,NORMAL,,WEEK 1,3,2024-10-31,7
STUDY001,LB,STUDY001-SUBJ0008,22,L00022,HCT,Hematocrit,HEMATOLOGY,47.23,%,41.0,51.0,47.23,47.23,%,41.0,51.0,NORMAL,,WEEK 1,3,2024-10-31,7
STUDY001,LB,STUDY001-SUBJ0008,23,L00023,WBC,White Blood Cell Count,HEMATOLOGY,6.62,10^9/L,4.5,11.0,6.62,6.62,10^9/L,4.5,11.0,NORMAL,,WEEK 1,3,2024-10-31,7
STUDY001,LB,STUDY001-SUBJ0008,24,L00024,PLT,Platelet Count,HEMATOLOGY,240.64,10^9/L,150.0,450.0,240.64,240.64,10^9/L,150.0,450.0,NORMAL,,WEEK 1,3,2024-10-31,7
STUDY001,LB,STUDY001-SUBJ0008,25,L00025,GLUC,Glucose,CHEMISTRY,76.94,mg/dL,70.0,100.0,76.94,76.94,mg/dL,70.0,100.0,NORMAL,,WEEK 1,3,2024-10-31,7
STUDY001,LB,STUDY001-SUBJ0008,26,L00026,BUN,Blood Urea Nitrogen,CHEMISTRY,11.77,mg/dL,7.0,20.0,11.77,11.77,mg/dL,7.0,20.0,NORMAL,,WEEK 1,3,2024-10-31,7
STUDY001,LB,STUDY001-SUBJ0008,27,L00027,CREAT,Creatinine,CHEMISTRY,0.82,mg/dL,0.6,1.2,0.82,0.82,mg/dL,0.6,1.2,NORMAL,,WEEK 1,3,2024-10-31,7
STUDY001,LB,STUDY001-SUBJ0008,28,L00028,BILI,Total Bilirubin,CHEMISTRY,0.9,mg/dL,0.1,1.2,0.9,0.9,mg/dL,0.1,1.2,NORMAL,,WEEK 1,3,2024-10-31,7
STUDY001,LB,STUDY001-SUBJ0008,29,L00029,ALP,Alkaline Phosphatase,CHEMISTRY,119.71,U/L,44.0,147.0,119.71,119.71,U/L,44.0,147.0,NORMAL,,WEEK 1,3,2024-10-31,7
STUDY001,LB,STUDY001-SUBJ0008,30,L00030,ALT,Alanine Aminotransferase,CHEMISTRY,38.39,U/L,7.0,56.0,38.39,38.39,U/L,7.0,56.0,NORMAL,,WEEK 1,3,2024-10-31,7
STUDY001,LB,STUDY001-SUBJ0008,31,L00031,HGB,Hemoglobin,HEMATOLOGY,16.09,g/dL,13.5,17.5,16.09,16.09,g/dL,13.5,17.5,NORMAL,,WEEK 2,4,2024-11-07,14
STUDY001,LB,STUDY001-SUBJ0008,32,L00032,HCT,Hematocrit,HEMATOLOGY,47.03,%,41.0,51.0,47.03,47.03,%,41.0,51.0,NORMAL,,WEEK 2,4,2024-11-07,14
STUDY001,LB,STUDY001-SUBJ0008,33,L00033,WBC,White Blood Cell Count,HEMATOLOGY,6.52,10^9/L,4.5,11.0,6.52,6.52,10^9/L,4.5,11.0,NORMAL,,WEEK 2,4,2024-11-07,14
STUDY001,LB,STUDY001-SUBJ0008,34,L00034,PLT,Platelet Count,HEMATOLOGY,237.07,10^9/L,150.0,450.0,237.07,237.07,10^9/L,150.0,450.0,NORMAL,,WEEK 2,4,2024-11-07,14
STUDY001,LB,STUDY001-SUBJ0008,35,L00035,GLUC,Glucose,CHEMISTRY,78.38,mg/dL,70.0,100.0,78.38,78.38,mg/dL,70.0,100.0,NORMAL,,WEEK 2,4,2024-11-07,14
STUDY001,LB,STUDY001-SUBJ0008,36,L00036,BUN,Blood Urea Nitrogen,CHEMISTRY,12.09,mg/dL,7.0,20.0,12.09,12.09,mg/dL,7.0,20.0,NORMAL,,WEEK 2,4,2024-11-07,14
STUDY001,LB,STUDY001-SUBJ0008,37,L00037,CREAT,Creatinine,CHEMISTRY,0.84,mg/dL,0.6,1.2,0.84,0.84,mg/dL,0.6,1.2,NORMAL,,WEEK 2,4,2024-11-07,14
STUDY001,LB,STUDY001-SUBJ0008,38,L00038,BILI,Total Bilirubin,CHEMISTRY,0.9,mg/dL,0.1,1.2,0.9,0.9,mg/dL,0.1,1.2,NORMAL,,WEEK 2,4,2024-11-07,14
STUDY001,LB,STUDY001-SUBJ0008,39,L00039,ALP,Alkaline Phosphatase,CHEMISTRY,118.55,U/L,44.0,147.0,118.55,118.55,U/L,44.0,147.0,NORMAL,,WEEK 2,4,2024-11-07,14
STUDY001,LB,STUDY001-SUBJ0008,40,L00040,ALT,Alanine Aminotransferase,CHEMISTRY,36.28,U/L,7.0,56.0,36.28,36.28,U/L,7.0,56.0,NORMAL,,WEEK 2,4,2024-11-07,14
STUDY001,LB,STUDY001-SUBJ0008,41,L00041,HGB,Hemoglobin,HEMATOLOGY,16.13,g/dL,13.5,17.5,16.13,16.13,g/dL,13.5,17.5,NORMAL,,WEEK 4,5,2024-11-21,28
STUDY001,LB,STUDY001-SUBJ0008,42,L00042,HCT,Hematocrit,HEMATOLOGY,47.07,%,41.0,51.0,47.07,47.07,%,41.0,51.0,NORMAL,,WEEK 4,5,2024-11-21,28
STUDY001,LB,STUDY001-SUBJ0008,43,L00043,WBC,White Blood Cell Count,HEMATOLOGY,6.88,10^9/L,4.5,11.0,6.88,6.88,10^9/L,4.5,11.0,NORMAL,,WEEK 4,5,2024-11-21,28
STUDY001,LB,STUDY001-SUBJ0008,44,L00044,PLT,Platelet Count,HEMATOLOGY,236.43,10^9/L,150.0,450.0,236.43,236.43,10^9/L,150.0,450.0,NORMAL,,WEEK 4,5,2024-11-21,28
STUDY001,LB,STUDY001-SUBJ0008,45,L00045,GLUC,Glucose,CHEMISTRY,75.57,mg/dL,70.0,100.0,75.57,75.57,mg/dL,70.0,100.0,NORMAL,,WEEK 4,5,2024-11-21,28
STUDY001,LB,STUDY001-SUBJ0008,46,L00046,BUN,Blood Urea Nitrogen,CHEMISTRY,11.7,mg/dL,7.0,20.0,11.7,11.7,mg/dL,7.0,20.0,NORMAL,,WEEK 4,5,2024-11-21,28
STUDY001,LB,STUDY001-SUBJ0008,47,L00047,CREAT,Creatinine,CHEMISTRY,0.79,mg/dL,0.6,1.2,0.79,0.79,mg/dL,0.6,1.2,NORMAL,,WEEK 4,5,2024-11-21,28
STUDY001,LB,STUDY001-SUBJ0008,48,L00048,BILI,Total Bilirubin,CHEMISTRY,0.89,mg/dL,0.1,1.2,0.89,0.89,mg/dL,0.1,1.2,NORMAL,,WEEK 4,5,2024-11-21,28
STUDY001,LB,STUDY001-SUBJ0008,49,L00049,ALP,Alkaline Phosphatase,CHEMISTRY,120.87,U/L,44.0,147.0,120.87,120.87,U/L,44.0,147.0,NORMAL,,WEEK 4,5,2024-11-21,28
STUDY001,LB,STUDY001-SUBJ0008,50,L00050,ALT,Alanine Aminotransferase,CHEMISTRY,37.82,U/L,7.0,56.0,37.82,37.82,U/L,7.0,56.0,NORMAL,,WEEK 4,5,2024-11-21,28
STUDY001,LB,STUDY001-SUBJ0008,51,L00051,HGB,Hemoglobin,HEMATOLOGY,15.93,g/dL,13.5,17.5,15.93,15.93,g/dL,13.5,17.5,NORMAL,,WEEK 8,6,2024-12-19,56
STUDY001,LB,STUDY001-SUBJ0008,52,L00052,HCT,Hematocrit,HEMATOLOGY,47.02,%,41.0,51.0,47.02,47.02,%,41.0,51.0,NORMAL,,WEEK 8,6,2024-12-19,56
STUDY001,LB,STUDY001-SUBJ0008,53,L00053,WBC,White Blood Cell Count,HEMATOLOGY,7.04,10^9/L,4.5,11.0,7.04,7.04,10^9/L,4.5,11.0,NORMAL,,WEEK 8,6,2024-12-19,56
STUDY001,LB,STUDY001-SUBJ0008,54,L00054,PLT,Platelet Count,HEMATOLOGY,242.64,10^9/L,150.0,450.0,242.64,242.64,10^9/L,150.0,450.0,NORMAL,,WEEK 8,6,2024-12-19,56
STUDY001,LB,STUDY001-SUBJ0008,55,L00055,GLUC,Glucose,CHEMISTRY,75.56,mg/dL,70.0,100.0,75.56,75.56,mg/dL,70.0,100.0,NORMAL,,WEEK 8,6,2024-12-19,56
STUDY001,LB,STUDY001-SUBJ0008,56,L00056,BUN,Blood Urea Nitrogen,CHEMISTRY,12.36,mg/dL,7.0,20.0,12.36,12.36,mg/dL,7.0,20.0,NORMAL,,WEEK 8,6,2024-12-19,56
STUDY001,LB,STUDY001-SUBJ0008,57,L00057,CREAT,Creatinine,CHEMISTRY,0.82,mg/dL,0.6,1.2,0.82,0.82,mg/dL,0.6,1.2,NORMAL,,WEEK 8,6,2024-12-19,56
STUDY001,LB,STUDY001-SUBJ0008,58,L00058,BILI,Total Bilirubin,CHEMISTRY,0.92,mg/dL,0.1,1.2,0.92,0.92,mg/dL,0.1,1.2,NORMAL,,WEEK 8,6,2024-12-19,56
STUDY001,LB,STUDY001-SUBJ0008,59,L00059,ALP,Alkaline Phosphatase,CHEMISTRY,120.44,U/L,44.0,147.0,120.44,120.44,U/L,44.0,147.0,NORMAL,,WEEK 8,6,2024-12-19,56
STUDY001,LB,STUDY001-SUBJ0008,60,L00060,ALT,Alanine Aminotransferase,CHEMISTRY,38.52,U/L,7.0,56.0,38.52,38.52,U/L,7.0,56.0,NORMAL,,WEEK 8,6,2024-12-19,56
STUDY001,LB,STUDY001-SUBJ0008,61,L00061,HGB,Hemoglobin,HEMATOLOGY,16.16,g/dL,13.5,17.5,16.16,16.16,g/dL,13.5,17.5,NORMAL,,WEEK 12,7,2025-01-16,84
STUDY001,LB,STUDY001-SUBJ0008,62,L00062,HCT,Hematocrit,HEMATOLOGY,47.18,%,41.0,51.0,47.18,47.18,%,41.0,51.0,NORMAL,,WEEK 12,7,2025-01-16,84
STUDY001,LB,STUDY001-SUBJ0008,63,L00063,WBC,White Blood Cell Count,HEMATOLOGY,6.79,10^9/L,4.5,11.0,6.79,6.79,10^9/L,4.5,11.0,NORMAL,,WEEK 12,7,2025-01-16,84
STUDY001,LB,STUDY001-SUBJ0008,64,L00064,PLT,Platelet Count,HEMATOLOGY,238.57,10^9/L,150.0,450.0,238.57,238.57,10^9/L,150.0,450.0,NORMAL,,WEEK 12,7,2025-01-16,84
STUDY001,LB,STUDY001-SUBJ0008,65,L00065,GLUC,Glucose,CHEMISTRY,76.19,mg/dL,70.0,100.0,76.19,76.19,mg/dL,70.0,100.0,NORMAL,,WEEK 12,7,2025-01-16,84
STUDY001,LB,STUDY001-SUBJ0008,66,L00066,BUN,Blood Urea Nitrogen,CHEMISTRY,11.47,mg/dL,7.0,20.0,11.47,11.47,mg/dL,7.0,20.0,NORMAL,,WEEK 12,7,2025-01-16,84
STUDY001,LB,STUDY001-SUBJ0008,67,L00067,CREAT,Creatinine,CHEMISTRY,0.81,mg/dL,0.6,1.2,0.81,0.81,mg/dL,0.6,1.2,NORMAL,,WEEK 12,7,2025-01-16,84
STUDY001,LB,STUDY001-SUBJ0008,68,L00068,BILI,Total Bilirubin,CHEMISTRY,0.92,mg/dL,0.1,1.2,0.92,0.92,mg/dL,0.1,1.2,NORMAL,,WEEK 12,7,2025-01-16,84
STUDY001,LB,STUDY001-SUBJ0008,69,L00069,ALP,Alkaline Phosphatase,CHEMISTRY,121.13,U/L,44.0,147.0,121.13,121.13,U/L,44.0,147.0,NORMAL,,WEEK 12,7,2025-01-16,84
STUDY001,LB,STUDY001-SUBJ0008,70,L00070,ALT,Alanine Aminotransferase,CHEMISTRY,36.81,U/L,7.0,56.0,36.81,36.81,U/L,7.0,56.0,NORMAL,,WEEK 12,7,2025-01-16,84
STUDY001,LB,STUDY001-SUBJ0008,71,L00071,HGB,Hemoglobin,HEMATOLOGY,15.99,g/dL,13.5,17.5,15.99,15.99,g/dL,13.5,17.5,NORMAL,,WEEK 16,8,2025-02-13,112
STUDY001,LB,STUDY001-SUBJ0008,72,L00072,HCT,Hematocrit,HEMATOLOGY,46.76,%,41.0,51.0,46.76,46.76,%,41.0,51.0,NORMAL,,WEEK 16,8,2025-02-13,112
STUDY001,LB,STUDY001-SUBJ0008,73,L00073,WBC,White Blood Cell Count,HEMATOLOGY,6.95,10^9/L,4.5,11.0,6.95,6.95,10^9/L,4.5,11.0,NORMAL,,WEEK 16,8,2025-02-13,112
STUDY001,LB,STUDY001-SUBJ0008,74,L00074,PLT,Platelet Count,HEMATOLOGY,231.03,10^9/L,150.0,450.0,231.03,231.03,10^9/L,150.0,450.0,NORMAL,,WEEK 16,8,2025-02-13,112
STUDY001,LB,STUDY001-SUBJ0008,75,L00075,GLUC,Glucose,CHEMISTRY,76.12,mg/dL,70.0,100.0,76.12,76.12,mg/dL,70.0,100.0,NORMAL,,WEEK 16,8,2025-02-13,112
STUDY001,LB,STUDY001-SUBJ0008,76,L00076,BUN,Blood Urea Nitrogen,CHEMISTRY,12.25,mg/dL,7.0,20.0,12.25,12.25,mg/dL,7.0,20.0,NORMAL,,WEEK 16,8,2025-02-13,112
STUDY001,LB,STUDY001-SUBJ0008,77,L00077,CREAT,Creatinine,CHEMISTRY,0.8,mg/dL,0.6,1.2,0.8,0.8,mg/dL,0.6,1.2,NORMAL,,WEEK 16,8,2025-02-13,112
STUDY001,LB,STUDY001-SUBJ0008,78,L00078,BILI,Total Bilirubin,CHEMISTRY,0.92,mg/dL,0.1,1.2,0.92,0.92,mg/dL,0.1,1.2,NORMAL,,WEEK 16,8,2025-02-13,112
STUDY001,LB,STUDY001-SUBJ0008,79,L00079,ALP,Alkaline Phosphatase,CHEMISTRY,118.94,U/L,44.0,147.0,118.94,118.94,U/L,44.0,147.0,NORMAL,,WEEK 16,8,2025-02-13,112
STUDY001,LB,STUDY001-SUBJ0008,80,L00080,ALT,Alanine Aminotransferase,CHEMISTRY,36.79,U/L,7.0,56.0,36.79,36.79,U/L,7.0,56.0,NORMAL,,WEEK 16,8,2025-02-13,112
STUDY001,LB,STUDY001-SUBJ0008,81,L00081,HGB,Hemoglobin,HEMATOLOGY,15.83,g/dL,13.5,17.5,15.83,15.83,g/dL,13.5,17.5,NORMAL,,END OF TREATMENT,9,2025-03-13,140
STUDY001,LB,STUDY001-SUBJ0008,82,L00082,HCT,Hematocrit,HEMATOLOGY,46.78,%,41.0,51.0,46.78,46.78,%,41.0,51.0,NORMAL,,END OF TREATMENT,9,2025-03-13,140
STUDY001,LB,STUDY001-SUBJ0008,83,L00083,WBC,White Blood Cell Count,HEMATOLOGY,6.82,10^9/L,4.5,11.0,6.82,6.82,10^9/L,4.5,11.0,NORMAL,,END OF TREATMENT,9,2025-03-13,140
STUDY001,LB,STUDY001-SUBJ0008,84,L00084,PLT,Platelet Count,HEMATOLOGY,233.2,10^9/L,150.0,450.0,233.2,233.2,10^9/L,150.0,450.0,NORMAL,,END OF TREATMENT,9,2025-03-13,140
STUDY001,LB,STUDY001-SUBJ0008,85,L00085,GLUC,Glucose,CHEMISTRY,78.03,mg/dL,70.0,100.0,78.03,78.03,mg/dL,70.0,100.0,NORMAL,,END OF TREATMENT,9,2025-03-13,140
STUDY001,LB,STUDY001-SUBJ0008,86,L00086,BUN,Blood Urea Nitrogen,CHEMISTRY,12.42,mg/dL,7.0,20.0,12.42,12.42,mg/dL,7.0,20.0,NORMAL,,END OF TREATMENT,9,2025-03-13,140
STUDY001,LB,STUDY001-SUBJ0008,87,L00087,CREAT,Creatinine,CHEMISTRY,0.84,mg/dL,0.6,1.2,0.84,0.84,mg/dL,0.6,1.2,NORMAL,,END OF TREATMENT,9,2025-03-13,140
STUDY001,LB,STUDY001-SUBJ0008,88,L00088,BILI,Total Bilirubin,CHEMISTRY,0.88,mg/dL,0.1,1.2,0.88,0.88,mg/dL,0.1,1.2,NORMAL,,END OF TREATMENT,9,2025-03-13,140
STUDY001,LB,STUDY001-SUBJ0008,89,L00089,ALP,Alkaline Phosphatase,CHEMISTRY,117.15,U/L,44.0,147.0,117.15,117.15,U/L,44.0,147.0,NORMAL,,END OF TREATMENT,9,2025-03-13,140
STUDY001,LB,STUDY001-SUBJ0008,90,L00090,ALT,Alanine Aminotransferase,CHEMISTRY,37.05,U/L,7.0,56.0,37.05,37.05,U/L,7.0,56.0,NORMAL,,END OF TREATMENT,9,2025-03-13,140
STUDY001,LB,STUDY001-SUBJ0009,1,L00001,HGB,Hemoglobin,HEMATOLOGY,15.3,g/dL,13.5,17.5,15.3,15.3,g/dL,13.5,17.5,NORMAL,,SCREENING,1,2024-09-15,-14
STUDY001,LB,STUDY001-SUBJ0009,2,L00002,HCT,Hematocrit,HEMATOLOGY,49.43,%,41.0,51.0,49.43,49.43,%,41.0,51.0,NORMAL,,SCREENING,1,2024-09-15,-14
STUDY001,LB,STUDY001-SUBJ0009,3,L00003,WBC,White Blood Cell Count,HEMATOLOGY,6.62,10^9/L,4.5,11.0,6.62,6.62,10^9/L,4.5,11.0,NORMAL,,SCREENING,1,2024-09-15,-14
STUDY001,LB,STUDY001-SUBJ0009,4,L00004,PLT,Platelet Count,HEMATOLOGY,316.62,10^9/L,150.0,450.0,316.62,316.62,10^9/L,150.0,450.0,NORMAL,,SCREENING,1,2024-09-15,-14
STUDY001,LB,STUDY001-SUBJ0009,5,L00005,GLUC,Glucose,CHEMISTRY,77.22,mg/dL,70.0,100.0,77.22,77.22,mg/dL,70.0,100.0,NORMAL,,SCREENING,1,2024-09-15,-14
STUDY001,LB,STUDY001-SUBJ0009,6,L00006,BUN,Blood Urea Nitrogen,CHEMISTRY,11.45,mg/dL,7.0,20.0,11.45,11.45,mg/dL,7.0,20.0,NORMAL,,SCREENING,1,2024-09-15,-14
STUDY001,LB,STUDY001-SUBJ0009,7,L00007,CREAT,Creatinine,CHEMISTRY,0.48,mg/dL,0.6,1.2,0.48,0.48,mg/dL,0.6,1.2,LOW,,SCREENING,1,2024-09-15,-14
STUDY001,LB,STUDY001-SUBJ0009,8,L00008,BILI,Total Bilirubin,CHEMISTRY,0.79,mg/dL,0.1,1.2,0.79,0.79,mg/dL,0.1,1.2,NORMAL,,SCREENING,1,2024-09-15,-14
STUDY001,LB,STUDY001-SUBJ0009,9,L00009,ALP,Alkaline Phosphatase,CHEMISTRY,100.54,U/L,44.0,147.0,100.54,100.54,U/L,44.0,147.0,NORMAL,,SCREENING,1,2024-09-15,-14
STUDY001,LB,STUDY001-SUBJ0009,10,L00010,ALT,Alanine Aminotransferase,CHEMISTRY,43.68,U/L,7.0,56.0,43.68,43.68,U/L,7.0,56.0,NORMAL,,SCREENING,1,2024-09-15,-14
STUDY001,LB,STUDY001-SUBJ0009,11,L00011,HGB,Hemoglobin,HEMATOLOGY,15.46,g/dL,13.5,17.5,15.46,15.46,g/dL,13.5,17.5,NORMAL,Y,BASELINE,2,2024-09-29,1
STUDY001,LB,STUDY001-SUBJ0009,12,L00012,HCT,Hematocrit,HEMATOLOGY,49.58,%,41.0,51.0,49.58,49.58,%,41.0,51.0,NORMAL,Y,BASELINE,2,2024-09-29,1
STUDY001,LB,STUDY001-SUBJ0009,13,L00013,WBC,White Blood Cell Count,HEMATOLOGY,6.72,10^9/L,4.5,11.0,6.72,6.72,10^9/L,4.5,11.0,NORMAL,Y,BASELINE,2,2024-09-29,1
STUDY001,LB,STUDY001-SUBJ0009,14,L00014,PLT,Platelet Count,HEMATOLOGY,316.93,10^9/L,150.0,450.0,316.93,316.93,10^9/L,150.0,450.0,NORMAL,Y,BASELINE,2,2024-09-29,1
STUDY001,LB,STUDY001-SUBJ0009,15,L00015,GLUC,Glucose,CHEMISTRY,75.78,mg/dL,70.0,100.0,75.78,75.78,mg/dL,70.0,100.0,NORMAL,Y,BASELINE,2,2024-09-29,1
STUDY001,LB,STUDY001-SUBJ0009,16,L00016,BUN,Blood Urea Nitrogen,CHEMISTRY,11.04,mg/dL,7.0,20.0,11.04,11.04,mg/dL,7.0,20.0,NORMAL,Y,BASELINE,2,2024-09-29,1
STUDY001,LB,STUDY001-SUBJ0009,17,L00017,CREAT,Creatinine,CHEMISTRY,0.5,mg/dL,0.6,1.2,0.5,0.5,mg/dL,0.6,1.2,LOW,Y,BASELINE,2,2024-09-29,1
STUDY001,LB,STUDY001-SUBJ0009,18,L00018,BILI,Total Bilirubin,CHEMISTRY,0.85,mg/dL,0.1,1.2,0.85,0.85,mg/dL,0.1,1.2,NORMAL,Y,BASELINE,2,2024-09-29,1
STUDY001,LB,STUDY001-SUBJ0009,19,L00019,ALP,Alkaline Phosphatase,CHEMISTRY,99.51,U/L,44.0,147.0,99.51,99.51,U/L,44.0,147.0,NORMAL,Y,BASELINE,2,2024-09-29,1
STUDY001,LB,STUDY001-SUBJ0009,20,L00020,ALT,Alanine Aminotransferase,CHEMISTRY,45.62,U/L,7.0,56.0,45.62,45.62,U/L,7.0,56.0,NORMAL,Y,BASELINE,2,2024-09-29,1
STUDY001,LB,STUDY001-SUBJ0009,21,L00021,HGB,Hemoglobin,HEMATOLOGY,15.32,g/dL,13.5,17.5,15.32,15.32,g/dL,13.5,17.5,NORMAL,,WEEK 1,3,2024-10-05,7
STUDY001,LB,STUDY001-SUBJ0009,22,L00022,HCT,Hematocrit,HEMATOLOGY,49.82,%,41.0,51.0,49.82,49.82,%,41.0,51.0,NORMAL,,WEEK 1,3,2024-10-05,7
STUDY001,LB,STUDY001-SUBJ0009,23,L00023,WBC,White Blood Cell Count,HEMATOLOGY,6.55,10^9/L,4.5,11.0,6.55,6.55,10^9/L,4.5,11.0,NORMAL,,WEEK 1,3,2024-10-05,7
STUDY001,LB,STUDY001-SUBJ0009,24,L00024,PLT,Platelet Count,HEMATOLOGY,310.63,10^9/L,150.0,450.0,310.63,310.63,10^9/L,150.0,450.0,NORMAL,,WEEK 1,3,2024-10-05,7
STUDY001,LB,STUDY001-SUBJ0009,25,L00025,GLUC,Glucose,CHEMISTRY,77.47,mg/dL,70.0,100.0,77.47,77.47,mg/dL,70.0,100.0,NORMAL,,WEEK 1,3,2024-10-05,7
STUDY001,LB,STUDY001-SUBJ0009,26,L00026,BUN,Blood Urea Nitrogen,CHEMISTRY,10.49,mg/dL,7.0,20.0,10.49,10.49,mg/dL,7.0,20.0,NORMAL,,WEEK 1,3,2024-10-05,7
STUDY001,LB,STUDY001-SUBJ0009,27,L00027,CREAT,Creatinine,CHEMISTRY,0.48,mg/dL,0.6,1.2,0.48,0.48,mg/dL,0.6,1.2,LOW,,WEEK 1,3,2024-10-05,7
STUDY001,LB,STUDY001-SUBJ0009,28,L00028,BILI,Total Bilirubin,CHEMISTRY,0.83,mg/dL,0.1,1.2,0.83,0.83,mg/dL,0.1,1.2,NORMAL,,WEEK 1,3,2024-10-05,7
STUDY001,LB,STUDY001-SUBJ0009,29,L00029,ALP,Alkaline Phosphatase,CHEMISTRY,100.94,U/L,44.0,147.0,100.94,100.94,U/L,44.0,147.0,NORMAL,,WEEK 1,3,2024-10-05,7
STUDY001,LB,STUDY001-SUBJ0009,30,L00030,ALT,Alanine Aminotransferase,CHEMISTRY,43.61,U/L,7.0,56.0,43.61,43.61,U/L,7.0,56.0,NORMAL,,WEEK 1,3,2024-10-05,7
STUDY001,LB,STUDY001-SUBJ0009,31,L00031,HGB,Hemoglobin,HEMATOLOGY,15.35,g/dL,13.5,17.5,15.35,15.35,g/dL,13.5,17.5,NORMAL,,WEEK 2,4,2024-10-12,14
STUDY001,LB,STUDY001-SUBJ0009,32,L00032,HCT,Hematocrit,HEMATOLOGY,49.34,%,41.0,51.0,49.34,49.34,%,41.0,51.0,NORMAL,,WEEK 2,4,2024-10-12,14
STUDY001,LB,STUDY001-SUBJ0009,33,L00033,WBC,White Blood Cell Count,HEMATOLOGY,6.31,10^9/L,4.5,11.0,6.31,6.31,10^9/L,4.5,11.0,NORMAL,,WEEK 2,4,2024-10-12,14
STUDY001,LB,STUDY001-SUBJ0009,34,L00034,PLT,Platelet Count,HEMATOLOGY,301.98,10^9/L,150.0,450.0,301.98,301.98,10^9/L,150.0,450.0,NORMAL,,WEEK 2,4,2024-10-12,14
STUDY001,LB,STUDY001-SUBJ0009,35,L00035,GLUC,Glucose,CHEMISTRY,75.9,mg/dL,70.0,100.0,75.9,75.9,mg/dL,70.0,100.0,NORMAL,,WEEK 2,4,2024-10-12,14
STUDY001,LB,STUDY001-SUBJ0009,36,L00036,BUN,Blood Urea Nitrogen,CHEMISTRY,10.59,mg/dL,7.0,20.0,10.59,10.59,mg/dL,7.0,20.0,NORMAL,,WEEK 2,4,2024-10-12,14
STUDY001,LB,STUDY001-SUBJ0009,37,L00037,CREAT,Creatinine,CHEMISTRY,0.52,mg/dL,0.6,1.2,0.52,0.52,mg/dL,0.6,1.2,LOW,,WEEK 2,4,2024-10-12,14
STUDY001,LB,STUDY001-SUBJ0009,38,L00038,BILI,Total Bilirubin,CHEMISTRY,0.8,mg/dL,0.1,1.2,0.8,0.8,mg/dL,0.1,1.2,NORMAL,,WEEK 2,4,2024-10-12,14
STUDY001,LB,STUDY001-SUBJ0009,39,L00039,ALP,Alkaline Phosphatase,CHEMISTRY,100.96,U/L,44.0,147.0,100.96,100.96,U/L,44.0,147.0,NORMAL,,WEEK 2,4,2024-10-12,14
STUDY001,LB,STUDY001-SUBJ0009,40,L00040,ALT,Alanine Aminotransferase,CHEMISTRY,44.73,U/L,7.0,56.0,44.73,44.73,U/L,7.0,56.0,NORMAL,,WEEK 2,4,2024-10-12,14
STUDY001,LB,STUDY001-SUBJ0009,41,L00041,HGB,Hemoglobin,HEMATOLOGY,15.35,g/dL,13.5,17.5,15.35,15.35,g/dL,13.5,17.5,NORMAL,,WEEK 4,5,2024-10-26,28
STUDY001,LB,STUDY001-SUBJ0009,42,L00042,HCT,Hematocrit,HEMATOLOGY,49.73,%,41.0,51.0,49.73,49.73,%,41.0,51.0,NORMAL,,WEEK 4,5,2024-10-26,28
STUDY001,LB,STUDY001-SUBJ0009,43,L00043,WBC,White Blood Cell Count,HEMATOLOGY,6.51,10^9/L,4.5,11.0,6.51,6.51,10^9/L,4.5,11.0,NORMAL,,WEEK 4,5,2024-10-26,28
STUDY001,LB,STUDY001-SUBJ0009,44,L00044,PLT,Platelet Count,HEMATOLOGY,310.83,10^9/L,150.0,450.0,310.83,310.83,10^9/L,150.0,450.0,NORMAL,,WEEK 4,5,2024-10-26,28
STUDY001,LB,STUDY001-SUBJ0009,45,L00045,GLUC,Glucose,CHEMISTRY,74.72,mg/dL,70.0,100.0,74.72,74.72,mg/dL,70.0,100.0,NORMAL,,WEEK 4,5,2024-10-26,28
STUDY001,LB,STUDY001-SUBJ0009,46,L00046,BUN,Blood Urea Nitrogen,CHEMISTRY,11.17,mg/dL,7.0,20.0,11.17,11.17,mg/dL,7.0,20.0,NORMAL,,WEEK 4,5,2024-10-26,28
STUDY001,LB,STUDY001-SUBJ0009,47,L00047,CREAT,Creatinine,CHEMISTRY,0.48,mg/dL,0.6,1.2,0.48,0.48,mg/dL,0.6,1.2,LOW,,WEEK 4,5,2024-10-26,28
STUDY001,LB,STUDY001-SUBJ0009,48,L00048,BILI,Total Bilirubin,CHEMISTRY,0.83,mg/dL,0.1,1.2,0.83,0.83,mg/dL,0.1,1.2,NORMAL,,WEEK 4,5,2024-10-26,28
STUDY001,LB,STUDY001-SUBJ0009,49,L00049,ALP,Alkaline Phosphatase,CHEMISTRY,103.91,U/L,44.0,147.0,103.91,103.91,U/L,44.0,147.0,NORMAL,,WEEK 4,5,2024-10-26,28
STUDY001,LB,STUDY001-SUBJ0009,50,L00050,ALT,Alanine Aminotransferase,CHEMISTRY,45.44,U/L,7.0,56.0,45.44,45.44,U/L,7.0,56.0,NORMAL,,WEEK 4,5,2024-10-26,28
STUDY001,LB,STUDY001-SUBJ0009,51,L00051,HGB,Hemoglobin,HEMATOLOGY,15.28,g/dL,13.5,17.5,15.28,15.28,g/dL,13.5,17.5,NORMAL,,WEEK 8,6,2024-11-23,56
STUDY001,LB,STUDY001-SUBJ0009,52,L00052,HCT,Hematocrit,HEMATOLOGY,49.45,%,41.0,51.0,49.45,49.45,%,41.0,51.0,NORMAL,,WEEK 8,6,2024-11-23,56
STUDY001,LB,STUDY001-SUBJ0009,53,L00053,WBC,White Blood Cell Count,HEMATOLOGY,6.46,10^9/L,4.5,11.0,6.46,6.46,10^9/L,4.5,11.0,NORMAL,,WEEK 8,6,2024-11-23,56
STUDY001,LB,STUDY001-SUBJ0009,54,L00054,PLT,Platelet Count,HEMATOLOGY,302.99,10^9/L,150.0,450.0,302.99,302.99,10^9/L,150.0,450.0,NORMAL,,WEEK 8,6,2024-11-23,56
STUDY001,LB,STUDY001-SUBJ0009,55,L00055,GLUC,Glucose,CHEMISTRY,75.18,mg/dL,70.0,100.0,75.18,75.18,mg/dL,70.0,100.0,NORMAL,,WEEK 8,6,2024-11-23,56
STUDY001,LB,STUDY001-SUBJ0009,56,L00056,BUN,Blood Urea Nitrogen,CHEMISTRY,10.29,mg/dL,7.0,20.0,10.29,10.29,mg/dL,7.0,20.0,NORMAL,,WEEK 8,6,2024-11-23,56
STUDY001,LB,STUDY001-SUBJ0009,57,L00057,CREAT,Creatinine,CHEMISTRY,0.5,mg/dL,0.6,1.2,0.5,0.5,mg/dL,0.6,1.2,LOW,,WEEK 8,6,2024-11-23,56
STUDY001,LB,STUDY001-SUBJ0009,58,L00058,BILI,Total Bilirubin,CHEMISTRY,0.82,mg/dL,0.1,1.2,0.82,0.82,mg/dL,0.1,1.2,NORMAL,,WEEK 8,6,2024-11-23,56
STUDY001,LB,STUDY001-SUBJ0009,59,L00059,ALP,Alkaline Phosphatase,CHEMISTRY,98.43,U/L,44.0,147.0,98.43,98.43,U/L,44.0,147.0,NORMAL,,WEEK 8,6,2024-11-23,56
STUDY001,LB,STUDY001-SUBJ0009,60,L00060,ALT,Alanine Aminotransferase,CHEMISTRY,41.95,U/L,7.0,56.0,41.95,41.95,U/L,7.0,56.0,NORMAL,,WEEK 8,6,2024-11-23,56
STUDY001,LB,STUDY001-SUBJ0009,61,L00061,HGB,Hemoglobin,HEMATOLOGY,15.29,g/dL,13.5,17.5,15.29,15.29,g/dL,13.5,17.5,NORMAL,,WEEK 12,7,2024-12-21,84
STUDY001,LB,STUDY001-SUBJ0009,62,L00062,HCT,Hematocrit,HEMATOLOGY,49.58,%,41.0,51.0,49.58,49.58,%,41.0,51.0,NORMAL,,WEEK 12,7,2024-12-21,84
STUDY001,LB,STUDY001-SUBJ0009,63,L00063,WBC,White Blood Cell Count,HEMATOLOGY,6.41,10^9/L,4.5,11.0,6.41,6.41,10^9/L,4.5,11.0,NORMAL,,WEEK 12,7,2024-12-21,84
STUDY001,LB,STUDY001-SUBJ0009,64,L00064,PLT,Platelet Count,HEMATOLOGY,317.18,10^9/L,150.0,450.0,317.18,317.18,10^9/L,150.0,450.0,NORMAL,,WEEK 12,7,2024-12-21,84
STUDY001,LB,STUDY001-SUBJ0009,65,L00065,GLUC,Glucose,CHEMISTRY,74.03,mg/dL,70.0,100.0,74.03,74.03,mg/dL,70.0,100.0,NORMAL,,WEEK 12,7,2024-12-21,84
STUDY001,LB,STUDY001-SUBJ0009,66,L00066,BUN,Blood Urea Nitrogen,CHEMISTRY,11.35,mg/dL,7.0,20.0,11.35,11.35,mg/dL,7.0,20.0,NORMAL,,WEEK 12,7,2024-12-21,84
STUDY001,LB,STUDY001-SUBJ0009,67,L00067,CREAT,Creatinine,CHEMISTRY,0.48,mg/dL,0.6,1.2,0.48,0.48,mg/dL,0.6,1.2,LOW,,WEEK 12,7,2024-12-21,84
STUDY001,LB,STUDY001-SUBJ0009,68,L00068,BILI,Total Bilirubin,CHEMISTRY,0.83,mg/dL,0.1,1.2,0.83,0.83,mg/dL,0.1,1.2,NORMAL,,WEEK 12,7,2024-12-21,84
STUDY001,LB,STUDY001-SUBJ0009,69,L00069,ALP,Alkaline Phosphatase,CHEMISTRY,102.92,U/L,44.0,147.0,102.92,102.92,U/L,44.0,147.0,NORMAL,,WEEK 12,7,2024-12-21,84
STUDY001,LB,STUDY001-SUBJ0009,70,L00070,ALT,Alanine Aminotransferase,CHEMISTRY,45.29,U/L,7.0,56.0,45.29,45.29,U/L,7.0,56.0,NORMAL,,WEEK 12,7,2024-12-21,84
STUDY001,LB,STUDY001-SUBJ0009,71,L00071,HGB,Hemoglobin,HEMATOLOGY,15.39,g/dL,13.5,17.5,15.39,15.39,g/dL,13.5,17.5,NORMAL,,WEEK 16,8,2025-01-18,112
STUDY001,LB,STUDY001-SUBJ0009,72,L00072,HCT,Hematocrit,HEMATOLOGY,49.6,%,41.0,51.0,49.6,49.6,%,41.0,51.0,NORMAL,,WEEK 16,8,2025-01-18,112
STUDY001,LB,STUDY001-SUBJ0009,73,L00073,WBC,White Blood Cell Count,HEMATOLOGY,6.41,10^9/L,4.5,11.0,6.41,6.41,10^9/L,4.5,11.0,NORMAL,,WEEK 16,8,2025-01-18,112
STUDY001,LB,STUDY001-SUBJ0009,74,L00074,PLT,Platelet Count,HEMATOLOGY,313.2,10^9/L,150.0,450.0,313.2,313.2,10^9/L,150.0,450.0,NORMAL,,WEEK 16,8,2025-01-18,112
STUDY001,LB,STUDY001-SUBJ0009,75,L00075,GLUC,Glucose,CHEMISTRY,77.15,mg/dL,70.0,100.0,77.15,77.15,mg/dL,70.0,100.0,NORMAL,,WEEK 16,8,2025-01-18,112
STUDY001,LB,STUDY001-SUBJ0009,76,L00076,BUN,Blood Urea Nitrogen,CHEMISTRY,10.59,mg/dL,7.0,20.0,10.59,10.59,mg/dL,7.0,20.0,NORMAL,,WEEK 16,8,2025-01-18,112
STUDY001,LB,STUDY001-SUBJ0009,77,L00077,CREAT,Creatinine,CHEMISTRY,0.49,mg/dL,0.6,1.2,0.49,0.49,mg/dL,0.6,1.2,LOW,,WEEK 16,8,2025-01-18,112
STUDY001,LB,STUDY001-SUBJ0009,78,L00078,BILI,Total Bilirubin,CHEMISTRY,0.83,mg/dL,0.1,1.2,0.83,0.83,mg/dL,0.1,1.2,NORMAL,,WEEK 16,8,2025-01-18,112
STUDY001,LB,STUDY001-SUBJ0009,79,L00079,ALP,Alkaline Phosphatase,CHEMISTRY,101.84,U/L,44.0,147.0,101.84,101.84,U/L,44.0,147.0,NORMAL,,WEEK 16,8,2025-01-18,112
STUDY001,LB,STUDY001-SUBJ0009,80,L00080,ALT,Alanine Aminotransferase,CHEMISTRY,43.84,U/L,7.0,56.0,43.84,43.84,U/L,7.0,56.0,NORMAL,,WEEK 16,8,2025-01-18,112
STUDY001,LB,STUDY001-SUBJ0009,81,L00081,HGB,Hemoglobin,HEMATOLOGY,15.36,g/dL,13.5,17.5,15.36,15.36,g/dL,13.5,17.5,NORMAL,,END OF TREATMENT,9,2025-02-15,140
STUDY001,LB,STUDY001-SUBJ0009,82,L00082,HCT,Hematocrit,HEMATOLOGY,49.26,%,41.0,51.0,49.26,49.26,%,41.0,51.0,NORMAL,,END OF TREATMENT,9,2025-02-15,140
STUDY001,LB,STUDY001-SUBJ0009,83,L00083,WBC,White Blood Cell Count,HEMATOLOGY,6.51,10^9/L,4.5,11.0,6.51,6.51,10^9/L,4.5,11.0,NORMAL,,END OF TREATMENT,9,2025-02-15,140
STUDY001,LB,STUDY001-SUBJ0009,84,L00084,PLT,Platelet Count,HEMATOLOGY,312.61,10^9/L,150.0,450.0,312.61,312.61,10^9/L,150.0,450.0,NORMAL,,END OF TREATMENT,9,2025-02-15,140
STUDY001,LB,STUDY001-SUBJ0009,85,L00085,GLUC,Glucose,CHEMISTRY,75.2,mg/dL,70.0,100.0,75.2,75.2,mg/dL,70.0,100.0,NORMAL,,END OF TREATMENT,9,2025-02-15,140
STUDY001,LB,STUDY001-SUBJ0009,86,L00086,BUN,Blood Urea Nitrogen,CHEMISTRY,10.5,mg/dL,7.0,20.0,10.5,10.5,mg/dL,7.0,20.0,NORMAL,,END OF TREATMENT,9,2025-02-15,140
STUDY001,LB,STUDY001-SUBJ0009,87,L00087,CREAT,Creatinine,CHEMISTRY,0.47,mg/dL,0.6,1.2,0.47,0.47,mg/dL,0.6,1.2,LOW,,END OF TREATMENT,9,2025-02-15,140
STUDY001,LB,STUDY001-SUBJ0009,88,L00088,BILI,Total Bilirubin,CHEMISTRY,0.84,mg/dL,0.1,1.2,0.84,0.84,mg/dL,0.1,1.2,NORMAL,,END OF TREATMENT,9,2025-02-15,140
STUDY001,LB,STUDY001-SUBJ0009,89,L00089,ALP,Alkaline Phosphatase,CHEMISTRY,101.74,U/L,44.0,147.0,101.74,101.74,U/L,44.0,147.0,NORMAL,,END OF TREATMENT,9,2025-02-15,140
STUDY001,LB,STUDY001-SUBJ0009,90,L00090,ALT,Alanine Aminotransferase,CHEMISTRY,45.38,U/L,7.0,56.0,45.38,45.38,U/L,7.0,56.0,NORMAL,,END OF TREATMENT,9,2025-02-15,140
STUDY001,LB,STUDY001-SUBJ0010,1,L00001,HGB,Hemoglobin,HEMATOLOGY,13.62,g/dL,13.5,17.5,13.62,13.62,g/dL,13.5,17.5,NORMAL,,SCREENING,1,2024-09-12,-14
STUDY001,LB,STUDY001-SUBJ0010,2,L00002,HCT,Hematocrit,HEMATOLOGY,48.99,%,41.0,51.0,48.99,48.99,%,41.0,51.0,NORMAL,,SCREENING,1,2024-09-12,-14
STUDY001,LB,STUDY001-SUBJ0010,3,L00003,WBC,White Blood Cell Count,HEMATOLOGY,8.95,10^9/L,4.5,11.0,8.95,8.95,10^9/L,4.5,11.0,NORMAL,,SCREENING,1,2024-09-12,-14
STUDY001,LB,STUDY001-SUBJ0010,4,L00004,PLT,Platelet Count,HEMATOLOGY,246.23,10^9/L,150.0,450.0,246.23,246.23,10^9/L,150.0,450.0,NORMAL,,SCREENING,1,2024-09-12,-14
STUDY001,LB,STUDY001-SUBJ0010,5,L00005,GLUC,Glucose,CHEMISTRY,80.97,mg/dL,70.0,100.0,80.97,80.97,mg/dL,70.0,100.0,NORMAL,,SCREENING,1,2024-09-12,-14
STUDY001,LB,STUDY001-SUBJ0010,6,L00006,BUN,Blood Urea Nitrogen,CHEMISTRY,12.52,mg/dL,7.0,20.0,12.52,12.52,mg/dL,7.0,20.0,NORMAL,,SCREENING,1,2024-09-12,-14
STUDY001,LB,STUDY001-SUBJ0010,7,L00007,CREAT,Creatinine,CHEMISTRY,0.77,mg/dL,0.6,1.2,0.77,0.77,mg/dL,0.6,1.2,NORMAL,,SCREENING,1,2024-09-12,-14
STUDY001,LB,STUDY001-SUBJ0010,8,L00008,BILI,Total Bilirubin,CHEMISTRY,0.69,mg/dL,0.1,1.2,0.69,0.69,mg/dL,0.1,1.2,NORMAL,,SCREENING,1,2024-09-12,-14
STUDY001,LB,STUDY001-SUBJ0010,9,L00009,ALP,Alkaline Phosphatase,CHEMISTRY,66.87,U/L,44.0,147.0,66.87,66.87,U/L,44.0,147.0,NORMAL,,SCREENING,1,2024-09-12,-14
STUDY001,LB,STUDY001-SUBJ0010,10,L00010,ALT,Alanine Aminotransferase,CHEMISTRY,34.09,U/L,7.0,56.0,34.09,34.09,U/L,7.0,56.0,NORMAL,,SCREENING,1,2024-09-12,-14
STUDY001,LB,STUDY001-SUBJ0010,11,L00011,HGB,Hemoglobin,HEMATOLOGY,13.67,g/dL,13.5,17.5,13.67,13.67,g/dL,13.5,17.5,NORMAL,Y,BASELINE,2,2024-09-26,1
STUDY001,LB,STUDY001-SUBJ0010,12,L00012,HCT,Hematocrit,HEMATOLOGY,48.78,%,41.0,51.0,48.78,48.78,%,41.0,51.0,NORMAL,Y,BASELINE,2,2024-09-26,1
STUDY001,LB,STUDY001-SUBJ0010,13,L00013,WBC,White Blood Cell Count,HEMATOLOGY,9.39,10^9/L,4.5,11.0,9.39,9.39,10^9/L,4.5,11.0,NORMAL,Y,BASELINE,2,2024-09-26,1
STUDY001,LB,STUDY001-SUBJ0010,14,L00014,PLT,Platelet Count,HEMATOLOGY,244.32,10^9/L,150.0,450.0,244.32,244.32,10^9/L,150.0,450.0,NORMAL,Y,BASELINE,2,2024-09-26,1
STUDY001,LB,STUDY001-SUBJ0010,15,L00015,GLUC,Glucose,CHEMISTRY,82.22,mg/dL,70.0,100.0,82.22,82.22,mg/dL,70.0,100.0,NORMAL,Y,BASELINE,2,2024-09-26,1
STUDY001,LB,STUDY001-SUBJ0010,16,L00016,BUN,Blood Urea Nitrogen,CHEMISTRY,12.4,mg/dL,7.0,20.0,12.4,12.4,mg/dL,7.0,20.0,NORMAL,Y,BASELINE,2,2024-09-26,1
STUDY001,LB,STUDY001-SUBJ0010,17,L00017,CREAT,Creatinine,CHEMISTRY,0.79,mg/dL,0.6,1.2,0.79,0.79,mg/dL,0.6,1.2,NORMAL,Y,BASELINE,2,2024-09-26,1
STUDY001,LB,STUDY001-SUBJ0010,18,L00018,BILI,Total Bilirubin,CHEMISTRY,0.72,mg/dL,0.1,1.2,0.72,0.72,mg/dL,0.1,1.2,NORMAL,Y,BASELINE,2,2024-09-26,1
STUDY001,LB,STUDY001-SUBJ0010,19,L00019,ALP,Alkaline Phosphatase,CHEMISTRY,66.05,U/L,44.0,147.0,66.05,66.05,U/L,44.0,147.0,NORMAL,Y,BASELINE,2,2024-09-26,1
STUDY001,LB,STUDY001-SUBJ0010,20,L00020,ALT,Alanine Aminotransferase,CHEMISTRY,36.98,U/L,7.0,56.0,36.98,36.98,U/L,7.0,56.0,NORMAL,Y,BASELINE,2,2024-09-26,1
STUDY001,LB,STUDY001-SUBJ0010,21,L00021,HGB,Hemoglobin,HEMATOLOGY,13.59,g/dL,13.5,17.5,13.59,13.59,g/dL,13.5,17.5,NORMAL,,WEEK 1,3,2024-10-02,7
STUDY001,LB,STUDY001-SUBJ0010,22,L00022,HCT,Hematocrit,HEMATOLOGY,48.9,%,41.0,51.0,48.9,48.9,%,41.0,51.0,NORMAL,,WEEK 1,3,2024-10-02,7
STUDY001,LB,STUDY001-SUBJ0010,23,L00023,WBC,White Blood Cell Count,HEMATOLOGY,9.19,10^9/L,4.5,11.0,9.19,9.19,10^9/L,4.5,11.0,NORMAL,,WEEK 1,3,2024-10-02,7
STUDY001,LB,STUDY001-SUBJ0010,24,L00024,PLT,Platelet Count,HEMATOLOGY,246.68,10^9/L,150.0,450.0,246.68,246.68,10^9/L,150.0,450.0,NORMAL,,WEEK 1,3,2024-10-02,7
STUDY001,LB,STUDY001-SUBJ0010,25,L00025,GLUC,Glucose,CHEMISTRY,81.45,mg/dL,70.0,100.0,81.45,81.45,mg/dL,70.0,100.0,NORMAL,,WEEK 1,3,2024-10-02,7
STUDY001,LB,STUDY001-SUBJ0010,26,L00026,BUN,Blood Urea Nitrogen,CHEMISTRY,12.77,mg/dL,7.0,20.0,12.77,12.77,mg/dL,7.0,20.0,NORMAL,,WEEK 1,3,2024-10-02,7
STUDY001,LB,STUDY001-SUBJ0010,27,L00027,CREAT,Creatinine,CHEMISTRY,0.81,mg/dL,0.6,1.2,0.81,0.81,mg/dL,0.6,1.2,NORMAL,,WEEK 1,3,2024-10-02,7
STUDY001,LB,STUDY001-SUBJ0010,28,L00028,BILI,Total Bilirubin,CHEMISTRY,0.7,mg/dL,0.1,1.2,0.7,0.7,mg/dL,0.1,1.2,NORMAL,,WEEK 1,3,2024-10-02,7
STUDY001,LB,STUDY001-SUBJ0010,29,L00029,ALP,Alkaline Phosphatase,CHEMISTRY,69.26,U/L,44.0,147.0,69.26,69.26,U/L,44.0,147.0,NORMAL,,WEEK 1,3,2024-10-02,7
STUDY001,LB,STUDY001-SUBJ0010,30,L00030,ALT,Alanine Aminotransferase,CHEMISTRY,33.57,U/L,7.0,56.0,33.57,33.57,U/L,7.0,56.0,NORMAL,,WEEK 1,3,2024-10-02,7
STUDY001,LB,STUDY001-SUBJ0010,31,L00031,HGB,Hemoglobin,HEMATOLOGY,13.41,g/dL,13.5,17.5,13.41,13.41,g/dL,13.5,17.5,LOW,,WEEK 2,4,2024-10-09,14
STUDY001,LB,STUDY001-SUBJ0010,32,L00032,HCT,Hematocrit,HEMATOLOGY,48.75,%,41.0,51.0,48.75,48.75,%,41.0,51.0,NORMAL,,WEEK 2,4,2024-10-09,14
STUDY001,LB,STUDY001-SUBJ0010,33,L00033,WBC,White Blood Cell Count,HEMATOLOGY,9.1,10^9/L,4.5,11.0,9.1,9.1,10^9/L,4.5,11.0,NORMAL,,WEEK 2,4,2024-10-09,14
STUDY001,LB,STUDY001-SUBJ0010,34,L00034,PLT,Platelet Count,HEMATOLOGY,237.32,10^9/L,150.0,450.0,237.32,237.32,10^9/L,150.0,450.0,NORMAL,,WEEK 2,4,2024-10-09,14
STUDY001,LB,STUDY001-SUBJ0010,35,L00035,GLUC,Glucose,CHEMISTRY,79.32,mg/dL,70.0,100.0,79.32,79.32,mg/dL,70.0,100.0,NORMAL,,WEEK 2,4,2024-10-09,14
STUDY001,LB,STUDY001-SUBJ0010,36,L00036,BUN,Blood Urea Nitrogen,CHEMISTRY,12.5,mg/dL,7.0,20.0,12.5,12.5,mg/dL,7.0,20.0,NORMAL,,WEEK 2,4,2024-10-09,14
STUDY001,LB,STUDY001-SUBJ0010,37,L00037,CREAT,Creatinine,CHEMISTRY,0.79,mg/dL,0.6,1.2,0.79,0.79,mg/dL,0.6,1.2,NORMAL,,WEEK 2,4,2024-10-09,14
STUDY001,LB,STUDY001-SUBJ0010,38,L00038,BILI,Total Bilirubin,CHEMISTRY,0.72,mg/dL,0.1,1.2,0.72,0.72,mg/dL,0.1,1.2,NORMAL,,WEEK 2,4,2024-10-09,14
STUDY001,LB,STUDY001-SUBJ0010,39,L00039,ALP,Alkaline Phosphatase,CHEMISTRY,69.91,U/L,44.0,147.0,69.91,69.91,U/L,44.0,147.0,NORMAL,,WEEK 2,4,2024-10-09,14
STUDY001,LB,STUDY001-SUBJ0010,40,L00040,ALT,Alanine Aminotransferase,CHEMISTRY,33.2,U/L,7.0,56.0,33.2,33.2,U/L,7.0,56.0,NORMAL,,WEEK 2,4,2024-10-09,14
STUDY001,LB,STUDY001-SUBJ0010,41,L00041,HGB,Hemoglobin,HEMATOLOGY,13.49,g/dL,13.5,17.5,13.49,13.49,g/dL,13.5,17.5,LOW,,WEEK 4,5,2024-10-23,28
STUDY001,LB,STUDY001-SUBJ0010,42,L00042,HCT,Hematocrit,HEMATOLOGY,48.32,%,41.0,51.0,48.32,48.32,%,41.0,51.0,NORMAL,,WEEK 4,5,2024-10-23,28
STUDY001,LB,STUDY001-SUBJ0010,43,L00043,WBC,White Blood Cell Count,HEMATOLOGY,9.06,10^9/L,4.5,11.0,9.06,9.06,10^9/L,4.5,11.0,NORMAL,,WEEK 4,5,2024-10-23,28
STUDY001,LB,STUDY001-SUBJ0010,44,L00044,PLT,Platelet Count,HEMATOLOGY,244.18,10^9/L,150.0,450.0,244.18,244.18,10^9/L,150.0,450.0,NORMAL,,WEEK 4,5,2024-10-23,28
STUDY001,LB,STUDY001-SUBJ0010,45,L00045,GLUC,Glucose,CHEMISTRY,81.52,mg/dL,70.0,100.0,81.52,81.52,mg/dL,70.0,100.0,NORMAL,,WEEK 4,5,2024-10-23,28
STUDY001,LB,STUDY001-SUBJ0010,46,L00046,BUN,Blood Urea Nitrogen,CHEMISTRY,12.83,mg/dL,7.0,20.0,12.83,12.83,mg/dL,7.0,20.0,NORMAL,,WEEK 4,5,2024-10-23,28
STUDY001,LB,STUDY001-SUBJ0010,47,L00047,CREAT,Creatinine,CHEMISTRY,0.81,mg/dL,0.6,1.2,0.81,0.81,mg/dL,0.6,1.2,NORMAL,,WEEK 4,5,2024-10-23,28
STUDY001,LB,STUDY001-SUBJ0010,48,L00048,BILI,Total Bilirubin,CHEMISTRY,0.72,mg/dL,0.1,1.2,0.72,0.72,mg/dL,0.1,1.2,NORMAL,,WEEK 4,5,2024-10-23,28
STUDY001,LB,STUDY001-SUBJ0010,49,L00049,ALP,Alkaline Phosphatase,CHEMISTRY,66.3,U/L,44.0,147.0,66.3,66.3,U/L,44.0,147.0,NORMAL,,WEEK 4,5,2024-10-23,28
STUDY001,LB,STUDY001-SUBJ0010,50,L00050,ALT,Alanine Aminotransferase,CHEMISTRY,34.86,U/L,7.0,56.0,34.86,34.86,U/L,7.0,56.0,NORMAL,,WEEK 4,5,2024-10-23,28
STUDY001,LB,STUDY001-SUBJ0010,51,L00051,HGB,Hemoglobin,HEMATOLOGY,13.45,g/dL,13.5,17.5,13.45,13.45,g/dL,13.5,17.5,LOW,,WEEK 8,6,2024-11-20,56
STUDY001,LB,STUDY001-SUBJ0010,52,L00052,HCT,Hematocrit,HEMATOLOGY,48.5,%,41.0,51.0,48.5,48.5,%,41.0,51.0,NORMAL,,WEEK 8,6,2024-11-20,56
STUDY001,LB,STUDY001-SUBJ0010,53,L00053,WBC,White Blood Cell Count,HEMATOLOGY,8.78,10^9/L,4.5,11.0,8.78,8.78,10^9/L,4.5,11.0,NORMAL,,WEEK 8,6,2024-11-20,56
STUDY001,LB,STUDY001-SUBJ0010,54,L00054,PLT,Platelet Count,HEMATOLOGY,246.56,10^9/L,150.0,450.0,246.56,246.56,10^9/L,150.0,450.0,NORMAL,,WEEK 8,6,2024-11-20,56
STUDY001,LB,STUDY001-SUBJ0010,55,L00055,GLUC,Glucose,CHEMISTRY,81.49,mg/dL,70.0,100.0,81.49,81.49,mg/dL,70.0,100.0,NORMAL,,WEEK 8,6,2024-11-20,56
STUDY001,LB,STUDY001-SUBJ0010,56,L00056,BUN,Blood Urea Nitrogen,CHEMISTRY,12.12,mg/dL,7.0,20.0,12.12,12.12,mg/dL,7.0,20.0,NORMAL,,WEEK 8,6,2024-11-20,56
STUDY001,LB,STUDY001-SUBJ0010,57,L00057,CREAT,Creatinine,CHEMISTRY,0.8,mg/dL,0.6,1.2,0.8,0.8,mg/dL,0.6,1.2,NORMAL,,WEEK 8,6,2024-11-20,56
STUDY001,LB,STUDY001-SUBJ0010,58,L00058,BILI,Total Bilirubin,CHEMISTRY,0.77,mg/dL,0.1,1.2,0.77,0.77,mg/dL,0.1,1.2,NORMAL,,WEEK 8,6,2024-11-20,56
STUDY001,LB,STUDY001-SUBJ0010,59,L00059,ALP,Alkaline Phosphatase,CHEMISTRY,66.3,U/L,44.0,147.0,66.3,66.3,U/L,44.0,147.0,NORMAL,,WEEK 8,6,2024-11-20,56
STUDY001,LB,STUDY001-SUBJ0010,60,L00060,ALT,Alanine Aminotransferase,CHEMISTRY,36.77,U/L,7.0,56.0,36.77,36.77,U/L,7.0,56.0,NORMAL,,WEEK 8,6,2024-11-20,56
STUDY001,LB,STUDY001-SUBJ0010,61,L00061,HGB,Hemoglobin,HEMATOLOGY,13.52,g/dL,13.5,17.5,13.52,13.52,g/dL,13.5,17.5,NORMAL,,WEEK 12,7,2024-12-18,84
STUDY001,LB,STUDY001-SUBJ0010,62,L00062,HCT,Hematocrit,HEMATOLOGY,48.58,%,41.0,51.0,48.58,48.58,%,41.0,51.0,NORMAL,,WEEK 12,7,2024-12-18,84
STUDY001,LB,STUDY001-SUBJ0010,63,L00063,WBC,White Blood Cell Count,HEMATOLOGY,9.09,10^9/L,4.5,11.0,9.09,9.09,10^9/L,4.5,11.0,NORMAL,,WEEK 12,7,2024-12-18,84
STUDY001,LB,STUDY001-SUBJ0010,64,L00064,PLT,Platelet Count,HEMATOLOGY,242.06,10^9/L,150.0,450.0,242.06,242.06,10^9/L,150.0,450.0,NORMAL,,WEEK 12,7,2024-12-18,84
STUDY001,LB,STUDY001-SUBJ0010,65,L00065,GLUC,Glucose,CHEMISTRY,80.68,mg/dL,70.0,100.0,80.68,80.68,mg/dL,70.0,100.0,NORMAL,,WEEK 12,7,2024-12-18,84
STUDY001,LB,STUDY001-SUBJ0010,66,L00066,BUN,Blood Urea Nitrogen,CHEMISTRY,12.66,mg/dL,7.0,20.0,12.66,12.66,mg/dL,7.0,20.0,NORMAL,,WEEK 12,7,2024-12-18,84
STUDY001,LB,STUDY001-SUBJ0010,67,L00067,CREAT,Creatinine,CHEMISTRY,0.79,mg/dL,0.6,1.2,0.79,0.79,mg/dL,0.6,1.2,NORMAL,,WEEK 12,7,2024-12-18,84
STUDY001,LB,STUDY001-SUBJ0010,68,L00068,BILI,Total Bilirubin,CHEMISTRY,0.68,mg/dL,0.1,1.2,0.68,0.68,mg/dL,0.1,1.2,NORMAL,,WEEK 12,7,2024-12-18,84
STUDY001,LB,STUDY001-SUBJ0010,69,L00069,ALP,Alkaline Phosphatase,CHEMISTRY,70.81,U/L,44.0,147.0,70.81,70.81,U/L,44.0,147.0,NORMAL,,WEEK 12,7,2024-12-18,84
STUDY001,LB,STUDY001-SUBJ0010,70,L00070,ALT,Alanine Aminotransferase,CHEMISTRY,34.68,U/L,7.0,56.0,34.68,34.68,U/L,7.0,56.0,NORMAL,,WEEK 12,7,2024-12-18,84
STUDY001,LB,STUDY001-SUBJ0010,71,L00071,HGB,Hemoglobin,HEMATOLOGY,13.71,g/dL,13.5,17.5,13.71,13.71,g/dL,13.5,17.5,NORMAL,,WEEK 16,8,2025-01-15,112
STUDY001,LB,STUDY001-SUBJ0010,72,L00072,HCT,Hematocrit,HEMATOLOGY,48.57,%,41.0,51.0,48.57,48.57,%,41.0,51.0,NORMAL,,WEEK 16,8,2025-01-15,112
STUDY001,LB,STUDY001-SUBJ0010,73,L00073,WBC,White Blood Cell Count,HEMATOLOGY,9.2,10^9/L,4.5,11.0,9.2,9.2,10^9/L,4.5,11.0,NORMAL,,WEEK 16,8,2025-01-15,112
STUDY001,LB,STUDY001-SUBJ0010,74,L00074,PLT,Platelet Count,HEMATOLOGY,251.61,10^9/L,150.0,450.0,251.61,251.61,10^9/L,150.0,450.0,NORMAL,,WEEK 16,8,2025-01-15,112
STUDY001,LB,STUDY001-SUBJ0010,75,L00075,GLUC,Glucose,CHEMISTRY,81.17,mg/dL,70.0,100.0,81.17,81.17,mg/dL,70.0,100.0,NORMAL,,WEEK 16,8,2025-01-15,112
STUDY001,LB,STUDY001-SUBJ0010,76,L00076,BUN,Blood Urea Nitrogen,CHEMISTRY,12.68,mg/dL,7.0,20.0,12.68,12.68,mg/dL,7.0,20.0,NORMAL,,WEEK 16,8,2025-01-15,112
STUDY001,LB,STUDY001-SUBJ0010,77,L00077,CREAT,Creatinine,CHEMISTRY,0.78,mg/dL,0.6,1.2,0.78,0.78,mg/dL,0.6,1.2,NORMAL,,WEEK 16,8,2025-01-15,112
STUDY001,LB,STUDY001-SUBJ0010,78,L00078,BILI,Total Bilirubin,CHEMISTRY,0.72,mg/dL,0.1,1.2,0.72,0.72,mg/dL,0.1,1.2,NORMAL,,WEEK 16,8,2025-01-15,112
STUDY001,LB,STUDY001-SUBJ0010,79,L00079,ALP,Alkaline Phosphatase,CHEMISTRY,65.71,U/L,44.0,147.0,65.71,65.71,U/L,44.0,147.0,NORMAL,,WEEK 16,8,2025-01-15,112
STUDY001,LB,STUDY001-SUBJ0010,80,L00080,ALT,Alanine Aminotransferase,CHEMISTRY,34.89,U/L,7.0,56.0,34.89,34.89,U/L,7.0,56.0,NORMAL,,WEEK 16,8,2025-01-15,112
STUDY001,LB,STUDY001-SUBJ0010,81,L00081,HGB,Hemoglobin,HEMATOLOGY,13.39,g/dL,13.5,17.5,13.39,13.39,g/dL,13.5,17.5,LOW,,END OF TREATMENT,9,2025-02-12,140
STUDY001,LB,STUDY001-SUBJ0010,82,L00082,HCT,Hematocrit,HEMATOLOGY,48.94,%,41.0,51.0,48.94,48.94,%,41.0,51.0,NORMAL,,END OF TREATMENT,9,2025-02-12,140
STUDY001,LB,STUDY001-SUBJ0010,83,L00083,WBC,White Blood Cell Count,HEMATOLOGY,9.27,10^9/L,4.5,11.0,9.27,9.27,10^9/L,4.5,11.0,NORMAL,,END OF TREATMENT,9,2025-02-12,140
STUDY001,LB,STUDY001-SUBJ0010,84,L00084,PLT,Platelet Count,HEMATOLOGY,239.8,10^9/L,150.0,450.0,239.8,239.8,10^9/L,150.0,450.0,NORMAL,,END OF TREATMENT,9,2025-02-12,140
STUDY001,LB,STUDY001-SUBJ0010,85,L00085,GLUC,Glucose,CHEMISTRY,79.69,mg/dL,70.0,100.0,79.69,79.69,mg/dL,70.0,100.0,NORMAL,,END OF TREATMENT,9,2025-02-12,140
STUDY001,LB,STUDY001-SUBJ0010,86,L00086,BUN,Blood Urea Nitrogen,CHEMISTRY,12.86,mg/dL,7.0,20.0,12.86,12.86,mg/dL,7.0,20.0,NORMAL,,END OF TREATMENT,9,2025-02-12,140
STUDY001,LB,STUDY001-SUBJ0010,87,L00087,CREAT,Creatinine,CHEMISTRY,0.81,mg/dL,0.6,1.2,0.81,0.81,mg/dL,0.6,1.2,NORMAL,,END OF TREATMENT,9,2025-02-12,140
STUDY001,LB,STUDY001-SUBJ0010,88,L00088,BILI,Total Bilirubin,CHEMISTRY,0.7,mg/dL,0.1,1.2,0.7,0.7,mg/dL,0.1,1.2,NORMAL,,END OF TREATMENT,9,2025-02-12,140
STUDY001,LB,STUDY001-SUBJ0010,89,L00089,ALP,Alkaline Phosphatase,CHEMISTRY,71.76,U/L,44.0,147.0,71.76,71.76,U/L,44.0,147.0,NORMAL,,END OF TREATMENT,9,2025-02-12,140
STUDY001,LB,STUDY001-SUBJ0010,90,L00090,ALT,Alanine Aminotransferase,CHEMISTRY,35.62,U/L,7.0,56.0,35.62,35.62,U/L,7.0,56.0,NORMAL,,END OF TREATMENT,9,2025-02-12,140
