STUDYID,DOMAIN,USUBJID,VSSEQ,VSTESTCD,VSTEST,VSORRES,VSORRESU,VSSTRESC,VSSTRESN,VSSTRESU,VSBLFL,VISIT,VISITNUM,VSDTC,VSDY
STUDY001,VS,STUDY001-SUBJ0001,1,HEIGHT,Height,167.2,cm,167.2,167.2,cm,,SCREENING,1,2025-01-26,-14
STUDY001,VS,STUDY001-SUBJ0001,2,WEIGHT,Weight,63.5,kg,63.5,63.5,kg,,SCREENING,1,2025-01-26,-14
STUDY001,VS,STUDY001-SUBJ0001,3,TEMP,Temperature,36.0,C,36.0,36.0,C,,SCREENING,1,2025-01-26,-14
STUDY001,VS,STUDY001-SUBJ0001,4,BP,Blood Pressure,147/91,mmHg,147/91,,mmHg,,SCREENING,1,2025-01-26,-14
STUDY001,VS,STUDY001-SUBJ0001,5,HR,Heart Rate,66,beats/min,66,66.0,beats/min,,SCREENING,1,2025-01-26,-14
STUDY001,VS,STUDY001-SUBJ0001,6,HEIGHT,Height,167.0,cm,167.0,167.0,cm,Y,BASELINE,2,2025-02-09,1
STUDY001,VS,STUDY001-SUBJ0001,7,WEIGHT,Weight,64.2,kg,64.2,64.2,kg,Y,BASELINE,2,2025-02-09,1
STUDY001,VS,STUDY001-SUBJ0001,8,TEMP,Temperature,36.3,C,36.3,36.3,C,Y,BASELINE,2,2025-02-09,1
STUDY001,VS,STUDY001-SUBJ0001,9,BP,Blood Pressure,148/91,mmHg,148/91,,mmHg,Y,BASELINE,2,2025-02-09,1
STUDY001,VS,STUDY001-SUBJ0001,10,HR,Heart Rate,60,beats/min,60,60.0,beats/min,Y,BASELINE,2,2025-02-09,1
STUDY001,VS,STUDY001-SUBJ0001,11,HEIGHT,Height,167.4,cm,167.4,167.4,cm,,WEEK 1,3,2025-02-15,7
STUDY001,VS,STUDY001-SUBJ0001,12,WEIGHT,Weight,64.1,kg,64.1,64.1,kg,,WEEK 1,3,2025-02-15,7
STUDY001,VS,STUDY001-SUBJ0001,13,TEMP,Temperature,36.2,C,36.2,36.2,C,,WEEK 1,3,2025-02-15,7
STUDY001,VS,STUDY001-SUBJ0001,14,BP,Blood Pressure,148/86,mmHg,148/86,,mmHg,,WEEK 1,3,2025-02-15,7
STUDY001,VS,STUDY001-SUBJ0001,15,HR,Heart Rate,57,beats/min,57,57.0,beats/min,,WEEK 1,3,2025-02-15,7
STUDY001,VS,STUDY001-SUBJ0001,16,HEIGHT,Height,167.1,cm,167.1,167.1,cm,,WEEK 2,4,2025-02-22,14
STUDY001,VS,STUDY001-SUBJ0001,17,WEIGHT,Weight,65.0,kg,65.0,65.0,kg,,WEEK 2,4,2025-02-22,14
STUDY001,VS,STUDY001-SUBJ0001,18,TEMP,Temperature,36.1,C,36.1,36.1,C,,WEEK 2,4,2025-02-22,14
STUDY001,VS,STUDY001-SUBJ0001,19,BP,Blood Pressure,145/91,mmHg,145/91,,mmHg,,WEEK 2,4,2025-02-22,14
STUDY001,VS,STUDY001-SUBJ0001,20,HR,Heart Rate,57,beats/min,57,57.0,beats/min,,WEEK 2,4,2025-02-22,14
STUDY001,VS,STUDY001-SUBJ0001,21,HEIGHT,Height,167.3,cm,167.3,167.3,cm,,WEEK 4,5,2025-03-08,28
STUDY001,VS,STUDY001-SUBJ0001,22,WEIGHT,Weight,65.2,kg,65.2,65.2,kg,,WEEK 4,5,2025-03-08,28
STUDY001,VS,STUDY001-SUBJ0001,23,TEMP,Temperature,36.4,C,36.4,36.4,C,,WEEK 4,5,2025-03-08,28
STUDY001,VS,STUDY001-SUBJ0001,24,BP,Blood Pressure,151/93,mmHg,151/93,,mmHg,,WEEK 4,5,2025-03-08,28
STUDY001,VS,STUDY001-SUBJ0001,25,HR,Heart Rate,64,beats/min,64,64.0,beats/min,,WEEK 4,5,2025-03-08,28
STUDY001,VS,STUDY001-SUBJ0001,26,HEIGHT,Height,167.0,cm,167.0,167.0,cm,,WEEK 8,6,2025-04-05,56
STUDY001,VS,STUDY001-SUBJ0001,27,WEIGHT,Weight,64.4,kg,64.4,64.4,kg,,WEEK 8,6,2025-04-05,56
STUDY001,VS,STUDY001-SUBJ0001,28,TEMP,Temperature,36.1,C,36.1,36.1,C,,WEEK 8,6,2025-04-05,56
STUDY001,VS,STUDY001-SUBJ0001,29,BP,Blood Pressure,150/93,mmHg,150/93,,mmHg,,WEEK 8,6,2025-04-05,56
STUDY001,VS,STUDY001-SUBJ0001,30,HR,Heart Rate,59,beats/min,59,59.0,beats/min,,WEEK 8,6,2025-04-05,56
STUDY001,VS,STUDY001-SUBJ0001,31,HEIGHT,Height,167.3,cm,167.3,167.3,cm,,WEEK 12,7,2025-05-03,84
STUDY001,VS,STUDY001-SUBJ0001,32,WEIGHT,Weight,65.0,kg,65.0,65.0,kg,,WEEK 12,7,2025-05-03,84
STUDY001,VS,STUDY001-SUBJ0001,33,TEMP,Temperature,35.9,C,35.9,35.9,C,,WEEK 12,7,2025-05-03,84
STUDY001,VS,STUDY001-SUBJ0001,34,BP,Blood Pressure,152/85,mmHg,152/85,,mmHg,,WEEK 12,7,2025-05-03,84
STUDY001,VS,STUDY001-SUBJ0001,35,HR,Heart Rate,61,beats/min,61,61.0,beats/min,,WEEK 12,7,2025-05-03,84
STUDY001,VS,STUDY001-SUBJ0001,36,HEIGHT,Height,167.1,cm,167.1,167.1,cm,,WEEK 16,8,2025-05-31,112
STUDY001,VS,STUDY001-SUBJ0001,37,WEIGHT,Weight,65.1,kg,65.1,65.1,kg,,WEEK 16,8,2025-05-31,112
STUDY001,VS,STUDY001-SUBJ0001,38,TEMP,Temperature,36.1,C,36.1,36.1,C,,WEEK 16,8,2025-05-31,112
STUDY001,VS,STUDY001-SUBJ0001,39,BP,Blood Pressure,144/86,mmHg,144/86,,mmHg,,WEEK 16,8,2025-05-31,112
STUDY001,VS,STUDY001-SUBJ0001,40,HR,Heart Rate,62,beats/min,62,62.0,beats/min,,WEEK 16,8,2025-05-31,112
STUDY001,VS,STUDY001-SUBJ0001,41,HEIGHT,Height,167.3,cm,167.3,167.3,cm,,END OF TREATMENT,9,2025-06-28,140
STUDY001,VS,STUDY001-SUBJ0001,42,WEIGHT,Weight,63.7,kg,63.7,63.7,kg,,END OF TREATMENT,9,2025-06-28,140
STUDY001,VS,STUDY001-SUBJ0001,43,TEMP,Temperature,36.2,C,36.2,36.2,C,,END OF TREATMENT,9,2025-06-28,140
STUDY001,VS,STUDY001-SUBJ0001,44,BP,Blood Pressure,145/91,mmHg,145/91,,mmHg,,END OF TREATMENT,9,2025-06-28,140
STUDY001,VS,STUDY001-SUBJ0001,45,HR,Heart Rate,62,beats/min,62,62.0,beats/min,,END OF TREATMENT,9,2025-06-28,140
STUDY001,VS,STUDY001-SUBJ0002,1,HEIGHT,Height,166.7,cm,166.7,166.7,cm,,SCREENING,1,2025-03-10,-14
STUDY001,VS,STUDY001-SUBJ0002,2,WEIGHT,Weight,59.7,kg,59.7,59.7,kg,,SCREENING,1,2025-03-10,-14
STUDY001,VS,STUDY001-SUBJ0002,3,TEMP,Temperature,36.4,C,36.4,36.4,C,,SCREENING,1,2025-03-10,-14
STUDY001,VS,STUDY001-SUBJ0002,4,BP,Blood Pressure,147/82,mmHg,147/82,,mmHg,,SCREENING,1,2025-03-10,-14
STUDY001,VS,STUDY001-SUBJ0002,5,HR,Heart Rate,86,beats/min,86,86.0,beats/min,,SCREENING,1,2025-03-10,-14
STUDY001,VS,STUDY001-SUBJ0002,6,HEIGHT,Height,166.7,cm,166.7,166.7,cm,Y,BASELINE,2,2025-03-24,1
STUDY001,VS,STUDY001-SUBJ0002,7,WEIGHT,Weight,58.2,kg,58.2,58.2,kg,Y,BASELINE,2,2025-03-24,1
STUDY001,VS,STUDY001-SUBJ0002,8,TEMP,Temperature,36.6,C,36.6,36.6,C,Y,BASELINE,2,2025-03-24,1
STUDY001,VS,STUDY001-SUBJ0002,9,BP,Blood Pressure,151/77,mmHg,151/77,,mmHg,Y,BASELINE,2,2025-03-24,1
STUDY001,VS,STUDY001-SUBJ0002,10,HR,Heart Rate,81,beats/min,81,81.0,beats/min,Y,BASELINE,2,2025-03-24,1
STUDY001,VS,STUDY001-SUBJ0002,11,HEIGHT,Height,166.9,cm,166.9,166.9,cm,,WEEK 1,3,2025-03-30,7
STUDY001,VS,STUDY001-SUBJ0002,12,WEIGHT,Weight,58.1,kg,58.1,58.1,kg,,WEEK 1,3,2025-03-30,7
STUDY001,VS,STUDY001-SUBJ0002,13,TEMP,Temperature,36.4,C,36.4,36.4,C,,WEEK 1,3,2025-03-30,7
STUDY001,VS,STUDY001-SUBJ0002,14,BP,Blood Pressure,152/80,mmHg,152/80,,mmHg,,WEEK 1,3,2025-03-30,7
STUDY001,VS,STUDY001-SUBJ0002,15,HR,Heart Rate,79,beats/min,79,79.0,beats/min,,WEEK 1,3,2025-03-30,7
STUDY001,VS,STUDY001-SUBJ0002,16,HEIGHT,Height,166.6,cm,166.6,166.6,cm,,WEEK 2,4,2025-04-06,14
STUDY001,VS,STUDY001-SUBJ0002,17,WEIGHT,Weight,58.4,kg,58.4,58.4,kg,,WEEK 2,4,2025-04-06,14
STUDY001,VS,STUDY001-SUBJ0002,18,TEMP,Temperature,36.4,C,36.4,36.4,C,,WEEK 2,4,2025-04-06,14
STUDY001,VS,STUDY001-SUBJ0002,19,BP,Blood Pressure,150/79,mmHg,150/79,,mmHg,,WEEK 2,4,2025-04-06,14
STUDY001,VS,STUDY001-SUBJ0002,20,HR,Heart Rate,84,beats/min,84,84.0,beats/min,,WEEK 2,4,2025-04-06,14
STUDY001,VS,STUDY001-SUBJ0002,21,HEIGHT,Height,166.7,cm,166.7,166.7,cm,,WEEK 4,5,2025-04-20,28
STUDY001,VS,STUDY001-SUBJ0002,22,WEIGHT,Weight,59.2,kg,59.2,59.2,kg,,WEEK 4,5,2025-04-20,28
STUDY001,VS,STUDY001-SUBJ0002,23,TEMP,Temperature,36.5,C,36.5,36.5,C,,WEEK 4,5,2025-04-20,28
STUDY001,VS,STUDY001-SUBJ0002,24,BP,Blood Pressure,143/76,mmHg,143/76,,mmHg,,WEEK 4,5,2025-04-20,28
STUDY001,VS,STUDY001-SUBJ0002,25,HR,Heart Rate,84,beats/min,84,84.0,beats/min,,WEEK 4,5,2025-04-20,28
STUDY001,VS,STUDY001-SUBJ0002,26,HEIGHT,Height,166.5,cm,166.5,166.5,cm,,WEEK 8,6,2025-05-18,56
STUDY001,VS,STUDY001-SUBJ0002,27,WEIGHT,Weight,58.1,kg,58.1,58.1,kg,,WEEK 8,6,2025-05-18,56
STUDY001,VS,STUDY001-SUBJ0002,28,TEMP,Temperature,36.7,C,36.7,36.7,C,,WEEK 8,6,2025-05-18,56
STUDY001,VS,STUDY001-SUBJ0002,29,BP,Blood Pressure,142/75,mmHg,142/75,,mmHg,,WEEK 8,6,2025-05-18,56
STUDY001,VS,STUDY001-SUBJ0002,30,HR,Heart Rate,80,beats/min,80,80.0,beats/min,,WEEK 8,6,2025-05-18,56
STUDY001,VS,STUDY001-SUBJ0002,31,HEIGHT,Height,166.7,cm,166.7,166.7,cm,,WEEK 12,7,2025-06-15,84
STUDY001,VS,STUDY001-SUBJ0002,32,WEIGHT,Weight,59.4,kg,59.4,59.4,kg,,WEEK 12,7,2025-06-15,84
STUDY001,VS,STUDY001-SUBJ0002,33,TEMP,Temperature,36.8,C,36.8,36.8,C,,WEEK 12,7,2025-06-15,84
STUDY001,VS,STUDY001-SUBJ0002,34,BP,Blood Pressure,149/83,mmHg,149/83,,mmHg,,WEEK 12,7,2025-06-15,84
STUDY001,VS,STUDY001-SUBJ0002,35,HR,Heart Rate,83,beats/min,83,83.0,beats/min,,WEEK 12,7,2025-06-15,84
STUDY001,VS,STUDY001-SUBJ0002,36,HEIGHT,Height,166.9,cm,166.9,166.9,cm,,WEEK 16,8,2025-07-13,112
STUDY001,VS,STUDY001-SUBJ0002,37,WEIGHT,Weight,59.2,kg,59.2,59.2,kg,,WEEK 16,8,2025-07-13,112
STUDY001,VS,STUDY001-SUBJ0002,38,TEMP,Temperature,36.5,C,36.5,36.5,C,,WEEK 16,8,2025-07-13,112
STUDY001,VS,STUDY001-SUBJ0002,39,BP,Blood Pressure,151/83,mmHg,151/83,,mmHg,,WEEK 16,8,2025-07-13,112
STUDY001,VS,STUDY001-SUBJ0002,40,HR,Heart Rate,79,beats/min,79,79.0,beats/min,,WEEK 16,8,2025-07-13,112
STUDY001,VS,STUDY001-SUBJ0002,41,HEIGHT,Height,166.6,cm,166.6,166.6,cm,,END OF TREATMENT,9,2025-08-10,140
STUDY001,VS,STUDY001-SUBJ0002,42,WEIGHT,Weight,58.1,kg,58.1,58.1,kg,,END OF TREATMENT,9,2025-08-10,140
STUDY001,VS,STUDY001-SUBJ0002,43,TEMP,Temperature,36.8,C,36.8,36.8,C,,END OF TREATMENT,9,2025-08-10,140
STUDY001,VS,STUDY001-SUBJ0002,44,BP,Blood Pressure,150/75,mmHg,150/75,,mmHg,,END OF TREATMENT,9,2025-08-10,140
STUDY001,VS,STUDY001-SUBJ0002,45,HR,Heart Rate,84,beats/min,84,84.0,beats/min,,END OF TREATMENT,9,2025-08-10,140
STUDY001,VS,STUDY001-SUBJ0003,1,HEIGHT,Height,151.0,cm,151.0,151.0,cm,,SCREENING,1,2025-05-08,-14
STUDY001,VS,STUDY001-SUBJ0003,2,WEIGHT,Weight,71.0,kg,71.0,71.0,kg,,SCREENING,1,2025-05-08,-14
STUDY001,VS,STUDY001-SUBJ0003,3,TEMP,Temperature,36.3,C,36.3,36.3,C,,SCREENING,1,2025-05-08,-14
STUDY001,VS,STUDY001-SUBJ0003,4,BP,Blood Pressure,114/89,mmHg,114/89,,mmHg,,SCREENING,1,2025-05-08,-14
STUDY001,VS,STUDY001-SUBJ0003,5,HR,Heart Rate,80,beats/min,80,80.0,beats/min,,SCREENING,1,2025-05-08,-14
STUDY001,VS,STUDY001-SUBJ0003,6,HEIGHT,Height,151.1,cm,151.1,151.1,cm,Y,BASELINE,2,2025-05-22,1
STUDY001,VS,STUDY001-SUBJ0003,7,WEIGHT,Weight,72.4,kg,72.4,72.4,kg,Y,BASELINE,2,2025-05-22,1
STUDY001,VS,STUDY001-SUBJ0003,8,TEMP,Temperature,36.6,C,36.6,36.6,C,Y,BASELINE,2,2025-05-22,1
STUDY001,VS,STUDY001-SUBJ0003,9,BP,Blood Pressure,119/86,mmHg,119/86,,mmHg,Y,BASELINE,2,2025-05-22,1
STUDY001,VS,STUDY001-SUBJ0003,10,HR,Heart Rate,86,beats/min,86,86.0,beats/min,Y,BASELINE,2,2025-05-22,1
STUDY001,VS,STUDY001-SUBJ0003,11,HEIGHT,Height,151.0,cm,151.0,151.0,cm,,WEEK 1,3,2025-05-28,7
STUDY001,VS,STUDY001-SUBJ0003,12,WEIGHT,Weight,72.3,kg,72.3,72.3,kg,,WEEK 1,3,2025-05-28,7
STUDY001,VS,STUDY001-SUBJ0003,13,TEMP,Temperature,36.4,C,36.4,36.4,C,,WEEK 1,3,2025-05-28,7
STUDY001,VS,STUDY001-SUBJ0003,14,BP,Blood Pressure,115/87,mmHg,115/87,,mmHg,,WEEK 1,3,2025-05-28,7
STUDY001,VS,STUDY001-SUBJ0003,15,HR,Heart Rate,77,beats/min,77,77.0,beats/min,,WEEK 1,3,2025-05-28,7
STUDY001,VS,STUDY001-SUBJ0003,16,HEIGHT,Height,151.2,cm,151.2,151.2,cm,,WEEK 2,4,2025-06-04,14
STUDY001,VS,STUDY001-SUBJ0003,17,WEIGHT,Weight,71.7,kg,71.7,71.7,kg,,WEEK 2,4,2025-06-04,14
STUDY001,VS,STUDY001-SUBJ0003,18,TEMP,Temperature,36.6,C,36.6,36.6,C,,WEEK 2,4,2025-06-04,14
STUDY001,VS,STUDY001-SUBJ0003,19,BP,Blood Pressure,116/80,mmHg,116/80,,mmHg,,WEEK 2,4,2025-06-04,14
STUDY001,VS,STUDY001-SUBJ0003,20,HR,Heart Rate,83,beats/min,83,83.0,beats/min,,WEEK 2,4,2025-06-04,14
STUDY001,VS,STUDY001-SUBJ0003,21,HEIGHT,Height,150.9,cm,150.9,150.9,cm,,WEEK 4,5,2025-06-18,28
STUDY001,VS,STUDY001-SUBJ0003,22,WEIGHT,Weight,71.1,kg,71.1,71.1,kg,,WEEK 4,5,2025-06-18,28
STUDY001,VS,STUDY001-SUBJ0003,23,TEMP,Temperature,36.7,C,36.7,36.7,C,,WEEK 4,5,2025-06-18,28
STUDY001,VS,STUDY001-SUBJ0003,24,BP,Blood Pressure,117/84,mmHg,117/84,,mmHg,,WEEK 4,5,2025-06-18,28
STUDY001,VS,STUDY001-SUBJ0003,25,HR,Heart Rate,81,beats/min,81,81.0,beats/min,,WEEK 4,5,2025-06-18,28
STUDY001,VS,STUDY001-SUBJ0003,26,HEIGHT,Height,151.1,cm,151.1,151.1,cm,,WEEK 8,6,2025-07-16,56
STUDY001,VS,STUDY001-SUBJ0003,27,WEIGHT,Weight,71.2,kg,71.2,71.2,kg,,WEEK 8,6,2025-07-16,56
STUDY001,VS,STUDY001-SUBJ0003,28,TEMP,Temperature,36.7,C,36.7,36.7,C,,WEEK 8,6,2025-07-16,56
STUDY001,VS,STUDY001-SUBJ0003,29,BP,Blood Pressure,123/85,mmHg,123/85,,mmHg,,WEEK 8,6,2025-07-16,56
STUDY001,VS,STUDY001-SUBJ0003,30,HR,Heart Rate,84,beats/min,84,84.0,beats/min,,WEEK 8,6,2025-07-16,56
STUDY001,VS,STUDY001-SUBJ0003,31,HEIGHT,Height,150.8,cm,150.8,150.8,cm,,WEEK 12,7,2025-08-13,84
STUDY001,VS,STUDY001-SUBJ0003,32,WEIGHT,Weight,71.9,kg,71.9,71.9,kg,,WEEK 12,7,2025-08-13,84
STUDY001,VS,STUDY001-SUBJ0003,33,TEMP,Temperature,36.6,C,36.6,36.6,C,,WEEK 12,7,2025-08-13,84
STUDY001,VS,STUDY001-SUBJ0003,34,BP,Blood Pressure,117/83,mmHg,117/83,,mmHg,,WEEK 12,7,2025-08-13,84
STUDY001,VS,STUDY001-SUBJ0003,35,HR,Heart Rate,79,beats/min,79,79.0,beats/min,,WEEK 12,7,2025-08-13,84
STUDY001,VS,STUDY001-SUBJ0003,36,HEIGHT,Height,150.8,cm,150.8,150.8,cm,,WEEK 16,8,2025-09-10,112
STUDY001,VS,STUDY001-SUBJ0003,37,WEIGHT,Weight,72.9,kg,72.9,72.9,kg,,WEEK 16,8,2025-09-10,112
STUDY001,VS,STUDY001-SUBJ0003,38,TEMP,Temperature,36.7,C,36.7,36.7,C,,WEEK 16,8,2025-09-10,112
STUDY001,VS,STUDY001-SUBJ0003,39,BP,Blood Pressure,117/81,mmHg,117/81,,mmHg,,WEEK 16,8,2025-09-10,112
STUDY001,VS,STUDY001-SUBJ0003,40,HR,Heart Rate,84,beats/min,84,84.0,beats/min,,WEEK 16,8,2025-09-10,112
STUDY001,VS,STUDY001-SUBJ0003,41,HEIGHT,Height,150.8,cm,150.8,150.8,cm,,END OF TREATMENT,9,2025-10-08,140
STUDY001,VS,STUDY001-SUBJ0003,42,WEIGHT,Weight,72.5,kg,72.5,72.5,kg,,END OF TREATMENT,9,2025-10-08,140
STUDY001,VS,STUDY001-SUBJ0003,43,TEMP,Temperature,36.7,C,36.7,36.7,C,,END OF TREATMENT,9,2025-10-08,140
STUDY001,VS,STUDY001-SUBJ0003,44,BP,Blood Pressure,124/86,mmHg,124/86,,mmHg,,END OF TREATMENT,9,2025-10-08,140
STUDY001,VS,STUDY001-SUBJ0003,45,HR,Heart Rate,80,beats/min,80,80.0,beats/min,,END OF TREATMENT,9,2025-10-08,140
STUDY001,VS,STUDY001-SUBJ0004,1,HEIGHT,Height,182.9,cm,182.9,182.9,cm,,SCREENING,1,2025-02-17,-14
STUDY001,VS,STUDY001-SUBJ0004,2,WEIGHT,Weight,64.0,kg,64.0,64.0,kg,,SCREENING,1,2025-02-17,-14
STUDY001,VS,STUDY001-SUBJ0004,3,TEMP,Temperature,36.3,C,36.3,36.3,C,,SCREENING,1,2025-02-17,-14
STUDY001,VS,STUDY001-SUBJ0004,4,BP,Blood Pressure,141/96,mmHg,141/96,,mmHg,,SCREENING,1,2025-02-17,-14
STUDY001,VS,STUDY001-SUBJ0004,5,HR,Heart Rate,71,beats/min,71,71.0,beats/min,,SCREENING,1,2025-02-17,-14
STUDY001,VS,STUDY001-SUBJ0004,6,HEIGHT,Height,182.7,cm,182.7,182.7,cm,Y,BASELINE,2,2025-03-03,1
STUDY001,VS,STUDY001-SUBJ0004,7,WEIGHT,Weight,64.3,kg,64.3,64.3,kg,Y,BASELINE,2,2025-03-03,1
STUDY001,VS,STUDY001-SUBJ0004,8,TEMP,Temperature,36.6,C,36.6,36.6,C,Y,BASELINE,2,2025-03-03,1
STUDY001,VS,STUDY001-SUBJ0004,9,BP,Blood Pressure,141/91,mmHg,141/91,,mmHg,Y,BASELINE,2,2025-03-03,1
STUDY001,VS,STUDY001-SUBJ0004,10,HR,Heart Rate,77,beats/min,77,77.0,beats/min,Y,BASELINE,2,2025-03-03,1
STUDY001,VS,STUDY001-SUBJ0004,11,HEIGHT,Height,183.0,cm,183.0,183.0,cm,,WEEK 1,3,2025-03-09,7
STUDY001,VS,STUDY001-SUBJ0004,12,WEIGHT,Weight,64.8,kg,64.8,64.8,kg,,WEEK 1,3,2025-03-09,7
STUDY001,VS,STUDY001-SUBJ0004,13,TEMP,Temperature,36.1,C,36.1,36.1,C,,WEEK 1,3,2025-03-09,7
STUDY001,VS,STUDY001-SUBJ0004,14,BP,Blood Pressure,139/90,mmHg,139/90,,mmHg,,WEEK 1,3,2025-03-09,7
STUDY001,VS,STUDY001-SUBJ0004,15,HR,Heart Rate,70,beats/min,70,70.0,beats/min,,WEEK 1,3,2025-03-09,7
STUDY001,VS,STUDY001-SUBJ0004,16,HEIGHT,Height,182.9,cm,182.9,182.9,cm,,WEEK 2,4,2025-03-16,14
STUDY001,VS,STUDY001-SUBJ0004,17,WEIGHT,Weight,63.7,kg,63.7,63.7,kg,,WEEK 2,4,2025-03-16,14
STUDY001,VS,STUDY001-SUBJ0004,18,TEMP,Temperature,36.1,C,36.1,36.1,C,,WEEK 2,4,2025-03-16,14
STUDY001,VS,STUDY001-SUBJ0004,19,BP,Blood Pressure,141/87,mmHg,141/87,,mmHg,,WEEK 2,4,2025-03-16,14
STUDY001,VS,STUDY001-SUBJ0004,20,HR,Heart Rate,74,beats/min,74,74.0,beats/min,,WEEK 2,4,2025-03-16,14
STUDY001,VS,STUDY001-SUBJ0004,21,HEIGHT,Height,182.7,cm,182.7,182.7,cm,,WEEK 4,5,2025-03-30,28
STUDY001,VS,STUDY001-SUBJ0004,22,WEIGHT,Weight,64.2,kg,64.2,64.2,kg,,WEEK 4,5,2025-03-30,28
STUDY001,VS,STUDY001-SUBJ0004,23,TEMP,Temperature,36.5,C,36.5,36.5,C,,WEEK 4,5,2025-03-30,28
STUDY001,VS,STUDY001-SUBJ0004,24,BP,Blood Pressure,146/95,mmHg,146/95,,mmHg,,WEEK 4,5,2025-03-30,28
STUDY001,VS,STUDY001-SUBJ0004,25,HR,Heart Rate,73,beats/min,73,73.0,beats/min,,WEEK 4,5,2025-03-30,28
STUDY001,VS,STUDY001-SUBJ0004,26,HEIGHT,Height,182.9,cm,182.9,182.9,cm,,WEEK 8,6,2025-04-27,56
STUDY001,VS,STUDY001-SUBJ0004,27,WEIGHT,Weight,65.0,kg,65.0,65.0,kg,,WEEK 8,6,2025-04-27,56
STUDY001,VS,STUDY001-SUBJ0004,28,TEMP,Temperature,36.0,C,36.0,36.0,C,,WEEK 8,6,2025-04-27,56
STUDY001,VS,STUDY001-SUBJ0004,29,BP,Blood Pressure,140/92,mmHg,140/92,,mmHg,,WEEK 8,6,2025-04-27,56
STUDY001,VS,STUDY001-SUBJ0004,30,HR,Heart Rate,77,beats/min,77,77.0,beats/min,,WEEK 8,6,2025-04-27,56
STUDY001,VS,STUDY001-SUBJ0004,31,HEIGHT,Height,183.0,cm,183.0,183.0,cm,,WEEK 12,7,2025-05-25,84
STUDY001,VS,STUDY001-SUBJ0004,32,WEIGHT,Weight,64.2,kg,64.2,64.2,kg,,WEEK 12,7,2025-05-25,84
STUDY001,VS,STUDY001-SUBJ0004,33,TEMP,Temperature,36.2,C,36.2,36.2,C,,WEEK 12,7,2025-05-25,84
STUDY001,VS,STUDY001-SUBJ0004,34,BP,Blood Pressure,144/90,mmHg,144/90,,mmHg,,WEEK 12,7,2025-05-25,84
STUDY001,VS,STUDY001-SUBJ0004,35,HR,Heart Rate,73,beats/min,73,73.0,beats/min,,WEEK 12,7,2025-05-25,84
STUDY001,VS,STUDY001-SUBJ0004,36,HEIGHT,Height,182.8,cm,182.8,182.8,cm,,WEEK 16,8,2025-06-22,112
STUDY001,VS,STUDY001-SUBJ0004,37,WEIGHT,Weight,65.2,kg,65.2,65.2,kg,,WEEK 16,8,2025-06-22,112
STUDY001,VS,STUDY001-SUBJ0004,38,TEMP,Temperature,36.3,C,36.3,36.3,C,,WEEK 16,8,2025-06-22,112
STUDY001,VS,STUDY001-SUBJ0004,39,BP,Blood Pressure,141/95,mmHg,141/95,,mmHg,,WEEK 16,8,2025-06-22,112
STUDY001,VS,STUDY001-SUBJ0004,40,HR,Heart Rate,69,beats/min,69,69.0,beats/min,,WEEK 16,8,2025-06-22,112
STUDY001,VS,STUDY001-SUBJ0004,41,HEIGHT,Height,182.8,cm,182.8,182.8,cm,,END OF TREATMENT,9,2025-07-20,140
STUDY001,VS,STUDY001-SUBJ0004,42,WEIGHT,Weight,63.6,kg,63.6,63.6,kg,,END OF TREATMENT,9,2025-07-20,140
STUDY001,VS,STUDY001-SUBJ0004,43,TEMP,Temperature,36.6,C,36.6,36.6,C,,END OF TREATMENT,9,2025-07-20,140
STUDY001,VS,STUDY001-SUBJ0004,44,BP,Blood Pressure,145/97,mmHg,145/97,,mmHg,,END OF TREATMENT,9,2025-07-20,140
STUDY001,VS,STUDY001-SUBJ0004,45,HR,Heart Rate,76,beats/min,76,76.0,beats/min,,END OF TREATMENT,9,2025-07-20,140
STUDY001,VS,STUDY001-SUBJ0005,1,HEIGHT,Height,166.2,cm,166.2,166.2,cm,,SCREENING,1,2025-04-29,-14
STUDY001,VS,STUDY001-SUBJ0005,2,WEIGHT,Weight,114.7,kg,114.7,114.7,kg,,SCREENING,1,2025-04-29,-14
STUDY001,VS,STUDY001-SUBJ0005,3,TEMP,Temperature,37.0,C,37.0,37.0,C,,SCREENING,1,2025-04-29,-14
STUDY001,VS,STUDY001-SUBJ0005,4,BP,Blood Pressure,104/84,mmHg,104/84,,mmHg,,SCREENING,1,2025-04-29,-14
STUDY001,VS,STUDY001-SUBJ0005,5,HR,Heart Rate,74,beats/min,74,74.0,beats/min,,SCREENING,1,2025-04-29,-14
STUDY001,VS,STUDY001-SUBJ0005,6,HEIGHT,Height,166.0,cm,166.0,166.0,cm,Y,BASELINE,2,2025-05-13,1
STUDY001,VS,STUDY001-SUBJ0005,7,WEIGHT,Weight,114.2,kg,114.2,114.2,kg,Y,BASELINE,2,2025-05-13,1
STUDY001,VS,STUDY001-SUBJ0005,8,TEMP,Temperature,36.7,C,36.7,36.7,C,Y,BASELINE,2,2025-05-13,1
STUDY001,VS,STUDY001-SUBJ0005,9,BP,Blood Pressure,107/80,mmHg,107/80,,mmHg,Y,BASELINE,2,2025-05-13,1
STUDY001,VS,STUDY001-SUBJ0005,10,HR,Heart Rate,69,beats/min,69,69.0,beats/min,Y,BASELINE,2,2025-05-13,1
STUDY001,VS,STUDY001-SUBJ0005,11,HEIGHT,Height,166.2,cm,166.2,166.2,cm,,WEEK 1,3,2025-05-19,7
STUDY001,VS,STUDY001-SUBJ0005,12,WEIGHT,Weight,114.2,kg,114.2,114.2,kg,,WEEK 1,3,2025-05-19,7
STUDY001,VS,STUDY001-SUBJ0005,13,TEMP,Temperature,37.0,C,37.0,37.0,C,,WEEK 1,3,2025-05-19,7
STUDY001,VS,STUDY001-SUBJ0005,14,BP,Blood Pressure,104/79,mmHg,104/79,,mmHg,,WEEK 1,3,2025-05-19,7
STUDY001,VS,STUDY001-SUBJ0005,15,HR,Heart Rate,70,beats/min,70,70.0,beats/min,,WEEK 1,3,2025-05-19,7
STUDY001,VS,STUDY001-SUBJ0005,16,HEIGHT,Height,166.1,cm,166.1,166.1,cm,,WEEK 2,4,2025-05-26,14
STUDY001,VS,STUDY001-SUBJ0005,17,WEIGHT,Weight,115.3,kg,115.3,115.3,kg,,WEEK 2,4,2025-05-26,14
STUDY001,VS,STUDY001-SUBJ0005,18,TEMP,Temperature,37.1,C,37.1,37.1,C,,WEEK 2,4,2025-05-26,14
STUDY001,VS,STUDY001-SUBJ0005,19,BP,Blood Pressure,99/85,mmHg,99/85,,mmHg,,WEEK 2,4,2025-05-26,14
STUDY001,VS,STUDY001-SUBJ0005,20,HR,Heart Rate,78,beats/min,78,78.0,beats/min,,WEEK 2,4,2025-05-26,14
STUDY001,VS,STUDY001-SUBJ0005,21,HEIGHT,Height,166.3,cm,166.3,166.3,cm,,WEEK 4,5,2025-06-09,28
STUDY001,VS,STUDY001-SUBJ0005,22,WEIGHT,Weight,115.3,kg,115.3,115.3,kg,,WEEK 4,5,2025-06-09,28
STUDY001,VS,STUDY001-SUBJ0005,23,TEMP,Temperature,36.7,C,36.7,36.7,C,,WEEK 4,5,2025-06-09,28
STUDY001,VS,STUDY001-SUBJ0005,24,BP,Blood Pressure,101/81,mmHg,101/81,,mmHg,,WEEK 4,5,2025-06-09,28
STUDY001,VS,STUDY001-SUBJ0005,25,HR,Heart Rate,72,beats/min,72,72.0,beats/min,,WEEK 4,5,2025-06-09,28
STUDY001,VS,STUDY001-SUBJ0005,26,HEIGHT,Height,166.1,cm,166.1,166.1,cm,,WEEK 8,6,2025-07-07,56
STUDY001,VS,STUDY001-SUBJ0005,27,WEIGHT,Weight,115.4,kg,115.4,115.4,kg,,WEEK 8,6,2025-07-07,56
STUDY001,VS,STUDY001-SUBJ0005,28,TEMP,Temperature,36.9,C,36.9,36.9,C,,WEEK 8,6,2025-07-07,56
STUDY001,VS,STUDY001-SUBJ0005,29,BP,Blood Pressure,103/84,mmHg,103/84,,mmHg,,WEEK 8,6,2025-07-07,56
STUDY001,VS,STUDY001-SUBJ0005,30,HR,Heart Rate,70,beats/min,70,70.0,beats/min,,WEEK 8,6,2025-07-07,56
STUDY001,VS,STUDY001-SUBJ0005,31,HEIGHT,Height,166.3,cm,166.3,166.3,cm,,WEEK 12,7,2025-08-04,84
STUDY001,VS,STUDY001-SUBJ0005,32,WEIGHT,Weight,115.9,kg,115.9,115.9,kg,,WEEK 12,7,2025-08-04,84
STUDY001,VS,STUDY001-SUBJ0005,33,TEMP,Temperature,36.6,C,36.6,36.6,C,,WEEK 12,7,2025-08-04,84
STUDY001,VS,STUDY001-SUBJ0005,34,BP,Blood Pressure,104/86,mmHg,104/86,,mmHg,,WEEK 12,7,2025-08-04,84
STUDY001,VS,STUDY001-SUBJ0005,35,HR,Heart Rate,75,beats/min,75,75.0,beats/min,,WEEK 12,7,2025-08-04,84
STUDY001,VS,STUDY001-SUBJ0005,36,HEIGHT,Height,166.3,cm,166.3,166.3,cm,,WEEK 16,8,2025-09-01,112
STUDY001,VS,STUDY001-SUBJ0005,37,WEIGHT,Weight,114.7,kg,114.7,114.7,kg,,WEEK 16,8,2025-09-01,112
STUDY001,VS,STUDY001-SUBJ0005,38,TEMP,Temperature,36.9,C,36.9,36.9,C,,WEEK 16,8,2025-09-01,112
STUDY001,VS,STUDY001-SUBJ0005,39,BP,Blood Pressure,98/84,mmHg,98/84,,mmHg,,WEEK 16,8,2025-09-01,112
STUDY001,VS,STUDY001-SUBJ0005,40,HR,Heart Rate,71,beats/min,71,71.0,beats/min,,WEEK 16,8,2025-09-01,112
STUDY001,VS,STUDY001-SUBJ0005,41,HEIGHT,Height,166.4,cm,166.4,166.4,cm,,END OF TREATMENT,9,2025-09-29,140
STUDY001,VS,STUDY001-SUBJ0005,42,WEIGHT,Weight,114.6,kg,114.6,114.6,kg,,END OF TREATMENT,9,2025-09-29,140
STUDY001,VS,STUDY001-SUBJ0005,43,TEMP,Temperature,36.9,C,36.9,36.9,C,,END OF TREATMENT,9,2025-09-29,140
STUDY001,VS,STUDY001-SUBJ0005,44,BP,Blood Pressure,100/86,mmHg,100/86,,mmHg,,END OF TREATMENT,9,2025-09-29,140
STUDY001,VS,STUDY001-SUBJ0005,45,HR,Heart Rate,75,beats/min,75,75.0,beats/min,,END OF TREATMENT,9,2025-09-29,140
STUDY001,VS,STUDY001-SUBJ0006,1,HEIGHT,Height,182.5,cm,182.5,182.5,cm,,SCREENING,1,2025-02-12,-14
STUDY001,VS,STUDY001-SUBJ0006,2,WEIGHT,Weight,67.7,kg,67.7,67.7,kg,,SCREENING,1,2025-02-12,-14
STUDY001,VS,STUDY001-SUBJ0006,3,TEMP,Temperature,36.2,C,36.2,36.2,C,,SCREENING,1,2025-02-12,-14
STUDY001,VS,STUDY001-SUBJ0006,4,BP,Blood Pressure,109/76,mmHg,109/76,,mmHg,,SCREENING,1,2025-02-12,-14
STUDY001,VS,STUDY001-SUBJ0006,5,HR,Heart Rate,83,beats/min,83,83.0,beats/min,,SCREENING,1,2025-02-12,-14
STUDY001,VS,STUDY001-SUBJ0006,6,HEIGHT,Height,182.4,cm,182.4,182.4,cm,Y,BASELINE,2,2025-02-26,1
STUDY001,VS,STUDY001-SUBJ0006,7,WEIGHT,Weight,68.6,kg,68.6,68.6,kg,Y,BASELINE,2,2025-02-26,1
STUDY001,VS,STUDY001-SUBJ0006,8,TEMP,Temperature,36.4,C,36.4,36.4,C,Y,BASELINE,2,2025-02-26,1
STUDY001,VS,STUDY001-SUBJ0006,9,BP,Blood Pressure,107/70,mmHg,107/70,,mmHg,Y,BASELINE,2,2025-02-26,1
STUDY001,VS,STUDY001-SUBJ0006,10,HR,Heart Rate,86,beats/min,86,86.0,beats/min,Y,BASELINE,2,2025-02-26,1
STUDY001,VS,STUDY001-SUBJ0006,11,HEIGHT,Height,182.4,cm,182.4,182.4,cm,,WEEK 1,3,2025-03-04,7
STUDY001,VS,STUDY001-SUBJ0006,12,WEIGHT,Weight,68.4,kg,68.4,68.4,kg,,WEEK 1,3,2025-03-04,7
STUDY001,VS,STUDY001-SUBJ0006,13,TEMP,Temperature,36.2,C,36.2,36.2,C,,WEEK 1,3,2025-03-04,7
STUDY001,VS,STUDY001-SUBJ0006,14,BP,Blood Pressure,109/75,mmHg,109/75,,mmHg,,WEEK 1,3,2025-03-04,7
STUDY001,VS,STUDY001-SUBJ0006,15,HR,Heart Rate,90,beats/min,90,90.0,beats/min,,WEEK 1,3,2025-03-04,7
STUDY001,VS,STUDY001-SUBJ0006,16,HEIGHT,Height,182.6,cm,182.6,182.6,cm,,WEEK 2,4,2025-03-11,14
STUDY001,VS,STUDY001-SUBJ0006,17,WEIGHT,Weight,67.9,kg,67.9,67.9,kg,,WEEK 2,4,2025-03-11,14
STUDY001,VS,STUDY001-SUBJ0006,18,TEMP,Temperature,36.5,C,36.5,36.5,C,,WEEK 2,4,2025-03-11,14
STUDY001,VS,STUDY001-SUBJ0006,19,BP,Blood Pressure,115/72,mmHg,115/72,,mmHg,,WEEK 2,4,2025-03-11,14
STUDY001,VS,STUDY001-SUBJ0006,20,HR,Heart Rate,89,beats/min,89,89.0,beats/min,,WEEK 2,4,2025-03-11,14
STUDY001,VS,STUDY001-SUBJ0006,21,HEIGHT,Height,182.3,cm,182.3,182.3,cm,,WEEK 4,5,2025-03-25,28
STUDY001,VS,STUDY001-SUBJ0006,22,WEIGHT,Weight,67.9,kg,67.9,67.9,kg,,WEEK 4,5,2025-03-25,28
STUDY001,VS,STUDY001-SUBJ0006,23,TEMP,Temperature,36.3,C,36.3,36.3,C,,WEEK 4,5,2025-03-25,28
STUDY001,VS,STUDY001-SUBJ0006,24,BP,Blood Pressure,115/71,mmHg,115/71,,mmHg,,WEEK 4,5,2025-03-25,28
STUDY001,VS,STUDY001-SUBJ0006,25,HR,Heart Rate,85,beats/min,85,85.0,beats/min,,WEEK 4,5,2025-03-25,28
STUDY001,VS,STUDY001-SUBJ0006,26,HEIGHT,Height,182.6,cm,182.6,182.6,cm,,WEEK 8,6,2025-04-22,56
STUDY001,VS,STUDY001-SUBJ0006,27,WEIGHT,Weight,68.0,kg,68.0,68.0,kg,,WEEK 8,6,2025-04-22,56
STUDY001,VS,STUDY001-SUBJ0006,28,TEMP,Temperature,36.4,C,36.4,36.4,C,,WEEK 8,6,2025-04-22,56
STUDY001,VS,STUDY001-SUBJ0006,29,BP,Blood Pressure,106/72,mmHg,106/72,,mmHg,,WEEK 8,6,2025-04-22,56
STUDY001,VS,STUDY001-SUBJ0006,30,HR,Heart Rate,89,beats/min,89,89.0,beats/min,,WEEK 8,6,2025-04-22,56
STUDY001,VS,STUDY001-SUBJ0006,31,HEIGHT,Height,182.6,cm,182.6,182.6,cm,,WEEK 12,7,2025-05-20,84
STUDY001,VS,STUDY001-SUBJ0006,32,WEIGHT,Weight,68.5,kg,68.5,68.5,kg,,WEEK 12,7,2025-05-20,84
STUDY001,VS,STUDY001-SUBJ0006,33,TEMP,Temperature,36.4,C,36.4,36.4,C,,WEEK 12,7,2025-05-20,84
STUDY001,VS,STUDY001-SUBJ0006,34,BP,Blood Pressure,108/69,mmHg,108/69,,mmHg,,WEEK 12,7,2025-05-20,84
STUDY001,VS,STUDY001-SUBJ0006,35,HR,Heart Rate,82,beats/min,82,82.0,beats/min,,WEEK 12,7,2025-05-20,84
STUDY001,VS,STUDY001-SUBJ0006,36,HEIGHT,Height,182.7,cm,182.7,182.7,cm,,WEEK 16,8,2025-06-17,112
STUDY001,VS,STUDY001-SUBJ0006,37,WEIGHT,Weight,67.2,kg,67.2,67.2,kg,,WEEK 16,8,2025-06-17,112
STUDY001,VS,STUDY001-SUBJ0006,38,TEMP,Temperature,36.5,C,36.5,36.5,C,,WEEK 16,8,2025-06-17,112
STUDY001,VS,STUDY001-SUBJ0006,39,BP,Blood Pressure,108/75,mmHg,108/75,,mmHg,,WEEK 16,8,2025-06-17,112
STUDY001,VS,STUDY001-SUBJ0006,40,HR,Heart Rate,90,beats/min,90,90.0,beats/min,,WEEK 16,8,2025-06-17,112
STUDY001,VS,STUDY001-SUBJ0006,41,HEIGHT,Height,182.3,cm,182.3,182.3,cm,,END OF TREATMENT,9,2025-07-15,140
STUDY001,VS,STUDY001-SUBJ0006,42,WEIGHT,Weight,68.7,kg,68.7,68.7,kg,,END OF TREATMENT,9,2025-07-15,140
STUDY001,VS,STUDY001-SUBJ0006,43,TEMP,Temperature,36.5,C,36.5,36.5,C,,END OF TREATMENT,9,2025-07-15,140
STUDY001,VS,STUDY001-SUBJ0006,44,BP,Blood Pressure,107/72,mmHg,107/72,,mmHg,,END OF TREATMENT,9,2025-07-15,140
STUDY001,VS,STUDY001-SUBJ0006,45,HR,Heart Rate,82,beats/min,82,82.0,beats/min,,END OF TREATMENT,9,2025-07-15,140
STUDY001,VS,STUDY001-SUBJ0007,1,HEIGHT,Height,159.7,cm,159.7,159.7,cm,,SCREENING,1,2025-05-10,-14
STUDY001,VS,STUDY001-SUBJ0007,2,WEIGHT,Weight,110.4,kg,110.4,110.4,kg,,SCREENING,1,2025-05-10,-14
STUDY001,VS,STUDY001-SUBJ0007,3,TEMP,Temperature,36.3,C,36.3,36.3,C,,SCREENING,1,2025-05-10,-14
STUDY001,VS,STUDY001-SUBJ0007,4,BP,Blood Pressure,122/74,mmHg,122/74,,mmHg,,SCREENING,1,2025-05-10,-14
STUDY001,VS,STUDY001-SUBJ0007,5,HR,Heart Rate,75,beats/min,75,75.0,beats/min,,SCREENING,1,2025-05-10,-14
STUDY001,VS,STUDY001-SUBJ0007,6,HEIGHT,Height,159.8,cm,159.8,159.8,cm,Y,BASELINE,2,2025-05-24,1
STUDY001,VS,STUDY001-SUBJ0007,7,WEIGHT,Weight,110.4,kg,110.4,110.4,kg,Y,BASELINE,2,2025-05-24,1
STUDY001,VS,STUDY001-SUBJ0007,8,TEMP,Temperature,36.8,C,36.8,36.8,C,Y,BASELINE,2,2025-05-24,1
STUDY001,VS,STUDY001-SUBJ0007,9,BP,Blood Pressure,124/74,mmHg,124/74,,mmHg,Y,BASELINE,2,2025-05-24,1
STUDY001,VS,STUDY001-SUBJ0007,10,HR,Heart Rate,75,beats/min,75,75.0,beats/min,Y,BASELINE,2,2025-05-24,1
STUDY001,VS,STUDY001-SUBJ0007,11,HEIGHT,Height,159.7,cm,159.7,159.7,cm,,WEEK 1,3,2025-05-30,7
STUDY001,VS,STUDY001-SUBJ0007,12,WEIGHT,Weight,110.2,kg,110.2,110.2,kg,,WEEK 1,3,2025-05-30,7
STUDY001,VS,STUDY001-SUBJ0007,13,TEMP,Temperature,36.5,C,36.5,36.5,C,,WEEK 1,3,2025-05-30,7
STUDY001,VS,STUDY001-SUBJ0007,14,BP,Blood Pressure,124/72,mmHg,124/72,,mmHg,,WEEK 1,3,2025-05-30,7
STUDY001,VS,STUDY001-SUBJ0007,15,HR,Heart Rate,76,beats/min,76,76.0,beats/min,,WEEK 1,3,2025-05-30,7
STUDY001,VS,STUDY001-SUBJ0007,16,HEIGHT,Height,159.5,cm,159.5,159.5,cm,,WEEK 2,4,2025-06-06,14
STUDY001,VS,STUDY001-SUBJ0007,17,WEIGHT,Weight,111.0,kg,111.0,111.0,kg,,WEEK 2,4,2025-06-06,14
STUDY001,VS,STUDY001-SUBJ0007,18,TEMP,Temperature,36.3,C,36.3,36.3,C,,WEEK 2,4,2025-06-06,14
STUDY001,VS,STUDY001-SUBJ0007,19,BP,Blood Pressure,128/77,mmHg,128/77,,mmHg,,WEEK 2,4,2025-06-06,14
STUDY001,VS,STUDY001-SUBJ0007,20,HR,Heart Rate,73,beats/min,73,73.0,beats/min,,WEEK 2,4,2025-06-06,14
STUDY001,VS,STUDY001-SUBJ0007,21,HEIGHT,Height,159.5,cm,159.5,159.5,cm,,WEEK 4,5,2025-06-20,28
STUDY001,VS,STUDY001-SUBJ0007,22,WEIGHT,Weight,110.6,kg,110.6,110.6,kg,,WEEK 4,5,2025-06-20,28
STUDY001,VS,STUDY001-SUBJ0007,23,TEMP,Temperature,36.5,C,36.5,36.5,C,,WEEK 4,5,2025-06-20,28
STUDY001,VS,STUDY001-SUBJ0007,24,BP,Blood Pressure,123/71,mmHg,123/71,,mmHg,,WEEK 4,5,2025-06-20,28
STUDY001,VS,STUDY001-SUBJ0007,25,HR,Heart Rate,70,beats/min,70,70.0,beats/min,,WEEK 4,5,2025-06-20,28
STUDY001,VS,STUDY001-SUBJ0007,26,HEIGHT,Height,159.8,cm,159.8,159.8,cm,,WEEK 8,6,2025-07-18,56
STUDY001,VS,STUDY001-SUBJ0007,27,WEIGHT,Weight,109.6,kg,109.6,109.6,kg,,WEEK 8,6,2025-07-18,56
STUDY001,VS,STUDY001-SUBJ0007,28,TEMP,Temperature,36.4,C,36.4,36.4,C,,WEEK 8,6,2025-07-18,56
STUDY001,VS,STUDY001-SUBJ0007,29,BP,Blood Pressure,128/69,mmHg,128/69,,mmHg,,WEEK 8,6,2025-07-18,56
STUDY001,VS,STUDY001-SUBJ0007,30,HR,Heart Rate,73,beats/min,73,73.0,beats/min,,WEEK 8,6,2025-07-18,56
STUDY001,VS,STUDY001-SUBJ0007,31,HEIGHT,Height,159.7,cm,159.7,159.7,cm,,WEEK 12,7,2025-08-15,84
STUDY001,VS,STUDY001-SUBJ0007,32,WEIGHT,Weight,110.9,kg,110.9,110.9,kg,,WEEK 12,7,2025-08-15,84
STUDY001,VS,STUDY001-SUBJ0007,33,TEMP,Temperature,36.7,C,36.7,36.7,C,,WEEK 12,7,2025-08-15,84
STUDY001,VS,STUDY001-SUBJ0007,34,BP,Blood Pressure,122/73,mmHg,122/73,,mmHg,,WEEK 12,7,2025-08-15,84
STUDY001,VS,STUDY001-SUBJ0007,35,HR,Heart Rate,78,beats/min,78,78.0,beats/min,,WEEK 12,7,2025-08-15,84
STUDY001,VS,STUDY001-SUBJ0007,36,HEIGHT,Height,159.5,cm,159.5,159.5,cm,,WEEK 16,8,2025-09-12,112
STUDY001,VS,STUDY001-SUBJ0007,37,WEIGHT,Weight,110.0,kg,110.0,110.0,kg,,WEEK 16,8,2025-09-12,112
STUDY001,VS,STUDY001-SUBJ0007,38,TEMP,Temperature,36.3,C,36.3,36.3,C,,WEEK 16,8,2025-09-12,112
STUDY001,VS,STUDY001-SUBJ0007,39,BP,Blood Pressure,123/76,mmHg,123/76,,mmHg,,WEEK 16,8,2025-09-12,112
STUDY001,VS,STUDY001-SUBJ0007,40,HR,Heart Rate,73,beats/min,73,73.0,beats/min,,WEEK 16,8,2025-09-12,112
STUDY001,VS,STUDY001-SUBJ0007,41,HEIGHT,Height,159.7,cm,159.7,159.7,cm,,END OF TREATMENT,9,2025-10-10,140
STUDY001,VS,STUDY001-SUBJ0007,42,WEIGHT,Weight,110.9,kg,110.9,110.9,kg,,END OF TREATMENT,9,2025-10-10,140
STUDY001,VS,STUDY001-SUBJ0007,43,TEMP,Temperature,36.6,C,36.6,36.6,C,,END OF TREATMENT,9,2025-10-10,140
STUDY001,VS,STUDY001-SUBJ0007,44,BP,Blood Pressure,124/77,mmHg,124/77,,mmHg,,END OF TREATMENT,9,2025-10-10,140
STUDY001,VS,STUDY001-SUBJ0007,45,HR,Heart Rate,72,beats/min,72,72.0,beats/min,,END OF TREATMENT,9,2025-10-10,140
STUDY001,VS,STUDY001-SUBJ0008,1,HEIGHT,Height,163.0,cm,163.0,163.0,cm,,SCREENING,1,2025-03-04,-14
STUDY001,VS,STUDY001-SUBJ0008,2,WEIGHT,Weight,73.6,kg,73.6,73.6,kg,,SCREENING,1,2025-03-04,-14
STUDY001,VS,STUDY001-SUBJ0008,3,TEMP,Temperature,36.6,C,36.6,36.6,C,,SCREENING,1,2025-03-04,-14
STUDY001,VS,STUDY001-SUBJ0008,4,BP,Blood Pressure,112/83,mmHg,112/83,,mmHg,,SCREENING,1,2025-03-04,-14
STUDY001,VS,STUDY001-SUBJ0008,5,HR,Heart Rate,90,beats/min,90,90.0,beats/min,,SCREENING,1,2025-03-04,-14
STUDY001,VS,STUDY001-SUBJ0008,6,HEIGHT,Height,163.0,cm,163.0,163.0,cm,Y,BASELINE,2,2025-03-18,1
STUDY001,VS,STUDY001-SUBJ0008,7,WEIGHT,Weight,73.6,kg,73.6,73.6,kg,Y,BASELINE,2,2025-03-18,1
STUDY001,VS,STUDY001-SUBJ0008,8,TEMP,Temperature,36.6,C,36.6,36.6,C,Y,BASELINE,2,2025-03-18,1
STUDY001,VS,STUDY001-SUBJ0008,9,BP,Blood Pressure,110/88,mmHg,110/88,,mmHg,Y,BASELINE,2,2025-03-18,1
STUDY001,VS,STUDY001-SUBJ0008,10,HR,Heart Rate,87,beats/min,87,87.0,beats/min,Y,BASELINE,2,2025-03-18,1
STUDY001,VS,STUDY001-SUBJ0008,11,HEIGHT,Height,163.0,cm,163.0,163.0,cm,,WEEK 1,3,2025-03-24,7
STUDY001,VS,STUDY001-SUBJ0008,12,WEIGHT,Weight,73.0,kg,73.0,73.0,kg,,WEEK 1,3,2025-03-24,7
STUDY001,VS,STUDY001-SUBJ0008,13,TEMP,Temperature,36.6,C,36.6,36.6,C,,WEEK 1,3,2025-03-24,7
STUDY001,VS,STUDY001-SUBJ0008,14,BP,Blood Pressure,111/89,mmHg,111/89,,mmHg,,WEEK 1,3,2025-03-24,7
STUDY001,VS,STUDY001-SUBJ0008,15,HR,Heart Rate,90,beats/min,90,90.0,beats/min,,WEEK 1,3,2025-03-24,7
STUDY001,VS,STUDY001-SUBJ0008,16,HEIGHT,Height,163.1,cm,163.1,163.1,cm,,WEEK 2,4,2025-03-31,14
STUDY001,VS,STUDY001-SUBJ0008,17,WEIGHT,Weight,73.8,kg,73.8,73.8,kg,,WEEK 2,4,2025-03-31,14
STUDY001,VS,STUDY001-SUBJ0008,18,TEMP,Temperature,36.1,C,36.1,36.1,C,,WEEK 2,4,2025-03-31,14
STUDY001,VS,STUDY001-SUBJ0008,19,BP,Blood Pressure,112/89,mmHg,112/89,,mmHg,,WEEK 2,4,2025-03-31,14
STUDY001,VS,STUDY001-SUBJ0008,20,HR,Heart Rate,91,beats/min,91,91.0,beats/min,,WEEK 2,4,2025-03-31,14
STUDY001,VS,STUDY001-SUBJ0008,21,HEIGHT,Height,162.8,cm,162.8,162.8,cm,,WEEK 4,5,2025-04-14,28
STUDY001,VS,STUDY001-SUBJ0008,22,WEIGHT,Weight,72.9,kg,72.9,72.9,kg,,WEEK 4,5,2025-04-14,28
STUDY001,VS,STUDY001-SUBJ0008,23,TEMP,Temperature,36.2,C,36.2,36.2,C,,WEEK 4,5,2025-04-14,28
STUDY001,VS,STUDY001-SUBJ0008,24,BP,Blood Pressure,112/86,mmHg,112/86,,mmHg,,WEEK 4,5,2025-04-14,28
STUDY001,VS,STUDY001-SUBJ0008,25,HR,Heart Rate,90,beats/min,90,90.0,beats/min,,WEEK 4,5,2025-04-14,28
STUDY001,VS,STUDY001-SUBJ0008,26,HEIGHT,Height,163.0,cm,163.0,163.0,cm,,WEEK 8,6,2025-05-12,56
STUDY001,VS,STUDY001-SUBJ0008,27,WEIGHT,Weight,74.7,kg,74.7,74.7,kg,,WEEK 8,6,2025-05-12,56
STUDY001,VS,STUDY001-SUBJ0008,28,TEMP,Temperature,36.3,C,36.3,36.3,C,,WEEK 8,6,2025-05-12,56
STUDY001,VS,STUDY001-SUBJ0008,29,BP,Blood Pressure,110/89,mmHg,110/89,,mmHg,,WEEK 8,6,2025-05-12,56
STUDY001,VS,STUDY001-SUBJ0008,30,HR,Heart Rate,92,beats/min,92,92.0,beats/min,,WEEK 8,6,2025-05-12,56
STUDY001,VS,STUDY001-SUBJ0008,31,HEIGHT,Height,162.9,cm,162.9,162.9,cm,,WEEK 12,7,2025-06-09,84
STUDY001,VS,STUDY001-SUBJ0008,32,WEIGHT,Weight,74.2,kg,74.2,74.2,kg,,WEEK 12,7,2025-06-09,84
STUDY001,VS,STUDY001-SUBJ0008,33,TEMP,Temperature,36.6,C,36.6,36.6,C,,WEEK 12,7,2025-06-09,84
STUDY001,VS,STUDY001-SUBJ0008,34,BP,Blood Pressure,116/91,mmHg,116/91,,mmHg,,WEEK 12,7,2025-06-09,84
STUDY001,VS,STUDY001-SUBJ0008,35,HR,Heart Rate,93,beats/min,93,93.0,beats/min,,WEEK 12,7,2025-06-09,84
STUDY001,VS,STUDY001-SUBJ0008,36,HEIGHT,Height,163.0,cm,163.0,163.0,cm,,WEEK 16,8,2025-07-07,112
STUDY001,VS,STUDY001-SUBJ0008,37,WEIGHT,Weight,73.9,kg,73.9,73.9,kg,,WEEK 16,8,2025-07-07,112
STUDY001,VS,STUDY001-SUBJ0008,38,TEMP,Temperature,36.1,C,36.1,36.1,C,,WEEK 16,8,2025-07-07,112
STUDY001,VS,STUDY001-SUBJ0008,39,BP,Blood Pressure,116/85,mmHg,116/85,,mmHg,,WEEK 16,8,2025-07-07,112
STUDY001,VS,STUDY001-SUBJ0008,40,HR,Heart Rate,93,beats/min,93,93.0,beats/min,,WEEK 16,8,2025-07-07,112
STUDY001,VS,STUDY001-SUBJ0008,41,HEIGHT,Height,163.0,cm,163.0,163.0,cm,,END OF TREATMENT,9,2025-08-04,140
STUDY001,VS,STUDY001-SUBJ0008,42,WEIGHT,Weight,74.1,kg,74.1,74.1,kg,,END OF TREATMENT,9,2025-08-04,140
STUDY001,VS,STUDY001-SUBJ0008,43,TEMP,Temperature,36.6,C,36.6,36.6,C,,END OF TREATMENT,9,2025-08-04,140
STUDY001,VS,STUDY001-SUBJ0008,44,BP,Blood Pressure,110/86,mmHg,110/86,,mmHg,,END OF TREATMENT,9,2025-08-04,140
STUDY001,VS,STUDY001-SUBJ0008,45,HR,Heart Rate,93,beats/min,93,93.0,beats/min,,END OF TREATMENT,9,2025-08-04,140
STUDY001,VS,STUDY001-SUBJ0009,1,HEIGHT,Height,152.5,cm,152.5,152.5,cm,,SCREENING,1,2025-03-15,-14
STUDY001,VS,STUDY001-SUBJ0009,2,WEIGHT,Weight,54.7,kg,54.7,54.7,kg,,SCREENING,1,2025-03-15,-14
STUDY001,VS,STUDY001-SUBJ0009,3,TEMP,Temperature,36.6,C,36.6,36.6,C,,SCREENING,1,2025-03-15,-14
STUDY001,VS,STUDY001-SUBJ0009,4,BP,Blood Pressure,133/96,mmHg,133/96,,mmHg,,SCREENING,1,2025-03-15,-14
STUDY001,VS,STUDY001-SUBJ0009,5,HR,Heart Rate,78,beats/min,78,78.0,beats/min,,SCREENING,1,2025-03-15,-14
STUDY001,VS,STUDY001-SUBJ0009,6,HEIGHT,Height,152.3,cm,152.3,152.3,cm,Y,BASELINE,2,2025-03-29,1
STUDY001,VS,STUDY001-SUBJ0009,7,WEIGHT,Weight,54.5,kg,54.5,54.5,kg,Y,BASELINE,2,2025-03-29,1
STUDY001,VS,STUDY001-SUBJ0009,8,TEMP,Temperature,36.7,C,36.7,36.7,C,Y,BASELINE,2,2025-03-29,1
STUDY001,VS,STUDY001-SUBJ0009,9,BP,Blood Pressure,133/98,mmHg,133/98,,mmHg,Y,BASELINE,2,2025-03-29,1
STUDY001,VS,STUDY001-SUBJ0009,10,HR,Heart Rate,84,beats/min,84,84.0,beats/min,Y,BASELINE,2,2025-03-29,1
STUDY001,VS,STUDY001-SUBJ0009,11,HEIGHT,Height,152.4,cm,152.4,152.4,cm,,WEEK 1,3,2025-04-04,7
STUDY001,VS,STUDY001-SUBJ0009,12,WEIGHT,Weight,53.6,kg,53.6,53.6,kg,,WEEK 1,3,2025-04-04,7
STUDY001,VS,STUDY001-SUBJ0009,13,TEMP,Temperature,36.8,C,36.8,36.8,C,,WEEK 1,3,2025-04-04,7
STUDY001,VS,STUDY001-SUBJ0009,14,BP,Blood Pressure,127/95,mmHg,127/95,,mmHg,,WEEK 1,3,2025-04-04,7
STUDY001,VS,STUDY001-SUBJ0009,15,HR,Heart Rate,78,beats/min,78,78.0,beats/min,,WEEK 1,3,2025-04-04,7
STUDY001,VS,STUDY001-SUBJ0009,16,HEIGHT,Height,152.5,cm,152.5,152.5,cm,,WEEK 2,4,2025-04-11,14
STUDY001,VS,STUDY001-SUBJ0009,17,WEIGHT,Weight,53.8,kg,53.8,53.8,kg,,WEEK 2,4,2025-04-11,14
STUDY001,VS,STUDY001-SUBJ0009,18,TEMP,Temperature,37.2,C,37.2,37.2,C,,WEEK 2,4,2025-04-11,14
STUDY001,VS,STUDY001-SUBJ0009,19,BP,Blood Pressure,127/100,mmHg,127/100,,mmHg,,WEEK 2,4,2025-04-11,14
STUDY001,VS,STUDY001-SUBJ0009,20,HR,Heart Rate,82,beats/min,82,82.0,beats/min,,WEEK 2,4,2025-04-11,14
STUDY001,VS,STUDY001-SUBJ0009,21,HEIGHT,Height,152.6,cm,152.6,152.6,cm,,WEEK 4,5,2025-04-25,28
STUDY001,VS,STUDY001-SUBJ0009,22,WEIGHT,Weight,54.6,kg,54.6,54.6,kg,,WEEK 4,5,2025-04-25,28
STUDY001,VS,STUDY001-SUBJ0009,23,TEMP,Temperature,36.9,C,36.9,36.9,C,,WEEK 4,5,2025-04-25,28
STUDY001,VS,STUDY001-SUBJ0009,24,BP,Blood Pressure,134/95,mmHg,134/95,,mmHg,,WEEK 4,5,2025-04-25,28
STUDY001,VS,STUDY001-SUBJ0009,25,HR,Heart Rate,78,beats/min,78,78.0,beats/min,,WEEK 4,5,2025-04-25,28
STUDY001,VS,STUDY001-SUBJ0009,26,HEIGHT,Height,152.3,cm,152.3,152.3,cm,,WEEK 8,6,2025-05-23,56
STUDY001,VS,STUDY001-SUBJ0009,27,WEIGHT,Weight,53.1,kg,53.1,53.1,kg,,WEEK 8,6,2025-05-23,56
STUDY001,VS,STUDY001-SUBJ0009,28,TEMP,Temperature,37.0,C,37.0,37.0,C,,WEEK 8,6,2025-05-23,56
STUDY001,VS,STUDY001-SUBJ0009,29,BP,Blood Pressure,128/97,mmHg,128/97,,mmHg,,WEEK 8,6,2025-05-23,56
STUDY001,VS,STUDY001-SUBJ0009,30,HR,Heart Rate,82,beats/min,82,82.0,beats/min,,WEEK 8,6,2025-05-23,56
STUDY001,VS,STUDY001-SUBJ0009,31,HEIGHT,Height,152.4,cm,152.4,152.4,cm,,WEEK 12,7,2025-06-20,84
STUDY001,VS,STUDY001-SUBJ0009,32,WEIGHT,Weight,53.7,kg,53.7,53.7,kg,,WEEK 12,7,2025-06-20,84
STUDY001,VS,STUDY001-SUBJ0009,33,TEMP,Temperature,36.6,C,36.6,36.6,C,,WEEK 12,7,2025-06-20,84
STUDY001,VS,STUDY001-SUBJ0009,34,BP,Blood Pressure,129/101,mmHg,129/101,,mmHg,,WEEK 12,7,2025-06-20,84
STUDY001,VS,STUDY001-SUBJ0009,35,HR,Heart Rate,86,beats/min,86,86.0,beats/min,,WEEK 12,7,2025-06-20,84
STUDY001,VS,STUDY001-SUBJ0009,36,HEIGHT,Height,152.6,cm,152.6,152.6,cm,,WEEK 16,8,2025-07-18,112
STUDY001,VS,STUDY001-SUBJ0009,37,WEIGHT,Weight,54.0,kg,54.0,54.0,kg,,WEEK 16,8,2025-07-18,112
STUDY001,VS,STUDY001-SUBJ0009,38,TEMP,Temperature,36.7,C,36.7,36.7,C,,WEEK 16,8,2025-07-18,112
STUDY001,VS,STUDY001-SUBJ0009,39,BP,Blood Pressure,134/100,mmHg,134/100,,mmHg,,WEEK 16,8,2025-07-18,112
STUDY001,VS,STUDY001-SUBJ0009,40,HR,Heart Rate,79,beats/min,79,79.0,beats/min,,WEEK 16,8,2025-07-18,112
STUDY001,VS,STUDY001-SUBJ0009,41,HEIGHT,Height,152.4,cm,152.4,152.4,cm,,END OF TREATMENT,9,2025-08-15,140
STUDY001,VS,STUDY001-SUBJ0009,42,WEIGHT,Weight,52.9,kg,52.9,52.9,kg,,END OF TREATMENT,9,2025-08-15,140
STUDY001,VS,STUDY001-SUBJ0009,43,TEMP,Temperature,36.9,C,36.9,36.9,C,,END OF TREATMENT,9,2025-08-15,140
STUDY001,VS,STUDY001-SUBJ0009,44,BP,Blood Pressure,128/100,mmHg,128/100,,mmHg,,END OF TREATMENT,9,2025-08-15,140
STUDY001,VS,STUDY001-SUBJ0009,45,HR,Heart Rate,81,beats/min,81,81.0,beats/min,,END OF TREATMENT,9,2025-08-15,140
STUDY001,VS,STUDY001-SUBJ0010,1,HEIGHT,Height,164.9,cm,164.9,164.9,cm,,SCREENING,1,2025-01-29,-14
STUDY001,VS,STUDY001-SUBJ0010,2,WEIGHT,Weight,106.9,kg,106.9,106.9,kg,,SCREENING,1,2025-01-29,-14
STUDY001,VS,STUDY001-SUBJ0010,3,TEMP,Temperature,36.4,C,36.4,36.4,C,,SCREENING,1,2025-01-29,-14
STUDY001,VS,STUDY001-SUBJ0010,4,BP,Blood Pressure,140/74,mmHg,140/74,,mmHg,,SCREENING,1,2025-01-29,-14
STUDY001,VS,STUDY001-SUBJ0010,5,HR,Heart Rate,77,beats/min,77,77.0,beats/min,,SCREENING,1,2025-01-29,-14
STUDY001,VS,STUDY001-SUBJ0010,6,HEIGHT,Height,165.1,cm,165.1,165.1,cm,Y,BASELINE,2,2025-02-12,1
STUDY001,VS,STUDY001-SUBJ0010,7,WEIGHT,Weight,107.4,kg,107.4,107.4,kg,Y,BASELINE,2,2025-02-12,1
STUDY001,VS,STUDY001-SUBJ0010,8,TEMP,Temperature,36.5,C,36.5,36.5,C,Y,BASELINE,2,2025-02-12,1
STUDY001,VS,STUDY001-SUBJ0010,9,BP,Blood Pressure,142/66,mmHg,142/66,,mmHg,Y,BASELINE,2,2025-02-12,1
STUDY001,VS,STUDY001-SUBJ0010,10,HR,Heart Rate,78,beats/min,78,78.0,beats/min,Y,BASELINE,2,2025-02-12,1
STUDY001,VS,STUDY001-SUBJ0010,11,HEIGHT,Height,164.9,cm,164.9,164.9,cm,,WEEK 1,3,2025-02-18,7
STUDY001,VS,STUDY001-SUBJ0010,12,WEIGHT,Weight,106.7,kg,106.7,106.7,kg,,WEEK 1,3,2025-02-18,7
STUDY001,VS,STUDY001-SUBJ0010,13,TEMP,Temperature,36.6,C,36.6,36.6,C,,WEEK 1,3,2025-02-18,7
STUDY001,VS,STUDY001-SUBJ0010,14,BP,Blood Pressure,141/70,mmHg,141/70,,mmHg,,WEEK 1,3,2025-02-18,7
STUDY001,VS,STUDY001-SUBJ0010,15,HR,Heart Rate,78,beats/min,78,78.0,beats/min,,WEEK 1,3,2025-02-18,7
STUDY001,VS,STUDY001-SUBJ0010,16,HEIGHT,Height,164.8,cm,164.8,164.8,cm,,WEEK 2,4,2025-02-25,14
STUDY001,VS,STUDY001-SUBJ0010,17,WEIGHT,Weight,106.4,kg,106.4,106.4,kg,,WEEK 2,4,2025-02-25,14
STUDY001,VS,STUDY001-SUBJ0010,18,TEMP,Temperature,36.6,C,36.6,36.6,C,,WEEK 2,4,2025-02-25,14
STUDY001,VS,STUDY001-SUBJ0010,19,BP,Blood Pressure,135/72,mmHg,135/72,,mmHg,,WEEK 2,4,2025-02-25,14
STUDY001,VS,STUDY001-SUBJ0010,20,HR,Heart Rate,77,beats/min,77,77.0,beats/min,,WEEK 2,4,2025-02-25,14
STUDY001,VS,STUDY001-SUBJ0010,21,HEIGHT,Height,165.1,cm,165.1,165.1,cm,,WEEK 4,5,2025-03-11,28
STUDY001,VS,STUDY001-SUBJ0010,22,WEIGHT,Weight,107.6,kg,107.6,107.6,kg,,WEEK 4,5,2025-03-11,28
STUDY001,VS,STUDY001-SUBJ0010,23,TEMP,Temperature,36.4,C,36.4,36.4,C,,WEEK 4,5,2025-03-11,28
STUDY001,VS,STUDY001-SUBJ0010,24,BP,Blood Pressure,136/68,mmHg,136/68,,mmHg,,WEEK 4,5,2025-03-11,28
STUDY001,VS,STUDY001-SUBJ0010,25,HR,Heart Rate,78,beats/min,78,78.0,beats/min,,WEEK 4,5,2025-03-11,28
STUDY001,VS,STUDY001-SUBJ0010,26,HEIGHT,Height,164.9,cm,164.9,164.9,cm,,WEEK 8,6,2025-04-08,56
STUDY001,VS,STUDY001-SUBJ0010,27,WEIGHT,Weight,107.1,kg,107.1,107.1,kg,,WEEK 8,6,2025-04-08,56
STUDY001,VS,STUDY001-SUBJ0010,28,TEMP,Temperature,36.7,C,36.7,36.7,C,,WEEK 8,6,2025-04-08,56
STUDY001,VS,STUDY001-SUBJ0010,29,BP,Blood Pressure,145/75,mmHg,145/75,,mmHg,,WEEK 8,6,2025-04-08,56
STUDY001,VS,STUDY001-SUBJ0010,30,HR,Heart Rate,77,beats/min,77,77.0,beats/min,,WEEK 8,6,2025-04-08,56
STUDY001,VS,STUDY001-SUBJ0010,31,HEIGHT,Height,165.0,cm,165.0,165.0,cm,,WEEK 12,7,2025-05-06,84
STUDY001,VS,STUDY001-SUBJ0010,32,WEIGHT,Weight,108.0,kg,108.0,108.0,kg,,WEEK 12,7,2025-05-06,84
STUDY001,VS,STUDY001-SUBJ0010,33,TEMP,Temperature,36.8,C,36.8,36.8,C,,WEEK 12,7,2025-05-06,84
STUDY001,VS,STUDY001-SUBJ0010,34,BP,Blood Pressure,143/74,mmHg,143/74,,mmHg,,WEEK 12,7,2025-05-06,84
STUDY001,VS,STUDY001-SUBJ0010,35,HR,Heart Rate,72,beats/min,72,72.0,beats/min,,WEEK 12,7,2025-05-06,84
STUDY001,VS,STUDY001-SUBJ0010,36,HEIGHT,Height,164.8,cm,164.8,164.8,cm,,WEEK 16,8,2025-06-03,112
STUDY001,VS,STUDY001-SUBJ0010,37,WEIGHT,Weight,106.9,kg,106.9,106.9,kg,,WEEK 16,8,2025-06-03,112
STUDY001,VS,STUDY001-SUBJ0010,38,TEMP,Temperature,36.4,C,36.4,36.4,C,,WEEK 16,8,2025-06-03,112
STUDY001,VS,STUDY001-SUBJ0010,39,BP,Blood Pressure,143/73,mmHg,143/73,,mmHg,,WEEK 16,8,2025-06-03,112
STUDY001,VS,STUDY001-SUBJ0010,40,HR,Heart Rate,78,beats/min,78,78.0,beats/min,,WEEK 16,8,2025-06-03,112
STUDY001,VS,STUDY001-SUBJ0010,41,HEIGHT,Height,165.0,cm,165.0,165.0,cm,,END OF TREATMENT,9,2025-07-01,140
STUDY001,VS,STUDY001-SUBJ0010,42,WEIGHT,Weight,107.2,kg,107.2,107.2,kg,,END OF TREATMENT,9,2025-07-01,140
STUDY001,VS,STUDY001-SUBJ0010,43,TEMP,Temperature,36.6,C,36.6,36.6,C,,END OF TREATMENT,9,2025-07-01,140
STUDY001,VS,STUDY001-SUBJ0010,44,BP,Blood Pressure,139/74,mmHg,139/74,,mmHg,,END OF TREATMENT,9,2025-07-01,140
STUDY001,VS,STUDY001-SUBJ0010,45,HR,Heart Rate,81,beats/min,81,81.0,beats/min,,END OF TREATMENT,9,2025-07-01,140
