STUDYID,DOMAIN,USUBJID,SUBJID,RFSTDTC,RFENDTC,RFXSTDTC,RFXENDTC,RFICDTC,RFPENDTC,DTHDTC,DTHFL,SITEID,AGE,AGEU,SEX,RACE,ETHNIC,ARMCD,ARM,ACTARMCD,ACTARM,COUNTRY,DMDTC,DMDY
STUDY001,DM,STUDY001-SUBJ0001,SUBJ0001,2025-04-24,2025-08-10,2024-11-11,2025-08-18,2025-03-28,2025-08-10,,,42,55,YEARS,F,ASIAN,HISPANIC OR LATINO,ARM1,Treatment 1,ARM1,Treatment 1,RS,2025-07-20,13
STUDY001,DM,STUDY001-SUBJ0002,SUBJ0002,2025-06-01,2025-07-29,2024-10-03,2025-08-09,2025-04-23,2025-07-29,,,30,23,YEARS,F,WHITE,NOT HISPANIC OR LATINO,ARM2,Treatment 2,ARM2,Treatment 2,BA,2025-03-21,20
STUDY001,DM,STUDY001-SUBJ0003,SUBJ0003,2025-02-28,2025-07-28,2024-12-21,2025-08-13,2025-03-18,2025-07-28,,,13,32,YEARS,F,ASIAN,NOT HISPANIC OR LATINO,ARM3,Treatment 1,ARM3,Treatment 1,SK,2024-11-18,22
STUDY001,DM,STUDY001-SUBJ0004,SUBJ0004,2025-03-09,2025-07-31,2024-11-09,2025-07-31,2025-03-05,2025-07-31,,,45,36,YEARS,M,BLACK OR AFRICAN AMERICAN,HISPANIC OR LATINO,ARM1,Treatment 2,ARM1,Treatment 2,BO,2025-03-11,19
STUDY001,DM,STUDY001-SUBJ0005,SUBJ0005,2025-06-24,2025-08-05,2024-09-30,2025-07-24,2025-03-16,2025-08-05,,,28,26,YEARS,F,AMERICAN INDIAN OR ALASKA NATIVE,HISPANIC OR LATINO,ARM2,Treatment 3,ARM2,Treatment 3,PH,2025-07-11,25
STUDY001,DM,STUDY001-SUBJ0006,SUBJ0006,2025-07-01,2025-08-01,2024-11-08,2025-08-02,2024-11-06,2025-08-01,,,36,78,YEARS,F,OTHER,NOT HISPANIC OR LATINO,ARM3,Treatment 3,ARM3,Treatment 3,HU,2024-12-31,13
STUDY001,DM,STUDY001-SUBJ0007,SUBJ0007,2025-06-08,2025-07-30,2025-05-31,2025-08-05,2025-03-25,2025-07-30,,,27,45,YEARS,F,BLACK OR AFRICAN AMERICAN,NOT HISPANIC OR LATINO,ARM1,Treatment 3,ARM1,Treatment 3,NR,2024-12-05,24
STUDY001,DM,STUDY001-SUBJ0008,SUBJ0008,2024-08-24,2025-07-25,2025-06-12,2025-08-02,2025-01-16,2025-07-25,,,2,40,YEARS,M,AMERICAN INDIAN OR ALASKA NATIVE,NOT HISPANIC OR LATINO,ARM2,Treatment 2,ARM2,Treatment 2,FM,2025-04-19,20
STUDY001,DM,STUDY001-SUBJ0009,SUBJ0009,2025-07-10,2025-08-18,2025-07-06,2025-08-10,2025-04-23,2025-08-18,,,50,69,YEARS,F,ASIAN,NOT HISPANIC OR LATINO,ARM3,Treatment 1,ARM3,Treatment 1,CH,2025-06-15,13
STUDY001,DM,STUDY001-SUBJ0010,SUBJ0010,2025-05-09,2025-08-01,2024-10-12,2025-08-18,2024-10-05,2025-08-01,,,35,80,YEARS,M,BLACK OR AFRICAN AMERICAN,HISPANIC OR LATINO,ARM1,Treatment 1,ARM1,Treatment 1,CO,2024-10-31,29
