STUDYID,DOMAIN,USUBJID,LBSEQ,LBREFID,LBTESTCD,LBTEST,LBCAT,LBORRES,LBORRESU,LBORNRLO,LBORNRHI,LBSTRESC,LBSTRESN,LBSTRESU,LBSTNRLO,LBSTNRHI,LBNRIND,LBBLFL,VISIT,VISITNUM,LBDTC,LBDY
STUDY001,LB,STUDY001-SUBJ0001,1,L00001,HGB,Hemoglobin,HEMATOLOGY,14.13,g/dL,13.5,17.5,14.13,14.13,g/dL,13.5,17.5,NORMAL,,SCREENING,1,2025-05-02,-14
STUDY001,LB,STUDY001-SUBJ0001,2,L00002,HCT,Hematocrit,HEMATOLOGY,40.25,%,41.0,51.0,40.25,40.25,%,41.0,51.0,LOW,,SCREENING,1,2025-05-02,-14
STUDY001,LB,STUDY001-SUBJ0001,3,L00003,WBC,White Blood Cell Count,HEMATOLOGY,5.13,10^9/L,4.5,11.0,5.13,5.13,10^9/L,4.5,11.0,NORMAL,,SCREENING,1,2025-05-02,-14
STUDY001,LB,STUDY001-SUBJ0001,4,L00004,PLT,Platelet Count,HEMATOLOGY,171.46,10^9/L,150.0,450.0,171.46,171.46,10^9/L,150.0,450.0,NORMAL,,SCREENING,1,2025-05-02,-14
STUDY001,LB,STUDY001-SUBJ0001,5,L00005,GLUC,Glucose,CHEMISTRY,88.93,mg/dL,70.0,100.0,88.93,88.93,mg/dL,70.0,100.0,NORMAL,,SCREENING,1,2025-05-02,-14
STUDY001,LB,STUDY001-SUBJ0001,6,L00006,BUN,Blood Urea Nitrogen,CHEMISTRY,10.53,mg/dL,7.0,20.0,10.53,10.53,mg/dL,7.0,20.0,NORMAL,,SCREENING,1,2025-05-02,-14
STUDY001,LB,STUDY001-SUBJ0001,7,L00007,CREAT,Creatinine,CHEMISTRY,0.66,mg/dL,0.6,1.2,0.66,0.66,mg/dL,0.6,1.2,NORMAL,,SCREENING,1,2025-05-02,-14
STUDY001,LB,STUDY001-SUBJ0001,8,L00008,BILI,Total Bilirubin,CHEMISTRY,0.61,mg/dL,0.1,1.2,0.61,0.61,mg/dL,0.1,1.2,NORMAL,,SCREENING,1,2025-05-02,-14
STUDY001,LB,STUDY001-SUBJ0001,9,L00009,ALP,Alkaline Phosphatase,CHEMISTRY,88.56,U/L,44.0,147.0,88.56,88.56,U/L,44.0,147.0,NORMAL,,SCREENING,1,2025-05-02,-14
STUDY001,LB,STUDY001-SUBJ0001,10,L00010,ALT,Alanine Aminotransferase,CHEMISTRY,40.31,U/L,7.0,56.0,40.31,40.31,U/L,7.0,56.0,NORMAL,,SCREENING,1,2025-05-02,-14
STUDY001,LB,STUDY001-SUBJ0001,11,L00011,HGB,Hemoglobin,HEMATOLOGY,14.21,g/dL,13.5,17.5,14.21,14.21,g/dL,13.5,17.5,NORMAL,Y,BASELINE,2,2025-05-16,1
STUDY001,LB,STUDY001-SUBJ0001,12,L00012,HCT,Hematocrit,HEMATOLOGY,40.19,%,41.0,51.0,40.19,40.19,%,41.0,51.0,LOW,Y,BASELINE,2,2025-05-16,1
STUDY001,LB,STUDY001-SUBJ0001,13,L00013,WBC,White Blood Cell Count,HEMATOLOGY,4.81,10^9/L,4.5,11.0,4.81,4.81,10^9/L,4.5,11.0,NORMAL,Y,BASELINE,2,2025-05-16,1
STUDY001,LB,STUDY001-SUBJ0001,14,L00014,PLT,Platelet Count,HEMATOLOGY,146.74,10^9/L,150.0,450.0,146.74,146.74,10^9/L,150.0,450.0,LOW,Y,BASELINE,2,2025-05-16,1
STUDY001,LB,STUDY001-SUBJ0001,15,L00015,GLUC,Glucose,CHEMISTRY,87.04,mg/dL,70.0,100.0,87.04,87.04,mg/dL,70.0,100.0,NORMAL,Y,BASELINE,2,2025-05-16,1
STUDY001,LB,STUDY001-SUBJ0001,16,L00016,BUN,Blood Urea Nitrogen,CHEMISTRY,10.65,mg/dL,7.0,20.0,10.65,10.65,mg/dL,7.0,20.0,NORMAL,Y,BASELINE,2,2025-05-16,1
STUDY001,LB,STUDY001-SUBJ0001,17,L00017,CREAT,Creatinine,CHEMISTRY,0.68,mg/dL,0.6,1.2,0.68,0.68,mg/dL,0.6,1.2,NORMAL,Y,BASELINE,2,2025-05-16,1
STUDY001,LB,STUDY001-SUBJ0001,18,L00018,BILI,Total Bilirubin,CHEMISTRY,0.58,mg/dL,0.1,1.2,0.58,0.58,mg/dL,0.1,1.2,NORMAL,Y,BASELINE,2,2025-05-16,1
STUDY001,LB,STUDY001-SUBJ0001,19,L00019,ALP,Alkaline Phosphatase,CHEMISTRY,86.52,U/L,44.0,147.0,86.52,86.52,U/L,44.0,147.0,NORMAL,Y,BASELINE,2,2025-05-16,1
STUDY001,LB,STUDY001-SUBJ0001,20,L00020,ALT,Alanine Aminotransferase,CHEMISTRY,41.21,U/L,7.0,56.0,41.21,41.21,U/L,7.0,56.0,NORMAL,Y,BASELINE,2,2025-05-16,1
STUDY001,LB,STUDY001-SUBJ0001,21,L00021,HGB,Hemoglobin,HEMATOLOGY,14.31,g/dL,13.5,17.5,14.31,14.31,g/dL,13.5,17.5,NORMAL,,WEEK 1,3,2025-05-22,7
STUDY001,LB,STUDY001-SUBJ0001,22,L00022,HCT,Hematocrit,HEMATOLOGY,39.98,%,41.0,51.0,39.98,39.98,%,41.0,51.0,LOW,,WEEK 1,3,2025-05-22,7
STUDY001,LB,STUDY001-SUBJ0001,23,L00023,WBC,White Blood Cell Count,HEMATOLOGY,5.1,10^9/L,4.5,11.0,5.1,5.1,10^9/L,4.5,11.0,NORMAL,,WEEK 1,3,2025-05-22,7
STUDY001,LB,STUDY001-SUBJ0001,24,L00024,PLT,Platelet Count,HEMATOLOGY,162.24,10^9/L,150.0,450.0,162.24,162.24,10^9/L,150.0,450.0,NORMAL,,WEEK 1,3,2025-05-22,7
STUDY001,LB,STUDY001-SUBJ0001,25,L00025,GLUC,Glucose,CHEMISTRY,87.76,mg/dL,70.0,100.0,87.76,87.76,mg/dL,70.0,100.0,NORMAL,,WEEK 1,3,2025-05-22,7
STUDY001,LB,STUDY001-SUBJ0001,26,L00026,BUN,Blood Urea Nitrogen,CHEMISTRY,11.31,mg/dL,7.0,20.0,11.31,11.31,mg/dL,7.0,20.0,NORMAL,,WEEK 1,3,2025-05-22,7
STUDY001,LB,STUDY001-SUBJ0001,27,L00027,CREAT,Creatinine,CHEMISTRY,0.71,mg/dL,0.6,1.2,0.71,0.71,mg/dL,0.6,1.2,NORMAL,,WEEK 1,3,2025-05-22,7
STUDY001,LB,STUDY001-SUBJ0001,28,L00028,BILI,Total Bilirubin,CHEMISTRY,0.6,mg/dL,0.1,1.2,0.6,0.6,mg/dL,0.1,1.2,NORMAL,,WEEK 1,3,2025-05-22,7
STUDY001,LB,STUDY001-SUBJ0001,29,L00029,ALP,Alkaline Phosphatase,CHEMISTRY,85.92,U/L,44.0,147.0,85.92,85.92,U/L,44.0,147.0,NORMAL,,WEEK 1,3,2025-05-22,7
STUDY001,LB,STUDY001-SUBJ0001,30,L00030,ALT,Alanine Aminotransferase,CHEMISTRY,42.85,U/L,7.0,56.0,42.85,42.85,U/L,7.0,56.0,NORMAL,,WEEK 1,3,2025-05-22,7
STUDY001,LB,STUDY001-SUBJ0001,31,L00031,HGB,Hemoglobin,HEMATOLOGY,14.21,g/dL,13.5,17.5,14.21,14.21,g/dL,13.5,17.5,NORMAL,,WEEK 2,4,2025-05-29,14
STUDY001,LB,STUDY001-SUBJ0001,32,L00032,HCT,Hematocrit,HEMATOLOGY,40.59,%,41.0,51.0,40.59,40.59,%,41.0,51.0,LOW,,WEEK 2,4,2025-05-29,14
STUDY001,LB,STUDY001-SUBJ0001,33,L00033,WBC,White Blood Cell Count,HEMATOLOGY,4.78,10^9/L,4.5,11.0,4.78,4.78,10^9/L,4.5,11.0,NORMAL,,WEEK 2,4,2025-05-29,14
STUDY001,LB,STUDY001-SUBJ0001,34,L00034,PLT,Platelet Count,HEMATOLOGY,155.69,10^9/L,150.0,450.0,155.69,155.69,10^9/L,150.0,450.0,NORMAL,,WEEK 2,4,2025-05-29,14
STUDY001,LB,STUDY001-SUBJ0001,35,L00035,GLUC,Glucose,CHEMISTRY,87.71,mg/dL,70.0,100.0,87.71,87.71,mg/dL,70.0,100.0,NORMAL,,WEEK 2,4,2025-05-29,14
STUDY001,LB,STUDY001-SUBJ0001,36,L00036,BUN,Blood Urea Nitrogen,CHEMISTRY,10.8,mg/dL,7.0,20.0,10.8,10.8,mg/dL,7.0,20.0,NORMAL,,WEEK 2,4,2025-05-29,14
STUDY001,LB,STUDY001-SUBJ0001,37,L00037,CREAT,Creatinine,CHEMISTRY,0.69,mg/dL,0.6,1.2,0.69,0.69,mg/dL,0.6,1.2,NORMAL,,WEEK 2,4,2025-05-29,14
STUDY001,LB,STUDY001-SUBJ0001,38,L00038,BILI,Total Bilirubin,CHEMISTRY,0.6,mg/dL,0.1,1.2,0.6,0.6,mg/dL,0.1,1.2,NORMAL,,WEEK 2,4,2025-05-29,14
STUDY001,LB,STUDY001-SUBJ0001,39,L00039,ALP,Alkaline Phosphatase,CHEMISTRY,87.72,U/L,44.0,147.0,87.72,87.72,U/L,44.0,147.0,NORMAL,,WEEK 2,4,2025-05-29,14
STUDY001,LB,STUDY001-SUBJ0001,40,L00040,ALT,Alanine Aminotransferase,CHEMISTRY,41.35,U/L,7.0,56.0,41.35,41.35,U/L,7.0,56.0,NORMAL,,WEEK 2,4,2025-05-29,14
STUDY001,LB,STUDY001-SUBJ0001,41,L00041,HGB,Hemoglobin,HEMATOLOGY,14.0,g/dL,13.5,17.5,14.0,14.0,g/dL,13.5,17.5,NORMAL,,WEEK 4,5,2025-06-12,28
STUDY001,LB,STUDY001-SUBJ0001,42,L00042,HCT,Hematocrit,HEMATOLOGY,40.52,%,41.0,51.0,40.52,40.52,%,41.0,51.0,LOW,,WEEK 4,5,2025-06-12,28
STUDY001,LB,STUDY001-SUBJ0001,43,L00043,WBC,White Blood Cell Count,HEMATOLOGY,4.97,10^9/L,4.5,11.0,4.97,4.97,10^9/L,4.5,11.0,NORMAL,,WEEK 4,5,2025-06-12,28
STUDY001,LB,STUDY001-SUBJ0001,44,L00044,PLT,Platelet Count,HEMATOLOGY,153.94,10^9/L,150.0,450.0,153.94,153.94,10^9/L,150.0,450.0,NORMAL,,WEEK 4,5,2025-06-12,28
STUDY001,LB,STUDY001-SUBJ0001,45,L00045,GLUC,Glucose,CHEMISTRY,87.68,mg/dL,70.0,100.0,87.68,87.68,mg/dL,70.0,100.0,NORMAL,,WEEK 4,5,2025-06-12,28
STUDY001,LB,STUDY001-SUBJ0001,46,L00046,BUN,Blood Urea Nitrogen,CHEMISTRY,10.77,mg/dL,7.0,20.0,10.77,10.77,mg/dL,7.0,20.0,NORMAL,,WEEK 4,5,2025-06-12,28
STUDY001,LB,STUDY001-SUBJ0001,47,L00047,CREAT,Creatinine,CHEMISTRY,0.68,mg/dL,0.6,1.2,0.68,0.68,mg/dL,0.6,1.2,NORMAL,,WEEK 4,5,2025-06-12,28
STUDY001,LB,STUDY001-SUBJ0001,48,L00048,BILI,Total Bilirubin,CHEMISTRY,0.63,mg/dL,0.1,1.2,0.63,0.63,mg/dL,0.1,1.2,NORMAL,,WEEK 4,5,2025-06-12,28
STUDY001,LB,STUDY001-SUBJ0001,49,L00049,ALP,Alkaline Phosphatase,CHEMISTRY,88.85,U/L,44.0,147.0,88.85,88.85,U/L,44.0,147.0,NORMAL,,WEEK 4,5,2025-06-12,28
STUDY001,LB,STUDY001-SUBJ0001,50,L00050,ALT,Alanine Aminotransferase,CHEMISTRY,40.62,U/L,7.0,56.0,40.62,40.62,U/L,7.0,56.0,NORMAL,,WEEK 4,5,2025-06-12,28
STUDY001,LB,STUDY001-SUBJ0001,51,L00051,HGB,Hemoglobin,HEMATOLOGY,14.06,g/dL,13.5,17.5,14.06,14.06,g/dL,13.5,17.5,NORMAL,,WEEK 8,6,2025-07-10,56
STUDY001,LB,STUDY001-SUBJ0001,52,L00052,HCT,Hematocrit,HEMATOLOGY,40.47,%,41.0,51.0,40.47,40.47,%,41.0,51.0,LOW,,WEEK 8,6,2025-07-10,56
STUDY001,LB,STUDY001-SUBJ0001,53,L00053,WBC,White Blood Cell Count,HEMATOLOGY,5.01,10^9/L,4.5,11.0,5.01,5.01,10^9/L,4.5,11.0,NORMAL,,WEEK 8,6,2025-07-10,56
STUDY001,LB,STUDY001-SUBJ0001,54,L00054,PLT,Platelet Count,HEMATOLOGY,154.16,10^9/L,150.0,450.0,154.16,154.16,10^9/L,150.0,450.0,NORMAL,,WEEK 8,6,2025-07-10,56
STUDY001,LB,STUDY001-SUBJ0001,55,L00055,GLUC,Glucose,CHEMISTRY,88.52,mg/dL,70.0,100.0,88.52,88.52,mg/dL,70.0,100.0,NORMAL,,WEEK 8,6,2025-07-10,56
STUDY001,LB,STUDY001-SUBJ0001,56,L00056,BUN,Blood Urea Nitrogen,CHEMISTRY,10.83,mg/dL,7.0,20.0,10.83,10.83,mg/dL,7.0,20.0,NORMAL,,WEEK 8,6,2025-07-10,56
STUDY001,LB,STUDY001-SUBJ0001,57,L00057,CREAT,Creatinine,CHEMISTRY,0.68,mg/dL,0.6,1.2,0.68,0.68,mg/dL,0.6,1.2,NORMAL,,WEEK 8,6,2025-07-10,56
STUDY001,LB,STUDY001-SUBJ0001,58,L00058,BILI,Total Bilirubin,CHEMISTRY,0.61,mg/dL,0.1,1.2,0.61,0.61,mg/dL,0.1,1.2,NORMAL,,WEEK 8,6,2025-07-10,56
STUDY001,LB,STUDY001-SUBJ0001,59,L00059,ALP,Alkaline Phosphatase,CHEMISTRY,87.19,U/L,44.0,147.0,87.19,87.19,U/L,44.0,147.0,NORMAL,,WEEK 8,6,2025-07-10,56
STUDY001,LB,STUDY001-SUBJ0001,60,L00060,ALT,Alanine Aminotransferase,CHEMISTRY,43.19,U/L,7.0,56.0,43.19,43.19,U/L,7.0,56.0,NORMAL,,WEEK 8,6,2025-07-10,56
STUDY001,LB,STUDY001-SUBJ0001,61,L00061,HGB,Hemoglobin,HEMATOLOGY,14.18,g/dL,13.5,17.5,14.18,14.18,g/dL,13.5,17.5,NORMAL,,WEEK 12,7,2025-08-07,84
STUDY001,LB,STUDY001-SUBJ0001,62,L00062,HCT,Hematocrit,HEMATOLOGY,39.82,%,41.0,51.0,39.82,39.82,%,41.0,51.0,LOW,,WEEK 12,7,2025-08-07,84
STUDY001,LB,STUDY001-SUBJ0001,63,L00063,WBC,White Blood Cell Count,HEMATOLOGY,4.85,10^9/L,4.5,11.0,4.85,4.85,10^9/L,4.5,11.0,NORMAL,,WEEK 12,7,2025-08-07,84
STUDY001,LB,STUDY001-SUBJ0001,64,L00064,PLT,Platelet Count,HEMATOLOGY,159.91,10^9/L,150.0,450.0,159.91,159.91,10^9/L,150.0,450.0,NORMAL,,WEEK 12,7,2025-08-07,84
STUDY001,LB,STUDY001-SUBJ0001,65,L00065,GLUC,Glucose,CHEMISTRY,88.96,mg/dL,70.0,100.0,88.96,88.96,mg/dL,70.0,100.0,NORMAL,,WEEK 12,7,2025-08-07,84
STUDY001,LB,STUDY001-SUBJ0001,66,L00066,BUN,Blood Urea Nitrogen,CHEMISTRY,11.19,mg/dL,7.0,20.0,11.19,11.19,mg/dL,7.0,20.0,NORMAL,,WEEK 12,7,2025-08-07,84
STUDY001,LB,STUDY001-SUBJ0001,67,L00067,CREAT,Creatinine,CHEMISTRY,0.68,mg/dL,0.6,1.2,0.68,0.68,mg/dL,0.6,1.2,NORMAL,,WEEK 12,7,2025-08-07,84
STUDY001,LB,STUDY001-SUBJ0001,68,L00068,BILI,Total Bilirubin,CHEMISTRY,0.61,mg/dL,0.1,1.2,0.61,0.61,mg/dL,0.1,1.2,NORMAL,,WEEK 12,7,2025-08-07,84
STUDY001,LB,STUDY001-SUBJ0001,69,L00069,ALP,Alkaline Phosphatase,CHEMISTRY,88.41,U/L,44.0,147.0,88.41,88.41,U/L,44.0,147.0,NORMAL,,WEEK 12,7,2025-08-07,84
STUDY001,LB,STUDY001-SUBJ0001,70,L00070,ALT,Alanine Aminotransferase,CHEMISTRY,42.76,U/L,7.0,56.0,42.76,42.76,U/L,7.0,56.0,NORMAL,,WEEK 12,7,2025-08-07,84
STUDY001,LB,STUDY001-SUBJ0001,71,L00071,HGB,Hemoglobin,HEMATOLOGY,14.12,g/dL,13.5,17.5,14.12,14.12,g/dL,13.5,17.5,NORMAL,,WEEK 16,8,2025-09-04,112
STUDY001,LB,STUDY001-SUBJ0001,72,L00072,HCT,Hematocrit,HEMATOLOGY,40.39,%,41.0,51.0,40.39,40.39,%,41.0,51.0,LOW,,WEEK 16,8,2025-09-04,112
STUDY001,LB,STUDY001-SUBJ0001,73,L00073,WBC,White Blood Cell Count,HEMATOLOGY,4.83,10^9/L,4.5,11.0,4.83,4.83,10^9/L,4.5,11.0,NORMAL,,WEEK 16,8,2025-09-04,112
STUDY001,LB,STUDY001-SUBJ0001,74,L00074,PLT,Platelet Count,HEMATOLOGY,161.8,10^9/L,150.0,450.0,161.8,161.8,10^9/L,150.0,450.0,NORMAL,,WEEK 16,8,2025-09-04,112
STUDY001,LB,STUDY001-SUBJ0001,75,L00075,GLUC,Glucose,CHEMISTRY,88.73,mg/dL,70.0,100.0,88.73,88.73,mg/dL,70.0,100.0,NORMAL,,WEEK 16,8,2025-09-04,112
STUDY001,LB,STUDY001-SUBJ0001,76,L00076,BUN,Blood Urea Nitrogen,CHEMISTRY,11.05,mg/dL,7.0,20.0,11.05,11.05,mg/dL,7.0,20.0,NORMAL,,WEEK 16,8,2025-09-04,112
STUDY001,LB,STUDY001-SUBJ0001,77,L00077,CREAT,Creatinine,CHEMISTRY,0.67,mg/dL,0.6,1.2,0.67,0.67,mg/dL,0.6,1.2,NORMAL,,WEEK 16,8,2025-09-04,112
STUDY001,LB,STUDY001-SUBJ0001,78,L00078,BILI,Total Bilirubin,CHEMISTRY,0.63,mg/dL,0.1,1.2,0.63,0.63,mg/dL,0.1,1.2,NORMAL,,WEEK 16,8,2025-09-04,112
STUDY001,LB,STUDY001-SUBJ0001,79,L00079,ALP,Alkaline Phosphatase,CHEMISTRY,91.09,U/L,44.0,147.0,91.09,91.09,U/L,44.0,147.0,NORMAL,,WEEK 16,8,2025-09-04,112
STUDY001,LB,STUDY001-SUBJ0001,80,L00080,ALT,Alanine Aminotransferase,CHEMISTRY,39.04,U/L,7.0,56.0,39.04,39.04,U/L,7.0,56.0,NORMAL,,WEEK 16,8,2025-09-04,112
STUDY001,LB,STUDY001-SUBJ0001,81,L00081,HGB,Hemoglobin,HEMATOLOGY,14.02,g/dL,13.5,17.5,14.02,14.02,g/dL,13.5,17.5,NORMAL,,END OF TREATMENT,9,2025-10-02,140
STUDY001,LB,STUDY001-SUBJ0001,82,L00082,HCT,Hematocrit,HEMATOLOGY,40.65,%,41.0,51.0,40.65,40.65,%,41.0,51.0,LOW,,END OF TREATMENT,9,2025-10-02,140
STUDY001,LB,STUDY001-SUBJ0001,83,L00083,WBC,White Blood Cell Count,HEMATOLOGY,4.7,10^9/L,4.5,11.0,4.7,4.7,10^9/L,4.5,11.0,NORMAL,,END OF TREATMENT,9,2025-10-02,140
STUDY001,LB,STUDY001-SUBJ0001,84,L00084,PLT,Platelet Count,HEMATOLOGY,149.45,10^9/L,150.0,450.0,149.45,149.45,10^9/L,150.0,450.0,LOW,,END OF TREATMENT,9,2025-10-02,140
STUDY001,LB,STUDY001-SUBJ0001,85,L00085,GLUC,Glucose,CHEMISTRY,87.03,mg/dL,70.0,100.0,87.03,87.03,mg/dL,70.0,100.0,NORMAL,,END OF TREATMENT,9,2025-10-02,140
STUDY001,LB,STUDY001-SUBJ0001,86,L00086,BUN,Blood Urea Nitrogen,CHEMISTRY,10.71,mg/dL,7.0,20.0,10.71,10.71,mg/dL,7.0,20.0,NORMAL,,END OF TREATMENT,9,2025-10-02,140
STUDY001,LB,STUDY001-SUBJ0001,87,L00087,CREAT,Creatinine,CHEMISTRY,0.71,mg/dL,0.6,1.2,0.71,0.71,mg/dL,0.6,1.2,NORMAL,,END OF TREATMENT,9,2025-10-02,140
STUDY001,LB,STUDY001-SUBJ0001,88,L00088,BILI,Total Bilirubin,CHEMISTRY,0.61,mg/dL,0.1,1.2,0.61,0.61,mg/dL,0.1,1.2,NORMAL,,END OF TREATMENT,9,2025-10-02,140
STUDY001,LB,STUDY001-SUBJ0001,89,L00089,ALP,Alkaline Phosphatase,CHEMISTRY,87.93,U/L,44.0,147.0,87.93,87.93,U/L,44.0,147.0,NORMAL,,END OF TREATMENT,9,2025-10-02,140
STUDY001,LB,STUDY001-SUBJ0001,90,L00090,ALT,Alanine Aminotransferase,CHEMISTRY,40.33,U/L,7.0,56.0,40.33,40.33,U/L,7.0,56.0,NORMAL,,END OF TREATMENT,9,2025-10-02,140
STUDY001,LB,STUDY001-SUBJ0002,1,L00001,HGB,Hemoglobin,HEMATOLOGY,15.68,g/dL,13.5,17.5,15.68,15.68,g/dL,13.5,17.5,NORMAL,,SCREENING,1,2025-02-16,-14
STUDY001,LB,STUDY001-SUBJ0002,2,L00002,HCT,Hematocrit,HEMATOLOGY,45.76,%,41.0,51.0,45.76,45.76,%,41.0,51.0,NORMAL,,SCREENING,1,2025-02-16,-14
STUDY001,LB,STUDY001-SUBJ0002,3,L00003,WBC,White Blood Cell Count,HEMATOLOGY,6.86,10^9/L,4.5,11.0,6.86,6.86,10^9/L,4.5,11.0,NORMAL,,SCREENING,1,2025-02-16,-14
STUDY001,LB,STUDY001-SUBJ0002,4,L00004,PLT,Platelet Count,HEMATOLOGY,262.02,10^9/L,150.0,450.0,262.02,262.02,10^9/L,150.0,450.0,NORMAL,,SCREENING,1,2025-02-16,-14
STUDY001,LB,STUDY001-SUBJ0002,5,L00005,GLUC,Glucose,CHEMISTRY,92.36,mg/dL,70.0,100.0,92.36,92.36,mg/dL,70.0,100.0,NORMAL,,SCREENING,1,2025-02-16,-14
STUDY001,LB,STUDY001-SUBJ0002,6,L00006,BUN,Blood Urea Nitrogen,CHEMISTRY,11.03,mg/dL,7.0,20.0,11.03,11.03,mg/dL,7.0,20.0,NORMAL,,SCREENING,1,2025-02-16,-14
STUDY001,LB,STUDY001-SUBJ0002,7,L00007,CREAT,Creatinine,CHEMISTRY,0.76,mg/dL,0.6,1.2,0.76,0.76,mg/dL,0.6,1.2,NORMAL,,SCREENING,1,2025-02-16,-14
STUDY001,LB,STUDY001-SUBJ0002,8,L00008,BILI,Total Bilirubin,CHEMISTRY,0.79,mg/dL,0.1,1.2,0.79,0.79,mg/dL,0.1,1.2,NORMAL,,SCREENING,1,2025-02-16,-14
STUDY001,LB,STUDY001-SUBJ0002,9,L00009,ALP,Alkaline Phosphatase,CHEMISTRY,115.54,U/L,44.0,147.0,115.54,115.54,U/L,44.0,147.0,NORMAL,,SCREENING,1,2025-02-16,-14
STUDY001,LB,STUDY001-SUBJ0002,10,L00010,ALT,Alanine Aminotransferase,CHEMISTRY,36.67,U/L,7.0,56.0,36.67,36.67,U/L,7.0,56.0,NORMAL,,SCREENING,1,2025-02-16,-14
STUDY001,LB,STUDY001-SUBJ0002,11,L00011,HGB,Hemoglobin,HEMATOLOGY,15.37,g/dL,13.5,17.5,15.37,15.37,g/dL,13.5,17.5,NORMAL,Y,BASELINE,2,2025-03-02,1
STUDY001,LB,STUDY001-SUBJ0002,12,L00012,HCT,Hematocrit,HEMATOLOGY,45.5,%,41.0,51.0,45.5,45.5,%,41.0,51.0,NORMAL,Y,BASELINE,2,2025-03-02,1
STUDY001,LB,STUDY001-SUBJ0002,13,L00013,WBC,White Blood Cell Count,HEMATOLOGY,7.03,10^9/L,4.5,11.0,7.03,7.03,10^9/L,4.5,11.0,NORMAL,Y,BASELINE,2,2025-03-02,1
STUDY001,LB,STUDY001-SUBJ0002,14,L00014,PLT,Platelet Count,HEMATOLOGY,255.08,10^9/L,150.0,450.0,255.08,255.08,10^9/L,150.0,450.0,NORMAL,Y,BASELINE,2,2025-03-02,1
STUDY001,LB,STUDY001-SUBJ0002,15,L00015,GLUC,Glucose,CHEMISTRY,92.5,mg/dL,70.0,100.0,92.5,92.5,mg/dL,70.0,100.0,NORMAL,Y,BASELINE,2,2025-03-02,1
STUDY001,LB,STUDY001-SUBJ0002,16,L00016,BUN,Blood Urea Nitrogen,CHEMISTRY,10.95,mg/dL,7.0,20.0,10.95,10.95,mg/dL,7.0,20.0,NORMAL,Y,BASELINE,2,2025-03-02,1
STUDY001,LB,STUDY001-SUBJ0002,17,L00017,CREAT,Creatinine,CHEMISTRY,0.78,mg/dL,0.6,1.2,0.78,0.78,mg/dL,0.6,1.2,NORMAL,Y,BASELINE,2,2025-03-02,1
STUDY001,LB,STUDY001-SUBJ0002,18,L00018,BILI,Total Bilirubin,CHEMISTRY,0.79,mg/dL,0.1,1.2,0.79,0.79,mg/dL,0.1,1.2,NORMAL,Y,BASELINE,2,2025-03-02,1
STUDY001,LB,STUDY001-SUBJ0002,19,L00019,ALP,Alkaline Phosphatase,CHEMISTRY,115.36,U/L,44.0,147.0,115.36,115.36,U/L,44.0,147.0,NORMAL,Y,BASELINE,2,2025-03-02,1
STUDY001,LB,STUDY001-SUBJ0002,20,L00020,ALT,Alanine Aminotransferase,CHEMISTRY,35.54,U/L,7.0,56.0,35.54,35.54,U/L,7.0,56.0,NORMAL,Y,BASELINE,2,2025-03-02,1
STUDY001,LB,STUDY001-SUBJ0002,21,L00021,HGB,Hemoglobin,HEMATOLOGY,15.66,g/dL,13.5,17.5,15.66,15.66,g/dL,13.5,17.5,NORMAL,,WEEK 1,3,2025-03-08,7
STUDY001,LB,STUDY001-SUBJ0002,22,L00022,HCT,Hematocrit,HEMATOLOGY,45.32,%,41.0,51.0,45.32,45.32,%,41.0,51.0,NORMAL,,WEEK 1,3,2025-03-08,7
STUDY001,LB,STUDY001-SUBJ0002,23,L00023,WBC,White Blood Cell Count,HEMATOLOGY,6.5,10^9/L,4.5,11.0,6.5,6.5,10^9/L,4.5,11.0,NORMAL,,WEEK 1,3,2025-03-08,7
STUDY001,LB,STUDY001-SUBJ0002,24,L00024,PLT,Platelet Count,HEMATOLOGY,253.96,10^9/L,150.0,450.0,253.96,253.96,10^9/L,150.0,450.0,NORMAL,,WEEK 1,3,2025-03-08,7
STUDY001,LB,STUDY001-SUBJ0002,25,L00025,GLUC,Glucose,CHEMISTRY,93.93,mg/dL,70.0,100.0,93.93,93.93,mg/dL,70.0,100.0,NORMAL,,WEEK 1,3,2025-03-08,7
STUDY001,LB,STUDY001-SUBJ0002,26,L00026,BUN,Blood Urea Nitrogen,CHEMISTRY,11.08,mg/dL,7.0,20.0,11.08,11.08,mg/dL,7.0,20.0,NORMAL,,WEEK 1,3,2025-03-08,7
STUDY001,LB,STUDY001-SUBJ0002,27,L00027,CREAT,Creatinine,CHEMISTRY,0.79,mg/dL,0.6,1.2,0.79,0.79,mg/dL,0.6,1.2,NORMAL,,WEEK 1,3,2025-03-08,7
STUDY001,LB,STUDY001-SUBJ0002,28,L00028,BILI,Total Bilirubin,CHEMISTRY,0.81,mg/dL,0.1,1.2,0.81,0.81,mg/dL,0.1,1.2,NORMAL,,WEEK 1,3,2025-03-08,7
STUDY001,LB,STUDY001-SUBJ0002,29,L00029,ALP,Alkaline Phosphatase,CHEMISTRY,115.49,U/L,44.0,147.0,115.49,115.49,U/L,44.0,147.0,NORMAL,,WEEK 1,3,2025-03-08,7
STUDY001,LB,STUDY001-SUBJ0002,30,L00030,ALT,Alanine Aminotransferase,CHEMISTRY,36.87,U/L,7.0,56.0,36.87,36.87,U/L,7.0,56.0,NORMAL,,WEEK 1,3,2025-03-08,7
STUDY001,LB,STUDY001-SUBJ0002,31,L00031,HGB,Hemoglobin,HEMATOLOGY,15.61,g/dL,13.5,17.5,15.61,15.61,g/dL,13.5,17.5,NORMAL,,WEEK 2,4,2025-03-15,14
STUDY001,LB,STUDY001-SUBJ0002,32,L00032,HCT,Hematocrit,HEMATOLOGY,45.51,%,41.0,51.0,45.51,45.51,%,41.0,51.0,NORMAL,,WEEK 2,4,2025-03-15,14
STUDY001,LB,STUDY001-SUBJ0002,33,L00033,WBC,White Blood Cell Count,HEMATOLOGY,7.05,10^9/L,4.5,11.0,7.05,7.05,10^9/L,4.5,11.0,NORMAL,,WEEK 2,4,2025-03-15,14
STUDY001,LB,STUDY001-SUBJ0002,34,L00034,PLT,Platelet Count,HEMATOLOGY,264.13,10^9/L,150.0,450.0,264.13,264.13,10^9/L,150.0,450.0,NORMAL,,WEEK 2,4,2025-03-15,14
STUDY001,LB,STUDY001-SUBJ0002,35,L00035,GLUC,Glucose,CHEMISTRY,92.94,mg/dL,70.0,100.0,92.94,92.94,mg/dL,70.0,100.0,NORMAL,,WEEK 2,4,2025-03-15,14
STUDY001,LB,STUDY001-SUBJ0002,36,L00036,BUN,Blood Urea Nitrogen,CHEMISTRY,10.63,mg/dL,7.0,20.0,10.63,10.63,mg/dL,7.0,20.0,NORMAL,,WEEK 2,4,2025-03-15,14
STUDY001,LB,STUDY001-SUBJ0002,37,L00037,CREAT,Creatinine,CHEMISTRY,0.77,mg/dL,0.6,1.2,0.77,0.77,mg/dL,0.6,1.2,NORMAL,,WEEK 2,4,2025-03-15,14
STUDY001,LB,STUDY001-SUBJ0002,38,L00038,BILI,Total Bilirubin,CHEMISTRY,0.81,mg/dL,0.1,1.2,0.81,0.81,mg/dL,0.1,1.2,NORMAL,,WEEK 2,4,2025-03-15,14
STUDY001,LB,STUDY001-SUBJ0002,39,L00039,ALP,Alkaline Phosphatase,CHEMISTRY,113.38,U/L,44.0,147.0,113.38,113.38,U/L,44.0,147.0,NORMAL,,WEEK 2,4,2025-03-15,14
STUDY001,LB,STUDY001-SUBJ0002,40,L00040,ALT,Alanine Aminotransferase,CHEMISTRY,37.04,U/L,7.0,56.0,37.04,37.04,U/L,7.0,56.0,NORMAL,,WEEK 2,4,2025-03-15,14
STUDY001,LB,STUDY001-SUBJ0002,41,L00041,HGB,Hemoglobin,HEMATOLOGY,15.51,g/dL,13.5,17.5,15.51,15.51,g/dL,13.5,17.5,NORMAL,,WEEK 4,5,2025-03-29,28
STUDY001,LB,STUDY001-SUBJ0002,42,L00042,HCT,Hematocrit,HEMATOLOGY,45.28,%,41.0,51.0,45.28,45.28,%,41.0,51.0,NORMAL,,WEEK 4,5,2025-03-29,28
STUDY001,LB,STUDY001-SUBJ0002,43,L00043,WBC,White Blood Cell Count,HEMATOLOGY,6.83,10^9/L,4.5,11.0,6.83,6.83,10^9/L,4.5,11.0,NORMAL,,WEEK 4,5,2025-03-29,28
STUDY001,LB,STUDY001-SUBJ0002,44,L00044,PLT,Platelet Count,HEMATOLOGY,259.58,10^9/L,150.0,450.0,259.58,259.58,10^9/L,150.0,450.0,NORMAL,,WEEK 4,5,2025-03-29,28
STUDY001,LB,STUDY001-SUBJ0002,45,L00045,GLUC,Glucose,CHEMISTRY,93.59,mg/dL,70.0,100.0,93.59,93.59,mg/dL,70.0,100.0,NORMAL,,WEEK 4,5,2025-03-29,28
STUDY001,LB,STUDY001-SUBJ0002,46,L00046,BUN,Blood Urea Nitrogen,CHEMISTRY,11.26,mg/dL,7.0,20.0,11.26,11.26,mg/dL,7.0,20.0,NORMAL,,WEEK 4,5,2025-03-29,28
STUDY001,LB,STUDY001-SUBJ0002,47,L00047,CREAT,Creatinine,CHEMISTRY,0.79,mg/dL,0.6,1.2,0.79,0.79,mg/dL,0.6,1.2,NORMAL,,WEEK 4,5,2025-03-29,28
STUDY001,LB,STUDY001-SUBJ0002,48,L00048,BILI,Total Bilirubin,CHEMISTRY,0.76,mg/dL,0.1,1.2,0.76,0.76,mg/dL,0.1,1.2,NORMAL,,WEEK 4,5,2025-03-29,28
STUDY001,LB,STUDY001-SUBJ0002,49,L00049,ALP,Alkaline Phosphatase,CHEMISTRY,116.29,U/L,44.0,147.0,116.29,116.29,U/L,44.0,147.0,NORMAL,,WEEK 4,5,2025-03-29,28
STUDY001,LB,STUDY001-SUBJ0002,50,L00050,ALT,Alanine Aminotransferase,CHEMISTRY,38.17,U/L,7.0,56.0,38.17,38.17,U/L,7.0,56.0,NORMAL,,WEEK 4,5,2025-03-29,28
STUDY001,LB,STUDY001-SUBJ0002,51,L00051,HGB,Hemoglobin,HEMATOLOGY,15.73,g/dL,13.5,17.5,15.73,15.73,g/dL,13.5,17.5,NORMAL,,WEEK 8,6,2025-04-26,56
STUDY001,LB,STUDY001-SUBJ0002,52,L00052,HCT,Hematocrit,HEMATOLOGY,45.13,%,41.0,51.0,45.13,45.13,%,41.0,51.0,NORMAL,,WEEK 8,6,2025-04-26,56
STUDY001,LB,STUDY001-SUBJ0002,53,L00053,WBC,White Blood Cell Count,HEMATOLOGY,6.86,10^9/L,4.5,11.0,6.86,6.86,10^9/L,4.5,11.0,NORMAL,,WEEK 8,6,2025-04-26,56
STUDY001,LB,STUDY001-SUBJ0002,54,L00054,PLT,Platelet Count,HEMATOLOGY,264.74,10^9/L,150.0,450.0,264.74,264.74,10^9/L,150.0,450.0,NORMAL,,WEEK 8,6,2025-04-26,56
STUDY001,LB,STUDY001-SUBJ0002,55,L00055,GLUC,Glucose,CHEMISTRY,93.21,mg/dL,70.0,100.0,93.21,93.21,mg/dL,70.0,100.0,NORMAL,,WEEK 8,6,2025-04-26,56
STUDY001,LB,STUDY001-SUBJ0002,56,L00056,BUN,Blood Urea Nitrogen,CHEMISTRY,10.56,mg/dL,7.0,20.0,10.56,10.56,mg/dL,7.0,20.0,NORMAL,,WEEK 8,6,2025-04-26,56
STUDY001,LB,STUDY001-SUBJ0002,57,L00057,CREAT,Creatinine,CHEMISTRY,0.78,mg/dL,0.6,1.2,0.78,0.78,mg/dL,0.6,1.2,NORMAL,,WEEK 8,6,2025-04-26,56
STUDY001,LB,STUDY001-SUBJ0002,58,L00058,BILI,Total Bilirubin,CHEMISTRY,0.77,mg/dL,0.1,1.2,0.77,0.77,mg/dL,0.1,1.2,NORMAL,,WEEK 8,6,2025-04-26,56
STUDY001,LB,STUDY001-SUBJ0002,59,L00059,ALP,Alkaline Phosphatase,CHEMISTRY,114.31,U/L,44.0,147.0,114.31,114.31,U/L,44.0,147.0,NORMAL,,WEEK 8,6,2025-04-26,56
STUDY001,LB,STUDY001-SUBJ0002,60,L00060,ALT,Alanine Aminotransferase,CHEMISTRY,36.96,U/L,7.0,56.0,36.96,36.96,U/L,7.0,56.0,NORMAL,,WEEK 8,6,2025-04-26,56
STUDY001,LB,STUDY001-SUBJ0002,61,L00061,HGB,Hemoglobin,HEMATOLOGY,15.57,g/dL,13.5,17.5,15.57,15.57,g/dL,13.5,17.5,NORMAL,,WEEK 12,7,2025-05-24,84
STUDY001,LB,STUDY001-SUBJ0002,62,L00062,HCT,Hematocrit,HEMATOLOGY,45.47,%,41.0,51.0,45.47,45.47,%,41.0,51.0,NORMAL,,WEEK 12,7,2025-05-24,84
STUDY001,LB,STUDY001-SUBJ0002,63,L00063,WBC,White Blood Cell Count,HEMATOLOGY,6.65,10^9/L,4.5,11.0,6.65,6.65,10^9/L,4.5,11.0,NORMAL,,WEEK 12,7,2025-05-24,84
STUDY001,LB,STUDY001-SUBJ0002,64,L00064,PLT,Platelet Count,HEMATOLOGY,257.01,10^9/L,150.0,450.0,257.01,257.01,10^9/L,150.0,450.0,NORMAL,,WEEK 12,7,2025-05-24,84
STUDY001,LB,STUDY001-SUBJ0002,65,L00065,GLUC,Glucose,CHEMISTRY,92.03,mg/dL,70.0,100.0,92.03,92.03,mg/dL,70.0,100.0,NORMAL,,WEEK 12,7,2025-05-24,84
STUDY001,LB,STUDY001-SUBJ0002,66,L00066,BUN,Blood Urea Nitrogen,CHEMISTRY,10.61,mg/dL,7.0,20.0,10.61,10.61,mg/dL,7.0,20.0,NORMAL,,WEEK 12,7,2025-05-24,84
STUDY001,LB,STUDY001-SUBJ0002,67,L00067,CREAT,Creatinine,CHEMISTRY,0.77,mg/dL,0.6,1.2,0.77,0.77,mg/dL,0.6,1.2,NORMAL,,WEEK 12,7,2025-05-24,84
STUDY001,LB,STUDY001-SUBJ0002,68,L00068,BILI,Total Bilirubin,CHEMISTRY,0.77,mg/dL,0.1,1.2,0.77,0.77,mg/dL,0.1,1.2,NORMAL,,WEEK 12,7,2025-05-24,84
STUDY001,LB,STUDY001-SUBJ0002,69,L00069,ALP,Alkaline Phosphatase,CHEMISTRY,113.5,U/L,44.0,147.0,113.5,113.5,U/L,44.0,147.0,NORMAL,,WEEK 12,7,2025-05-24,84
STUDY001,LB,STUDY001-SUBJ0002,70,L00070,ALT,Alanine Aminotransferase,CHEMISTRY,37.66,U/L,7.0,56.0,37.66,37.66,U/L,7.0,56.0,NORMAL,,WEEK 12,7,2025-05-24,84
STUDY001,LB,STUDY001-SUBJ0002,71,L00071,HGB,Hemoglobin,HEMATOLOGY,15.64,g/dL,13.5,17.5,15.64,15.64,g/dL,13.5,17.5,NORMAL,,WEEK 16,8,2025-06-21,112
STUDY001,LB,STUDY001-SUBJ0002,72,L00072,HCT,Hematocrit,HEMATOLOGY,45.51,%,41.0,51.0,45.51,45.51,%,41.0,51.0,NORMAL,,WEEK 16,8,2025-06-21,112
STUDY001,LB,STUDY001-SUBJ0002,73,L00073,WBC,White Blood Cell Count,HEMATOLOGY,6.62,10^9/L,4.5,11.0,6.62,6.62,10^9/L,4.5,11.0,NORMAL,,WEEK 16,8,2025-06-21,112
STUDY001,LB,STUDY001-SUBJ0002,74,L00074,PLT,Platelet Count,HEMATOLOGY,258.92,10^9/L,150.0,450.0,258.92,258.92,10^9/L,150.0,450.0,NORMAL,,WEEK 16,8,2025-06-21,112
STUDY001,LB,STUDY001-SUBJ0002,75,L00075,GLUC,Glucose,CHEMISTRY,91.18,mg/dL,70.0,100.0,91.18,91.18,mg/dL,70.0,100.0,NORMAL,,WEEK 16,8,2025-06-21,112
STUDY001,LB,STUDY001-SUBJ0002,76,L00076,BUN,Blood Urea Nitrogen,CHEMISTRY,10.7,mg/dL,7.0,20.0,10.7,10.7,mg/dL,7.0,20.0,NORMAL,,WEEK 16,8,2025-06-21,112
STUDY001,LB,STUDY001-SUBJ0002,77,L00077,CREAT,Creatinine,CHEMISTRY,0.76,mg/dL,0.6,1.2,0.76,0.76,mg/dL,0.6,1.2,NORMAL,,WEEK 16,8,2025-06-21,112
STUDY001,LB,STUDY001-SUBJ0002,78,L00078,BILI,Total Bilirubin,CHEMISTRY,0.8,mg/dL,0.1,1.2,0.8,0.8,mg/dL,0.1,1.2,NORMAL,,WEEK 16,8,2025-06-21,112
STUDY001,LB,STUDY001-SUBJ0002,79,L00079,ALP,Alkaline Phosphatase,CHEMISTRY,111.92,U/L,44.0,147.0,111.92,111.92,U/L,44.0,147.0,NORMAL,,WEEK 16,8,2025-06-21,112
STUDY001,LB,STUDY001-SUBJ0002,80,L00080,ALT,Alanine Aminotransferase,CHEMISTRY,36.45,U/L,7.0,56.0,36.45,36.45,U/L,7.0,56.0,NORMAL,,WEEK 16,8,2025-06-21,112
STUDY001,LB,STUDY001-SUBJ0002,81,L00081,HGB,Hemoglobin,HEMATOLOGY,15.54,g/dL,13.5,17.5,15.54,15.54,g/dL,13.5,17.5,NORMAL,,END OF TREATMENT,9,2025-07-19,140
STUDY001,LB,STUDY001-SUBJ0002,82,L00082,HCT,Hematocrit,HEMATOLOGY,45.14,%,41.0,51.0,45.14,45.14,%,41.0,51.0,NORMAL,,END OF TREATMENT,9,2025-07-19,140
STUDY001,LB,STUDY001-SUBJ0002,83,L00083,WBC,White Blood Cell Count,HEMATOLOGY,6.52,10^9/L,4.5,11.0,6.52,6.52,10^9/L,4.5,11.0,NORMAL,,END OF TREATMENT,9,2025-07-19,140
STUDY001,LB,STUDY001-SUBJ0002,84,L00084,PLT,Platelet Count,HEMATOLOGY,262.05,10^9/L,150.0,450.0,262.05,262.05,10^9/L,150.0,450.0,NORMAL,,END OF TREATMENT,9,2025-07-19,140
STUDY001,LB,STUDY001-SUBJ0002,85,L00085,GLUC,Glucose,CHEMISTRY,92.99,mg/dL,70.0,100.0,92.99,92.99,mg/dL,70.0,100.0,NORMAL,,END OF TREATMENT,9,2025-07-19,140
STUDY001,LB,STUDY001-SUBJ0002,86,L00086,BUN,Blood Urea Nitrogen,CHEMISTRY,10.82,mg/dL,7.0,20.0,10.82,10.82,mg/dL,7.0,20.0,NORMAL,,END OF TREATMENT,9,2025-07-19,140
STUDY001,LB,STUDY001-SUBJ0002,87,L00087,CREAT,Creatinine,CHEMISTRY,0.77,mg/dL,0.6,1.2,0.77,0.77,mg/dL,0.6,1.2,NORMAL,,END OF TREATMENT,9,2025-07-19,140
STUDY001,LB,STUDY001-SUBJ0002,88,L00088,BILI,Total Bilirubin,CHEMISTRY,0.79,mg/dL,0.1,1.2,0.79,0.79,mg/dL,0.1,1.2,NORMAL,,END OF TREATMENT,9,2025-07-19,140
STUDY001,LB,STUDY001-SUBJ0002,89,L00089,ALP,Alkaline Phosphatase,CHEMISTRY,115.83,U/L,44.0,147.0,115.83,115.83,U/L,44.0,147.0,NORMAL,,END OF TREATMENT,9,2025-07-19,140
STUDY001,LB,STUDY001-SUBJ0002,90,L00090,ALT,Alanine Aminotransferase,CHEMISTRY,37.12,U/L,7.0,56.0,37.12,37.12,U/L,7.0,56.0,NORMAL,,END OF TREATMENT,9,2025-07-19,140
STUDY001,LB,STUDY001-SUBJ0003,1,L00001,HGB,Hemoglobin,HEMATOLOGY,14.82,g/dL,13.5,17.5,14.82,14.82,g/dL,13.5,17.5,NORMAL,,SCREENING,1,2024-11-23,-14
STUDY001,LB,STUDY001-SUBJ0003,2,L00002,HCT,Hematocrit,HEMATOLOGY,47.08,%,41.0,51.0,47.08,47.08,%,41.0,51.0,NORMAL,,SCREENING,1,2024-11-23,-14
STUDY001,LB,STUDY001-SUBJ0003,3,L00003,WBC,White Blood Cell Count,HEMATOLOGY,9.6,10^9/L,4.5,11.0,9.6,9.6,10^9/L,4.5,11.0,NORMAL,,SCREENING,1,2024-11-23,-14
STUDY001,LB,STUDY001-SUBJ0003,4,L00004,PLT,Platelet Count,HEMATOLOGY,261.36,10^9/L,150.0,450.0,261.36,261.36,10^9/L,150.0,450.0,NORMAL,,SCREENING,1,2024-11-23,-14
STUDY001,LB,STUDY001-SUBJ0003,5,L00005,GLUC,Glucose,CHEMISTRY,80.79,mg/dL,70.0,100.0,80.79,80.79,mg/dL,70.0,100.0,NORMAL,,SCREENING,1,2024-11-23,-14
STUDY001,LB,STUDY001-SUBJ0003,6,L00006,BUN,Blood Urea Nitrogen,CHEMISTRY,14.09,mg/dL,7.0,20.0,14.09,14.09,mg/dL,7.0,20.0,NORMAL,,SCREENING,1,2024-11-23,-14
STUDY001,LB,STUDY001-SUBJ0003,7,L00007,CREAT,Creatinine,CHEMISTRY,0.98,mg/dL,0.6,1.2,0.98,0.98,mg/dL,0.6,1.2,NORMAL,,SCREENING,1,2024-11-23,-14
STUDY001,LB,STUDY001-SUBJ0003,8,L00008,BILI,Total Bilirubin,CHEMISTRY,0.78,mg/dL,0.1,1.2,0.78,0.78,mg/dL,0.1,1.2,NORMAL,,SCREENING,1,2024-11-23,-14
STUDY001,LB,STUDY001-SUBJ0003,9,L00009,ALP,Alkaline Phosphatase,CHEMISTRY,87.51,U/L,44.0,147.0,87.51,87.51,U/L,44.0,147.0,NORMAL,,SCREENING,1,2024-11-23,-14
STUDY001,LB,STUDY001-SUBJ0003,10,L00010,ALT,Alanine Aminotransferase,CHEMISTRY,39.1,U/L,7.0,56.0,39.1,39.1,U/L,7.0,56.0,NORMAL,,SCREENING,1,2024-11-23,-14
STUDY001,LB,STUDY001-SUBJ0003,11,L00011,HGB,Hemoglobin,HEMATOLOGY,14.83,g/dL,13.5,17.5,14.83,14.83,g/dL,13.5,17.5,NORMAL,Y,BASELINE,2,2024-12-07,1
STUDY001,LB,STUDY001-SUBJ0003,12,L00012,HCT,Hematocrit,HEMATOLOGY,46.79,%,41.0,51.0,46.79,46.79,%,41.0,51.0,NORMAL,Y,BASELINE,2,2024-12-07,1
STUDY001,LB,STUDY001-SUBJ0003,13,L00013,WBC,White Blood Cell Count,HEMATOLOGY,9.62,10^9/L,4.5,11.0,9.62,9.62,10^9/L,4.5,11.0,NORMAL,Y,BASELINE,2,2024-12-07,1
STUDY001,LB,STUDY001-SUBJ0003,14,L00014,PLT,Platelet Count,HEMATOLOGY,265.95,10^9/L,150.0,450.0,265.95,265.95,10^9/L,150.0,450.0,NORMAL,Y,BASELINE,2,2024-12-07,1
STUDY001,LB,STUDY001-SUBJ0003,15,L00015,GLUC,Glucose,CHEMISTRY,79.99,mg/dL,70.0,100.0,79.99,79.99,mg/dL,70.0,100.0,NORMAL,Y,BASELINE,2,2024-12-07,1
STUDY001,LB,STUDY001-SUBJ0003,16,L00016,BUN,Blood Urea Nitrogen,CHEMISTRY,13.99,mg/dL,7.0,20.0,13.99,13.99,mg/dL,7.0,20.0,NORMAL,Y,BASELINE,2,2024-12-07,1
STUDY001,LB,STUDY001-SUBJ0003,17,L00017,CREAT,Creatinine,CHEMISTRY,0.99,mg/dL,0.6,1.2,0.99,0.99,mg/dL,0.6,1.2,NORMAL,Y,BASELINE,2,2024-12-07,1
STUDY001,LB,STUDY001-SUBJ0003,18,L00018,BILI,Total Bilirubin,CHEMISTRY,0.79,mg/dL,0.1,1.2,0.79,0.79,mg/dL,0.1,1.2,NORMAL,Y,BASELINE,2,2024-12-07,1
STUDY001,LB,STUDY001-SUBJ0003,19,L00019,ALP,Alkaline Phosphatase,CHEMISTRY,84.33,U/L,44.0,147.0,84.33,84.33,U/L,44.0,147.0,NORMAL,Y,BASELINE,2,2024-12-07,1
STUDY001,LB,STUDY001-SUBJ0003,20,L00020,ALT,Alanine Aminotransferase,CHEMISTRY,37.38,U/L,7.0,56.0,37.38,37.38,U/L,7.0,56.0,NORMAL,Y,BASELINE,2,2024-12-07,1
STUDY001,LB,STUDY001-SUBJ0003,21,L00021,HGB,Hemoglobin,HEMATOLOGY,14.92,g/dL,13.5,17.5,14.92,14.92,g/dL,13.5,17.5,NORMAL,,WEEK 1,3,2024-12-13,7
STUDY001,LB,STUDY001-SUBJ0003,22,L00022,HCT,Hematocrit,HEMATOLOGY,46.97,%,41.0,51.0,46.97,46.97,%,41.0,51.0,NORMAL,,WEEK 1,3,2024-12-13,7
STUDY001,LB,STUDY001-SUBJ0003,23,L00023,WBC,White Blood Cell Count,HEMATOLOGY,9.73,10^9/L,4.5,11.0,9.73,9.73,10^9/L,4.5,11.0,NORMAL,,WEEK 1,3,2024-12-13,7
STUDY001,LB,STUDY001-SUBJ0003,24,L00024,PLT,Platelet Count,HEMATOLOGY,265.04,10^9/L,150.0,450.0,265.04,265.04,10^9/L,150.0,450.0,NORMAL,,WEEK 1,3,2024-12-13,7
STUDY001,LB,STUDY001-SUBJ0003,25,L00025,GLUC,Glucose,CHEMISTRY,81.42,mg/dL,70.0,100.0,81.42,81.42,mg/dL,70.0,100.0,NORMAL,,WEEK 1,3,2024-12-13,7
STUDY001,LB,STUDY001-SUBJ0003,26,L00026,BUN,Blood Urea Nitrogen,CHEMISTRY,13.91,mg/dL,7.0,20.0,13.91,13.91,mg/dL,7.0,20.0,NORMAL,,WEEK 1,3,2024-12-13,7
STUDY001,LB,STUDY001-SUBJ0003,27,L00027,CREAT,Creatinine,CHEMISTRY,0.99,mg/dL,0.6,1.2,0.99,0.99,mg/dL,0.6,1.2,NORMAL,,WEEK 1,3,2024-12-13,7
STUDY001,LB,STUDY001-SUBJ0003,28,L00028,BILI,Total Bilirubin,CHEMISTRY,0.81,mg/dL,0.1,1.2,0.81,0.81,mg/dL,0.1,1.2,NORMAL,,WEEK 1,3,2024-12-13,7
STUDY001,LB,STUDY001-SUBJ0003,29,L00029,ALP,Alkaline Phosphatase,CHEMISTRY,85.16,U/L,44.0,147.0,85.16,85.16,U/L,44.0,147.0,NORMAL,,WEEK 1,3,2024-12-13,7
STUDY001,LB,STUDY001-SUBJ0003,30,L00030,ALT,Alanine Aminotransferase,CHEMISTRY,38.13,U/L,7.0,56.0,38.13,38.13,U/L,7.0,56.0,NORMAL,,WEEK 1,3,2024-12-13,7
STUDY001,LB,STUDY001-SUBJ0003,31,L00031,HGB,Hemoglobin,HEMATOLOGY,15.04,g/dL,13.5,17.5,15.04,15.04,g/dL,13.5,17.5,NORMAL,,WEEK 2,4,2024-12-20,14
STUDY001,LB,STUDY001-SUBJ0003,32,L00032,HCT,Hematocrit,HEMATOLOGY,46.66,%,41.0,51.0,46.66,46.66,%,41.0,51.0,NORMAL,,WEEK 2,4,2024-12-20,14
STUDY001,LB,STUDY001-SUBJ0003,33,L00033,WBC,White Blood Cell Count,HEMATOLOGY,9.74,10^9/L,4.5,11.0,9.74,9.74,10^9/L,4.5,11.0,NORMAL,,WEEK 2,4,2024-12-20,14
STUDY001,LB,STUDY001-SUBJ0003,34,L00034,PLT,Platelet Count,HEMATOLOGY,270.32,10^9/L,150.0,450.0,270.32,270.32,10^9/L,150.0,450.0,NORMAL,,WEEK 2,4,2024-12-20,14
STUDY001,LB,STUDY001-SUBJ0003,35,L00035,GLUC,Glucose,CHEMISTRY,81.63,mg/dL,70.0,100.0,81.63,81.63,mg/dL,70.0,100.0,NORMAL,,WEEK 2,4,2024-12-20,14
STUDY001,LB,STUDY001-SUBJ0003,36,L00036,BUN,Blood Urea Nitrogen,CHEMISTRY,14.49,mg/dL,7.0,20.0,14.49,14.49,mg/dL,7.0,20.0,NORMAL,,WEEK 2,4,2024-12-20,14
STUDY001,LB,STUDY001-SUBJ0003,37,L00037,CREAT,Creatinine,CHEMISTRY,0.98,mg/dL,0.6,1.2,0.98,0.98,mg/dL,0.6,1.2,NORMAL,,WEEK 2,4,2024-12-20,14
STUDY001,LB,STUDY001-SUBJ0003,38,L00038,BILI,Total Bilirubin,CHEMISTRY,0.75,mg/dL,0.1,1.2,0.75,0.75,mg/dL,0.1,1.2,NORMAL,,WEEK 2,4,2024-12-20,14
STUDY001,LB,STUDY001-SUBJ0003,39,L00039,ALP,Alkaline Phosphatase,CHEMISTRY,84.72,U/L,44.0,147.0,84.72,84.72,U/L,44.0,147.0,NORMAL,,WEEK 2,4,2024-12-20,14
STUDY001,LB,STUDY001-SUBJ0003,40,L00040,ALT,Alanine Aminotransferase,CHEMISTRY,38.34,U/L,7.0,56.0,38.34,38.34,U/L,7.0,56.0,NORMAL,,WEEK 2,4,2024-12-20,14
STUDY001,LB,STUDY001-SUBJ0003,41,L00041,HGB,Hemoglobin,HEMATOLOGY,14.83,g/dL,13.5,17.5,14.83,14.83,g/dL,13.5,17.5,NORMAL,,WEEK 4,5,2025-01-03,28
STUDY001,LB,STUDY001-SUBJ0003,42,L00042,HCT,Hematocrit,HEMATOLOGY,46.53,%,41.0,51.0,46.53,46.53,%,41.0,51.0,NORMAL,,WEEK 4,5,2025-01-03,28
STUDY001,LB,STUDY001-SUBJ0003,43,L00043,WBC,White Blood Cell Count,HEMATOLOGY,9.33,10^9/L,4.5,11.0,9.33,9.33,10^9/L,4.5,11.0,NORMAL,,WEEK 4,5,2025-01-03,28
STUDY001,LB,STUDY001-SUBJ0003,44,L00044,PLT,Platelet Count,HEMATOLOGY,268.76,10^9/L,150.0,450.0,268.76,268.76,10^9/L,150.0,450.0,NORMAL,,WEEK 4,5,2025-01-03,28
STUDY001,LB,STUDY001-SUBJ0003,45,L00045,GLUC,Glucose,CHEMISTRY,80.61,mg/dL,70.0,100.0,80.61,80.61,mg/dL,70.0,100.0,NORMAL,,WEEK 4,5,2025-01-03,28
STUDY001,LB,STUDY001-SUBJ0003,46,L00046,BUN,Blood Urea Nitrogen,CHEMISTRY,14.27,mg/dL,7.0,20.0,14.27,14.27,mg/dL,7.0,20.0,NORMAL,,WEEK 4,5,2025-01-03,28
STUDY001,LB,STUDY001-SUBJ0003,47,L00047,CREAT,Creatinine,CHEMISTRY,0.98,mg/dL,0.6,1.2,0.98,0.98,mg/dL,0.6,1.2,NORMAL,,WEEK 4,5,2025-01-03,28
STUDY001,LB,STUDY001-SUBJ0003,48,L00048,BILI,Total Bilirubin,CHEMISTRY,0.74,mg/dL,0.1,1.2,0.74,0.74,mg/dL,0.1,1.2,NORMAL,,WEEK 4,5,2025-01-03,28
STUDY001,LB,STUDY001-SUBJ0003,49,L00049,ALP,Alkaline Phosphatase,CHEMISTRY,88.49,U/L,44.0,147.0,88.49,88.49,U/L,44.0,147.0,NORMAL,,WEEK 4,5,2025-01-03,28
STUDY001,LB,STUDY001-SUBJ0003,50,L00050,ALT,Alanine Aminotransferase,CHEMISTRY,39.74,U/L,7.0,56.0,39.74,39.74,U/L,7.0,56.0,NORMAL,,WEEK 4,5,2025-01-03,28
STUDY001,LB,STUDY001-SUBJ0003,51,L00051,HGB,Hemoglobin,HEMATOLOGY,14.92,g/dL,13.5,17.5,14.92,14.92,g/dL,13.5,17.5,NORMAL,,WEEK 8,6,2025-01-31,56
STUDY001,LB,STUDY001-SUBJ0003,52,L00052,HCT,Hematocrit,HEMATOLOGY,46.94,%,41.0,51.0,46.94,46.94,%,41.0,51.0,NORMAL,,WEEK 8,6,2025-01-31,56
STUDY001,LB,STUDY001-SUBJ0003,53,L00053,WBC,White Blood Cell Count,HEMATOLOGY,9.44,10^9/L,4.5,11.0,9.44,9.44,10^9/L,4.5,11.0,NORMAL,,WEEK 8,6,2025-01-31,56
STUDY001,LB,STUDY001-SUBJ0003,54,L00054,PLT,Platelet Count,HEMATOLOGY,277.16,10^9/L,150.0,450.0,277.16,277.16,10^9/L,150.0,450.0,NORMAL,,WEEK 8,6,2025-01-31,56
STUDY001,LB,STUDY001-SUBJ0003,55,L00055,GLUC,Glucose,CHEMISTRY,79.98,mg/dL,70.0,100.0,79.98,79.98,mg/dL,70.0,100.0,NORMAL,,WEEK 8,6,2025-01-31,56
STUDY001,LB,STUDY001-SUBJ0003,56,L00056,BUN,Blood Urea Nitrogen,CHEMISTRY,14.37,mg/dL,7.0,20.0,14.37,14.37,mg/dL,7.0,20.0,NORMAL,,WEEK 8,6,2025-01-31,56
STUDY001,LB,STUDY001-SUBJ0003,57,L00057,CREAT,Creatinine,CHEMISTRY,0.99,mg/dL,0.6,1.2,0.99,0.99,mg/dL,0.6,1.2,NORMAL,,WEEK 8,6,2025-01-31,56
STUDY001,LB,STUDY001-SUBJ0003,58,L00058,BILI,Total Bilirubin,CHEMISTRY,0.76,mg/dL,0.1,1.2,0.76,0.76,mg/dL,0.1,1.2,NORMAL,,WEEK 8,6,2025-01-31,56
STUDY001,LB,STUDY001-SUBJ0003,59,L00059,ALP,Alkaline Phosphatase,CHEMISTRY,83.69,U/L,44.0,147.0,83.69,83.69,U/L,44.0,147.0,NORMAL,,WEEK 8,6,2025-01-31,56
STUDY001,LB,STUDY001-SUBJ0003,60,L00060,ALT,Alanine Aminotransferase,CHEMISTRY,36.7,U/L,7.0,56.0,36.7,36.7,U/L,7.0,56.0,NORMAL,,WEEK 8,6,2025-01-31,56
STUDY001,LB,STUDY001-SUBJ0003,61,L00061,HGB,Hemoglobin,HEMATOLOGY,14.87,g/dL,13.5,17.5,14.87,14.87,g/dL,13.5,17.5,NORMAL,,WEEK 12,7,2025-02-28,84
STUDY001,LB,STUDY001-SUBJ0003,62,L00062,HCT,Hematocrit,HEMATOLOGY,46.81,%,41.0,51.0,46.81,46.81,%,41.0,51.0,NORMAL,,WEEK 12,7,2025-02-28,84
STUDY001,LB,STUDY001-SUBJ0003,63,L00063,WBC,White Blood Cell Count,HEMATOLOGY,9.52,10^9/L,4.5,11.0,9.52,9.52,10^9/L,4.5,11.0,NORMAL,,WEEK 12,7,2025-02-28,84
STUDY001,LB,STUDY001-SUBJ0003,64,L00064,PLT,Platelet Count,HEMATOLOGY,260.36,10^9/L,150.0,450.0,260.36,260.36,10^9/L,150.0,450.0,NORMAL,,WEEK 12,7,2025-02-28,84
STUDY001,LB,STUDY001-SUBJ0003,65,L00065,GLUC,Glucose,CHEMISTRY,78.85,mg/dL,70.0,100.0,78.85,78.85,mg/dL,70.0,100.0,NORMAL,,WEEK 12,7,2025-02-28,84
STUDY001,LB,STUDY001-SUBJ0003,66,L00066,BUN,Blood Urea Nitrogen,CHEMISTRY,14.54,mg/dL,7.0,20.0,14.54,14.54,mg/dL,7.0,20.0,NORMAL,,WEEK 12,7,2025-02-28,84
STUDY001,LB,STUDY001-SUBJ0003,67,L00067,CREAT,Creatinine,CHEMISTRY,0.98,mg/dL,0.6,1.2,0.98,0.98,mg/dL,0.6,1.2,NORMAL,,WEEK 12,7,2025-02-28,84
STUDY001,LB,STUDY001-SUBJ0003,68,L00068,BILI,Total Bilirubin,CHEMISTRY,0.77,mg/dL,0.1,1.2,0.77,0.77,mg/dL,0.1,1.2,NORMAL,,WEEK 12,7,2025-02-28,84
STUDY001,LB,STUDY001-SUBJ0003,69,L00069,ALP,Alkaline Phosphatase,CHEMISTRY,83.99,U/L,44.0,147.0,83.99,83.99,U/L,44.0,147.0,NORMAL,,WEEK 12,7,2025-02-28,84
STUDY001,LB,STUDY001-SUBJ0003,70,L00070,ALT,Alanine Aminotransferase,CHEMISTRY,37.49,U/L,7.0,56.0,37.49,37.49,U/L,7.0,56.0,NORMAL,,WEEK 12,7,2025-02-28,84
STUDY001,LB,STUDY001-SUBJ0003,71,L00071,HGB,Hemoglobin,HEMATOLOGY,14.68,g/dL,13.5,17.5,14.68,14.68,g/dL,13.5,17.5,NORMAL,,WEEK 16,8,2025-03-28,112
STUDY001,LB,STUDY001-SUBJ0003,72,L00072,HCT,Hematocrit,HEMATOLOGY,47.42,%,41.0,51.0,47.42,47.42,%,41.0,51.0,NORMAL,,WEEK 16,8,2025-03-28,112
STUDY001,LB,STUDY001-SUBJ0003,73,L00073,WBC,White Blood Cell Count,HEMATOLOGY,10.14,10^9/L,4.5,11.0,10.14,10.14,10^9/L,4.5,11.0,NORMAL,,WEEK 16,8,2025-03-28,112
STUDY001,LB,STUDY001-SUBJ0003,74,L00074,PLT,Platelet Count,HEMATOLOGY,261.56,10^9/L,150.0,450.0,261.56,261.56,10^9/L,150.0,450.0,NORMAL,,WEEK 16,8,2025-03-28,112
STUDY001,LB,STUDY001-SUBJ0003,75,L00075,GLUC,Glucose,CHEMISTRY,80.41,mg/dL,70.0,100.0,80.41,80.41,mg/dL,70.0,100.0,NORMAL,,WEEK 16,8,2025-03-28,112
STUDY001,LB,STUDY001-SUBJ0003,76,L00076,BUN,Blood Urea Nitrogen,CHEMISTRY,13.98,mg/dL,7.0,20.0,13.98,13.98,mg/dL,7.0,20.0,NORMAL,,WEEK 16,8,2025-03-28,112
STUDY001,LB,STUDY001-SUBJ0003,77,L00077,CREAT,Creatinine,CHEMISTRY,0.98,mg/dL,0.6,1.2,0.98,0.98,mg/dL,0.6,1.2,NORMAL,,WEEK 16,8,2025-03-28,112
STUDY001,LB,STUDY001-SUBJ0003,78,L00078,BILI,Total Bilirubin,CHEMISTRY,0.77,mg/dL,0.1,1.2,0.77,0.77,mg/dL,0.1,1.2,NORMAL,,WEEK 16,8,2025-03-28,112
STUDY001,LB,STUDY001-SUBJ0003,79,L00079,ALP,Alkaline Phosphatase,CHEMISTRY,82.44,U/L,44.0,147.0,82.44,82.44,U/L,44.0,147.0,NORMAL,,WEEK 16,8,2025-03-28,112
STUDY001,LB,STUDY001-SUBJ0003,80,L00080,ALT,Alanine Aminotransferase,CHEMISTRY,39.11,U/L,7.0,56.0,39.11,39.11,U/L,7.0,56.0,NORMAL,,WEEK 16,8,2025-03-28,112
STUDY001,LB,STUDY001-SUBJ0003,81,L00081,HGB,Hemoglobin,HEMATOLOGY,14.93,g/dL,13.5,17.5,14.93,14.93,g/dL,13.5,17.5,NORMAL,,END OF TREATMENT,9,2025-04-25,140
STUDY001,LB,STUDY001-SUBJ0003,82,L00082,HCT,Hematocrit,HEMATOLOGY,46.69,%,41.0,51.0,46.69,46.69,%,41.0,51.0,NORMAL,,END OF TREATMENT,9,2025-04-25,140
STUDY001,LB,STUDY001-SUBJ0003,83,L00083,WBC,White Blood Cell Count,HEMATOLOGY,9.73,10^9/L,4.5,11.0,9.73,9.73,10^9/L,4.5,11.0,NORMAL,,END OF TREATMENT,9,2025-04-25,140
STUDY001,LB,STUDY001-SUBJ0003,84,L00084,PLT,Platelet Count,HEMATOLOGY,265.27,10^9/L,150.0,450.0,265.27,265.27,10^9/L,150.0,450.0,NORMAL,,END OF TREATMENT,9,2025-04-25,140
STUDY001,LB,STUDY001-SUBJ0003,85,L00085,GLUC,Glucose,CHEMISTRY,81.44,mg/dL,70.0,100.0,81.44,81.44,mg/dL,70.0,100.0,NORMAL,,END OF TREATMENT,9,2025-04-25,140
STUDY001,LB,STUDY001-SUBJ0003,86,L00086,BUN,Blood Urea Nitrogen,CHEMISTRY,14.22,mg/dL,7.0,20.0,14.22,14.22,mg/dL,7.0,20.0,NORMAL,,END OF TREATMENT,9,2025-04-25,140
STUDY001,LB,STUDY001-SUBJ0003,87,L00087,CREAT,Creatinine,CHEMISTRY,0.99,mg/dL,0.6,1.2,0.99,0.99,mg/dL,0.6,1.2,NORMAL,,END OF TREATMENT,9,2025-04-25,140
STUDY001,LB,STUDY001-SUBJ0003,88,L00088,BILI,Total Bilirubin,CHEMISTRY,0.77,mg/dL,0.1,1.2,0.77,0.77,mg/dL,0.1,1.2,NORMAL,,END OF TREATMENT,9,2025-04-25,140
STUDY001,LB,STUDY001-SUBJ0003,89,L00089,ALP,Alkaline Phosphatase,CHEMISTRY,86.13,U/L,44.0,147.0,86.13,86.13,U/L,44.0,147.0,NORMAL,,END OF TREATMENT,9,2025-04-25,140
STUDY001,LB,STUDY001-SUBJ0003,90,L00090,ALT,Alanine Aminotransferase,CHEMISTRY,40.39,U/L,7.0,56.0,40.39,40.39,U/L,7.0,56.0,NORMAL,,END OF TREATMENT,9,2025-04-25,140
STUDY001,LB,STUDY001-SUBJ0004,1,L00001,HGB,Hemoglobin,HEMATOLOGY,14.43,g/dL,13.5,17.5,14.43,14.43,g/dL,13.5,17.5,NORMAL,,SCREENING,1,2024-10-05,-14
STUDY001,LB,STUDY001-SUBJ0004,2,L00002,HCT,Hematocrit,HEMATOLOGY,45.22,%,41.0,51.0,45.22,45.22,%,41.0,51.0,NORMAL,,SCREENING,1,2024-10-05,-14
STUDY001,LB,STUDY001-SUBJ0004,3,L00003,WBC,White Blood Cell Count,HEMATOLOGY,7.3,10^9/L,4.5,11.0,7.3,7.3,10^9/L,4.5,11.0,NORMAL,,SCREENING,1,2024-10-05,-14
STUDY001,LB,STUDY001-SUBJ0004,4,L00004,PLT,Platelet Count,HEMATOLOGY,249.71,10^9/L,150.0,450.0,249.71,249.71,10^9/L,150.0,450.0,NORMAL,,SCREENING,1,2024-10-05,-14
STUDY001,LB,STUDY001-SUBJ0004,5,L00005,GLUC,Glucose,CHEMISTRY,115.39,mg/dL,70.0,100.0,115.39,115.39,mg/dL,70.0,100.0,HIGH,,SCREENING,1,2024-10-05,-14
STUDY001,LB,STUDY001-SUBJ0004,6,L00006,BUN,Blood Urea Nitrogen,CHEMISTRY,14.37,mg/dL,7.0,20.0,14.37,14.37,mg/dL,7.0,20.0,NORMAL,,SCREENING,1,2024-10-05,-14
STUDY001,LB,STUDY001-SUBJ0004,7,L00007,CREAT,Creatinine,CHEMISTRY,0.89,mg/dL,0.6,1.2,0.89,0.89,mg/dL,0.6,1.2,NORMAL,,SCREENING,1,2024-10-05,-14
STUDY001,LB,STUDY001-SUBJ0004,8,L00008,BILI,Total Bilirubin,CHEMISTRY,0.84,mg/dL,0.1,1.2,0.84,0.84,mg/dL,0.1,1.2,NORMAL,,SCREENING,1,2024-10-05,-14
STUDY001,LB,STUDY001-SUBJ0004,9,L00009,ALP,Alkaline Phosphatase,CHEMISTRY,96.92,U/L,44.0,147.0,96.92,96.92,U/L,44.0,147.0,NORMAL,,SCREENING,1,2024-10-05,-14
STUDY001,LB,STUDY001-SUBJ0004,10,L00010,ALT,Alanine Aminotransferase,CHEMISTRY,31.49,U/L,7.0,56.0,31.49,31.49,U/L,7.0,56.0,NORMAL,,SCREENING,1,2024-10-05,-14
STUDY001,LB,STUDY001-SUBJ0004,11,L00011,HGB,Hemoglobin,HEMATOLOGY,14.37,g/dL,13.5,17.5,14.37,14.37,g/dL,13.5,17.5,NORMAL,Y,BASELINE,2,2024-10-19,1
STUDY001,LB,STUDY001-SUBJ0004,12,L00012,HCT,Hematocrit,HEMATOLOGY,45.37,%,41.0,51.0,45.37,45.37,%,41.0,51.0,NORMAL,Y,BASELINE,2,2024-10-19,1
STUDY001,LB,STUDY001-SUBJ0004,13,L00013,WBC,White Blood Cell Count,HEMATOLOGY,7.41,10^9/L,4.5,11.0,7.41,7.41,10^9/L,4.5,11.0,NORMAL,Y,BASELINE,2,2024-10-19,1
STUDY001,LB,STUDY001-SUBJ0004,14,L00014,PLT,Platelet Count,HEMATOLOGY,249.97,10^9/L,150.0,450.0,249.97,249.97,10^9/L,150.0,450.0,NORMAL,Y,BASELINE,2,2024-10-19,1
STUDY001,LB,STUDY001-SUBJ0004,15,L00015,GLUC,Glucose,CHEMISTRY,114.93,mg/dL,70.0,100.0,114.93,114.93,mg/dL,70.0,100.0,HIGH,Y,BASELINE,2,2024-10-19,1
STUDY001,LB,STUDY001-SUBJ0004,16,L00016,BUN,Blood Urea Nitrogen,CHEMISTRY,13.88,mg/dL,7.0,20.0,13.88,13.88,mg/dL,7.0,20.0,NORMAL,Y,BASELINE,2,2024-10-19,1
STUDY001,LB,STUDY001-SUBJ0004,17,L00017,CREAT,Creatinine,CHEMISTRY,0.88,mg/dL,0.6,1.2,0.88,0.88,mg/dL,0.6,1.2,NORMAL,Y,BASELINE,2,2024-10-19,1
STUDY001,LB,STUDY001-SUBJ0004,18,L00018,BILI,Total Bilirubin,CHEMISTRY,0.88,mg/dL,0.1,1.2,0.88,0.88,mg/dL,0.1,1.2,NORMAL,Y,BASELINE,2,2024-10-19,1
STUDY001,LB,STUDY001-SUBJ0004,19,L00019,ALP,Alkaline Phosphatase,CHEMISTRY,101.73,U/L,44.0,147.0,101.73,101.73,U/L,44.0,147.0,NORMAL,Y,BASELINE,2,2024-10-19,1
STUDY001,LB,STUDY001-SUBJ0004,20,L00020,ALT,Alanine Aminotransferase,CHEMISTRY,30.19,U/L,7.0,56.0,30.19,30.19,U/L,7.0,56.0,NORMAL,Y,BASELINE,2,2024-10-19,1
STUDY001,LB,STUDY001-SUBJ0004,21,L00021,HGB,Hemoglobin,HEMATOLOGY,14.28,g/dL,13.5,17.5,14.28,14.28,g/dL,13.5,17.5,NORMAL,,WEEK 1,3,2024-10-25,7
STUDY001,LB,STUDY001-SUBJ0004,22,L00022,HCT,Hematocrit,HEMATOLOGY,44.68,%,41.0,51.0,44.68,44.68,%,41.0,51.0,NORMAL,,WEEK 1,3,2024-10-25,7
STUDY001,LB,STUDY001-SUBJ0004,23,L00023,WBC,White Blood Cell Count,HEMATOLOGY,7.62,10^9/L,4.5,11.0,7.62,7.62,10^9/L,4.5,11.0,NORMAL,,WEEK 1,3,2024-10-25,7
STUDY001,LB,STUDY001-SUBJ0004,24,L00024,PLT,Platelet Count,HEMATOLOGY,261.33,10^9/L,150.0,450.0,261.33,261.33,10^9/L,150.0,450.0,NORMAL,,WEEK 1,3,2024-10-25,7
STUDY001,LB,STUDY001-SUBJ0004,25,L00025,GLUC,Glucose,CHEMISTRY,116.54,mg/dL,70.0,100.0,116.54,116.54,mg/dL,70.0,100.0,HIGH,,WEEK 1,3,2024-10-25,7
STUDY001,LB,STUDY001-SUBJ0004,26,L00026,BUN,Blood Urea Nitrogen,CHEMISTRY,13.43,mg/dL,7.0,20.0,13.43,13.43,mg/dL,7.0,20.0,NORMAL,,WEEK 1,3,2024-10-25,7
STUDY001,LB,STUDY001-SUBJ0004,27,L00027,CREAT,Creatinine,CHEMISTRY,0.89,mg/dL,0.6,1.2,0.89,0.89,mg/dL,0.6,1.2,NORMAL,,WEEK 1,3,2024-10-25,7
STUDY001,LB,STUDY001-SUBJ0004,28,L00028,BILI,Total Bilirubin,CHEMISTRY,0.85,mg/dL,0.1,1.2,0.85,0.85,mg/dL,0.1,1.2,NORMAL,,WEEK 1,3,2024-10-25,7
STUDY001,LB,STUDY001-SUBJ0004,29,L00029,ALP,Alkaline Phosphatase,CHEMISTRY,98.61,U/L,44.0,147.0,98.61,98.61,U/L,44.0,147.0,NORMAL,,WEEK 1,3,2024-10-25,7
STUDY001,LB,STUDY001-SUBJ0004,30,L00030,ALT,Alanine Aminotransferase,CHEMISTRY,31.83,U/L,7.0,56.0,31.83,31.83,U/L,7.0,56.0,NORMAL,,WEEK 1,3,2024-10-25,7
STUDY001,LB,STUDY001-SUBJ0004,31,L00031,HGB,Hemoglobin,HEMATOLOGY,14.33,g/dL,13.5,17.5,14.33,14.33,g/dL,13.5,17.5,NORMAL,,WEEK 2,4,2024-11-01,14
STUDY001,LB,STUDY001-SUBJ0004,32,L00032,HCT,Hematocrit,HEMATOLOGY,45.36,%,41.0,51.0,45.36,45.36,%,41.0,51.0,NORMAL,,WEEK 2,4,2024-11-01,14
STUDY001,LB,STUDY001-SUBJ0004,33,L00033,WBC,White Blood Cell Count,HEMATOLOGY,7.66,10^9/L,4.5,11.0,7.66,7.66,10^9/L,4.5,11.0,NORMAL,,WEEK 2,4,2024-11-01,14
STUDY001,LB,STUDY001-SUBJ0004,34,L00034,PLT,Platelet Count,HEMATOLOGY,248.53,10^9/L,150.0,450.0,248.53,248.53,10^9/L,150.0,450.0,NORMAL,,WEEK 2,4,2024-11-01,14
STUDY001,LB,STUDY001-SUBJ0004,35,L00035,GLUC,Glucose,CHEMISTRY,117.0,mg/dL,70.0,100.0,117.0,117.0,mg/dL,70.0,100.0,HIGH,,WEEK 2,4,2024-11-01,14
STUDY001,LB,STUDY001-SUBJ0004,36,L00036,BUN,Blood Urea Nitrogen,CHEMISTRY,13.54,mg/dL,7.0,20.0,13.54,13.54,mg/dL,7.0,20.0,NORMAL,,WEEK 2,4,2024-11-01,14
STUDY001,LB,STUDY001-SUBJ0004,37,L00037,CREAT,Creatinine,CHEMISTRY,0.87,mg/dL,0.6,1.2,0.87,0.87,mg/dL,0.6,1.2,NORMAL,,WEEK 2,4,2024-11-01,14
STUDY001,LB,STUDY001-SUBJ0004,38,L00038,BILI,Total Bilirubin,CHEMISTRY,0.86,mg/dL,0.1,1.2,0.86,0.86,mg/dL,0.1,1.2,NORMAL,,WEEK 2,4,2024-11-01,14
STUDY001,LB,STUDY001-SUBJ0004,39,L00039,ALP,Alkaline Phosphatase,CHEMISTRY,101.0,U/L,44.0,147.0,101.0,101.0,U/L,44.0,147.0,NORMAL,,WEEK 2,4,2024-11-01,14
STUDY001,LB,STUDY001-SUBJ0004,40,L00040,ALT,Alanine Aminotransferase,CHEMISTRY,31.05,U/L,7.0,56.0,31.05,31.05,U/L,7.0,56.0,NORMAL,,WEEK 2,4,2024-11-01,14
STUDY001,LB,STUDY001-SUBJ0004,41,L00041,HGB,Hemoglobin,HEMATOLOGY,14.31,g/dL,13.5,17.5,14.31,14.31,g/dL,13.5,17.5,NORMAL,,WEEK 4,5,2024-11-15,28
STUDY001,LB,STUDY001-SUBJ0004,42,L00042,HCT,Hematocrit,HEMATOLOGY,45.31,%,41.0,51.0,45.31,45.31,%,41.0,51.0,NORMAL,,WEEK 4,5,2024-11-15,28
STUDY001,LB,STUDY001-SUBJ0004,43,L00043,WBC,White Blood Cell Count,HEMATOLOGY,7.54,10^9/L,4.5,11.0,7.54,7.54,10^9/L,4.5,11.0,NORMAL,,WEEK 4,5,2024-11-15,28
STUDY001,LB,STUDY001-SUBJ0004,44,L00044,PLT,Platelet Count,HEMATOLOGY,261.15,10^9/L,150.0,450.0,261.15,261.15,10^9/L,150.0,450.0,NORMAL,,WEEK 4,5,2024-11-15,28
STUDY001,LB,STUDY001-SUBJ0004,45,L00045,GLUC,Glucose,CHEMISTRY,116.18,mg/dL,70.0,100.0,116.18,116.18,mg/dL,70.0,100.0,HIGH,,WEEK 4,5,2024-11-15,28
STUDY001,LB,STUDY001-SUBJ0004,46,L00046,BUN,Blood Urea Nitrogen,CHEMISTRY,13.48,mg/dL,7.0,20.0,13.48,13.48,mg/dL,7.0,20.0,NORMAL,,WEEK 4,5,2024-11-15,28
STUDY001,LB,STUDY001-SUBJ0004,47,L00047,CREAT,Creatinine,CHEMISTRY,0.85,mg/dL,0.6,1.2,0.85,0.85,mg/dL,0.6,1.2,NORMAL,,WEEK 4,5,2024-11-15,28
STUDY001,LB,STUDY001-SUBJ0004,48,L00048,BILI,Total Bilirubin,CHEMISTRY,0.89,mg/dL,0.1,1.2,0.89,0.89,mg/dL,0.1,1.2,NORMAL,,WEEK 4,5,2024-11-15,28
STUDY001,LB,STUDY001-SUBJ0004,49,L00049,ALP,Alkaline Phosphatase,CHEMISTRY,98.62,U/L,44.0,147.0,98.62,98.62,U/L,44.0,147.0,NORMAL,,WEEK 4,5,2024-11-15,28
STUDY001,LB,STUDY001-SUBJ0004,50,L00050,ALT,Alanine Aminotransferase,CHEMISTRY,32.55,U/L,7.0,56.0,32.55,32.55,U/L,7.0,56.0,NORMAL,,WEEK 4,5,2024-11-15,28
STUDY001,LB,STUDY001-SUBJ0004,51,L00051,HGB,Hemoglobin,HEMATOLOGY,14.38,g/dL,13.5,17.5,14.38,14.38,g/dL,13.5,17.5,NORMAL,,WEEK 8,6,2024-12-13,56
STUDY001,LB,STUDY001-SUBJ0004,52,L00052,HCT,Hematocrit,HEMATOLOGY,45.49,%,41.0,51.0,45.49,45.49,%,41.0,51.0,NORMAL,,WEEK 8,6,2024-12-13,56
STUDY001,LB,STUDY001-SUBJ0004,53,L00053,WBC,White Blood Cell Count,HEMATOLOGY,7.58,10^9/L,4.5,11.0,7.58,7.58,10^9/L,4.5,11.0,NORMAL,,WEEK 8,6,2024-12-13,56
STUDY001,LB,STUDY001-SUBJ0004,54,L00054,PLT,Platelet Count,HEMATOLOGY,254.57,10^9/L,150.0,450.0,254.57,254.57,10^9/L,150.0,450.0,NORMAL,,WEEK 8,6,2024-12-13,56
STUDY001,LB,STUDY001-SUBJ0004,55,L00055,GLUC,Glucose,CHEMISTRY,117.62,mg/dL,70.0,100.0,117.62,117.62,mg/dL,70.0,100.0,HIGH,,WEEK 8,6,2024-12-13,56
STUDY001,LB,STUDY001-SUBJ0004,56,L00056,BUN,Blood Urea Nitrogen,CHEMISTRY,14.41,mg/dL,7.0,20.0,14.41,14.41,mg/dL,7.0,20.0,NORMAL,,WEEK 8,6,2024-12-13,56
STUDY001,LB,STUDY001-SUBJ0004,57,L00057,CREAT,Creatinine,CHEMISTRY,0.87,mg/dL,0.6,1.2,0.87,0.87,mg/dL,0.6,1.2,NORMAL,,WEEK 8,6,2024-12-13,56
STUDY001,LB,STUDY001-SUBJ0004,58,L00058,BILI,Total Bilirubin,CHEMISTRY,0.86,mg/dL,0.1,1.2,0.86,0.86,mg/dL,0.1,1.2,NORMAL,,WEEK 8,6,2024-12-13,56
STUDY001,LB,STUDY001-SUBJ0004,59,L00059,ALP,Alkaline Phosphatase,CHEMISTRY,100.7,U/L,44.0,147.0,100.7,100.7,U/L,44.0,147.0,NORMAL,,WEEK 8,6,2024-12-13,56
STUDY001,LB,STUDY001-SUBJ0004,60,L00060,ALT,Alanine Aminotransferase,CHEMISTRY,30.07,U/L,7.0,56.0,30.07,30.07,U/L,7.0,56.0,NORMAL,,WEEK 8,6,2024-12-13,56
STUDY001,LB,STUDY001-SUBJ0004,61,L00061,HGB,Hemoglobin,HEMATOLOGY,14.34,g/dL,13.5,17.5,14.34,14.34,g/dL,13.5,17.5,NORMAL,,WEEK 12,7,2025-01-10,84
STUDY001,LB,STUDY001-SUBJ0004,62,L00062,HCT,Hematocrit,HEMATOLOGY,45.11,%,41.0,51.0,45.11,45.11,%,41.0,51.0,NORMAL,,WEEK 12,7,2025-01-10,84
STUDY001,LB,STUDY001-SUBJ0004,63,L00063,WBC,White Blood Cell Count,HEMATOLOGY,7.77,10^9/L,4.5,11.0,7.77,7.77,10^9/L,4.5,11.0,NORMAL,,WEEK 12,7,2025-01-10,84
STUDY001,LB,STUDY001-SUBJ0004,64,L00064,PLT,Platelet Count,HEMATOLOGY,255.36,10^9/L,150.0,450.0,255.36,255.36,10^9/L,150.0,450.0,NORMAL,,WEEK 12,7,2025-01-10,84
STUDY001,LB,STUDY001-SUBJ0004,65,L00065,GLUC,Glucose,CHEMISTRY,115.3,mg/dL,70.0,100.0,115.3,115.3,mg/dL,70.0,100.0,HIGH,,WEEK 12,7,2025-01-10,84
STUDY001,LB,STUDY001-SUBJ0004,66,L00066,BUN,Blood Urea Nitrogen,CHEMISTRY,14.18,mg/dL,7.0,20.0,14.18,14.18,mg/dL,7.0,20.0,NORMAL,,WEEK 12,7,2025-01-10,84
STUDY001,LB,STUDY001-SUBJ0004,67,L00067,CREAT,Creatinine,CHEMISTRY,0.85,mg/dL,0.6,1.2,0.85,0.85,mg/dL,0.6,1.2,NORMAL,,WEEK 12,7,2025-01-10,84
STUDY001,LB,STUDY001-SUBJ0004,68,L00068,BILI,Total Bilirubin,CHEMISTRY,0.88,mg/dL,0.1,1.2,0.88,0.88,mg/dL,0.1,1.2,NORMAL,,WEEK 12,7,2025-01-10,84
STUDY001,LB,STUDY001-SUBJ0004,69,L00069,ALP,Alkaline Phosphatase,CHEMISTRY,101.63,U/L,44.0,147.0,101.63,101.63,U/L,44.0,147.0,NORMAL,,WEEK 12,7,2025-01-10,84
STUDY001,LB,STUDY001-SUBJ0004,70,L00070,ALT,Alanine Aminotransferase,CHEMISTRY,30.0,U/L,7.0,56.0,30.0,30.0,U/L,7.0,56.0,NORMAL,,WEEK 12,7,2025-01-10,84
STUDY001,LB,STUDY001-SUBJ0004,71,L00071,HGB,Hemoglobin,HEMATOLOGY,14.16,g/dL,13.5,17.5,14.16,14.16,g/dL,13.5,17.5,NORMAL,,WEEK 16,8,2025-02-07,112
STUDY001,LB,STUDY001-SUBJ0004,72,L00072,HCT,Hematocrit,HEMATOLOGY,44.97,%,41.0,51.0,44.97,44.97,%,41.0,51.0,NORMAL,,WEEK 16,8,2025-02-07,112
STUDY001,LB,STUDY001-SUBJ0004,73,L00073,WBC,White Blood Cell Count,HEMATOLOGY,7.82,10^9/L,4.5,11.0,7.82,7.82,10^9/L,4.5,11.0,NORMAL,,WEEK 16,8,2025-02-07,112
STUDY001,LB,STUDY001-SUBJ0004,74,L00074,PLT,Platelet Count,HEMATOLOGY,254.47,10^9/L,150.0,450.0,254.47,254.47,10^9/L,150.0,450.0,NORMAL,,WEEK 16,8,2025-02-07,112
STUDY001,LB,STUDY001-SUBJ0004,75,L00075,GLUC,Glucose,CHEMISTRY,115.19,mg/dL,70.0,100.0,115.19,115.19,mg/dL,70.0,100.0,HIGH,,WEEK 16,8,2025-02-07,112
STUDY001,LB,STUDY001-SUBJ0004,76,L00076,BUN,Blood Urea Nitrogen,CHEMISTRY,13.98,mg/dL,7.0,20.0,13.98,13.98,mg/dL,7.0,20.0,NORMAL,,WEEK 16,8,2025-02-07,112
STUDY001,LB,STUDY001-SUBJ0004,77,L00077,CREAT,Creatinine,CHEMISTRY,0.87,mg/dL,0.6,1.2,0.87,0.87,mg/dL,0.6,1.2,NORMAL,,WEEK 16,8,2025-02-07,112
STUDY001,LB,STUDY001-SUBJ0004,78,L00078,BILI,Total Bilirubin,CHEMISTRY,0.84,mg/dL,0.1,1.2,0.84,0.84,mg/dL,0.1,1.2,NORMAL,,WEEK 16,8,2025-02-07,112
STUDY001,LB,STUDY001-SUBJ0004,79,L00079,ALP,Alkaline Phosphatase,CHEMISTRY,99.53,U/L,44.0,147.0,99.53,99.53,U/L,44.0,147.0,NORMAL,,WEEK 16,8,2025-02-07,112
STUDY001,LB,STUDY001-SUBJ0004,80,L00080,ALT,Alanine Aminotransferase,CHEMISTRY,29.39,U/L,7.0,56.0,29.39,29.39,U/L,7.0,56.0,NORMAL,,WEEK 16,8,2025-02-07,112
STUDY001,LB,STUDY001-SUBJ0004,81,L00081,HGB,Hemoglobin,HEMATOLOGY,14.59,g/dL,13.5,17.5,14.59,14.59,g/dL,13.5,17.5,NORMAL,,END OF TREATMENT,9,2025-03-07,140
STUDY001,LB,STUDY001-SUBJ0004,82,L00082,HCT,Hematocrit,HEMATOLOGY,45.15,%,41.0,51.0,45.15,45.15,%,41.0,51.0,NORMAL,,END OF TREATMENT,9,2025-03-07,140
STUDY001,LB,STUDY001-SUBJ0004,83,L00083,WBC,White Blood Cell Count,HEMATOLOGY,7.69,10^9/L,4.5,11.0,7.69,7.69,10^9/L,4.5,11.0,NORMAL,,END OF TREATMENT,9,2025-03-07,140
STUDY001,LB,STUDY001-SUBJ0004,84,L00084,PLT,Platelet Count,HEMATOLOGY,256.44,10^9/L,150.0,450.0,256.44,256.44,10^9/L,150.0,450.0,NORMAL,,END OF TREATMENT,9,2025-03-07,140
STUDY001,LB,STUDY001-SUBJ0004,85,L00085,GLUC,Glucose,CHEMISTRY,115.26,mg/dL,70.0,100.0,115.26,115.26,mg/dL,70.0,100.0,HIGH,,END OF TREATMENT,9,2025-03-07,140
STUDY001,LB,STUDY001-SUBJ0004,86,L00086,BUN,Blood Urea Nitrogen,CHEMISTRY,14.33,mg/dL,7.0,20.0,14.33,14.33,mg/dL,7.0,20.0,NORMAL,,END OF TREATMENT,9,2025-03-07,140
STUDY001,LB,STUDY001-SUBJ0004,87,L00087,CREAT,Creatinine,CHEMISTRY,0.86,mg/dL,0.6,1.2,0.86,0.86,mg/dL,0.6,1.2,NORMAL,,END OF TREATMENT,9,2025-03-07,140
STUDY001,LB,STUDY001-SUBJ0004,88,L00088,BILI,Total Bilirubin,CHEMISTRY,0.85,mg/dL,0.1,1.2,0.85,0.85,mg/dL,0.1,1.2,NORMAL,,END OF TREATMENT,9,2025-03-07,140
STUDY001,LB,STUDY001-SUBJ0004,89,L00089,ALP,Alkaline Phosphatase,CHEMISTRY,101.26,U/L,44.0,147.0,101.26,101.26,U/L,44.0,147.0,NORMAL,,END OF TREATMENT,9,2025-03-07,140
STUDY001,LB,STUDY001-SUBJ0004,90,L00090,ALT,Alanine Aminotransferase,CHEMISTRY,32.92,U/L,7.0,56.0,32.92,32.92,U/L,7.0,56.0,NORMAL,,END OF TREATMENT,9,2025-03-07,140
STUDY001,LB,STUDY001-SUBJ0005,1,L00001,HGB,Hemoglobin,HEMATOLOGY,15.72,g/dL,13.5,17.5,15.72,15.72,g/dL,13.5,17.5,NORMAL,,SCREENING,1,2024-09-01,-14
STUDY001,LB,STUDY001-SUBJ0005,2,L00002,HCT,Hematocrit,HEMATOLOGY,48.08,%,41.0,51.0,48.08,48.08,%,41.0,51.0,NORMAL,,SCREENING,1,2024-09-01,-14
STUDY001,LB,STUDY001-SUBJ0005,3,L00003,WBC,White Blood Cell Count,HEMATOLOGY,5.09,10^9/L,4.5,11.0,5.09,5.09,10^9/L,4.5,11.0,NORMAL,,SCREENING,1,2024-09-01,-14
STUDY001,LB,STUDY001-SUBJ0005,4,L00004,PLT,Platelet Count,HEMATOLOGY,265.53,10^9/L,150.0,450.0,265.53,265.53,10^9/L,150.0,450.0,NORMAL,,SCREENING,1,2024-09-01,-14
STUDY001,LB,STUDY001-SUBJ0005,5,L00005,GLUC,Glucose,CHEMISTRY,64.83,mg/dL,70.0,100.0,64.83,64.83,mg/dL,70.0,100.0,LOW,,SCREENING,1,2024-09-01,-14
STUDY001,LB,STUDY001-SUBJ0005,6,L00006,BUN,Blood Urea Nitrogen,CHEMISTRY,12.81,mg/dL,7.0,20.0,12.81,12.81,mg/dL,7.0,20.0,NORMAL,,SCREENING,1,2024-09-01,-14
STUDY001,LB,STUDY001-SUBJ0005,7,L00007,CREAT,Creatinine,CHEMISTRY,0.82,mg/dL,0.6,1.2,0.82,0.82,mg/dL,0.6,1.2,NORMAL,,SCREENING,1,2024-09-01,-14
STUDY001,LB,STUDY001-SUBJ0005,8,L00008,BILI,Total Bilirubin,CHEMISTRY,0.48,mg/dL,0.1,1.2,0.48,0.48,mg/dL,0.1,1.2,NORMAL,,SCREENING,1,2024-09-01,-14
STUDY001,LB,STUDY001-SUBJ0005,9,L00009,ALP,Alkaline Phosphatase,CHEMISTRY,106.8,U/L,44.0,147.0,106.8,106.8,U/L,44.0,147.0,NORMAL,,SCREENING,1,2024-09-01,-14
STUDY001,LB,STUDY001-SUBJ0005,10,L00010,ALT,Alanine Aminotransferase,CHEMISTRY,8.66,U/L,7.0,56.0,8.66,8.66,U/L,7.0,56.0,NORMAL,,SCREENING,1,2024-09-01,-14
STUDY001,LB,STUDY001-SUBJ0005,11,L00011,HGB,Hemoglobin,HEMATOLOGY,15.55,g/dL,13.5,17.5,15.55,15.55,g/dL,13.5,17.5,NORMAL,Y,BASELINE,2,2024-09-15,1
STUDY001,LB,STUDY001-SUBJ0005,12,L00012,HCT,Hematocrit,HEMATOLOGY,48.51,%,41.0,51.0,48.51,48.51,%,41.0,51.0,NORMAL,Y,BASELINE,2,2024-09-15,1
STUDY001,LB,STUDY001-SUBJ0005,13,L00013,WBC,White Blood Cell Count,HEMATOLOGY,4.88,10^9/L,4.5,11.0,4.88,4.88,10^9/L,4.5,11.0,NORMAL,Y,BASELINE,2,2024-09-15,1
STUDY001,LB,STUDY001-SUBJ0005,14,L00014,PLT,Platelet Count,HEMATOLOGY,259.36,10^9/L,150.0,450.0,259.36,259.36,10^9/L,150.0,450.0,NORMAL,Y,BASELINE,2,2024-09-15,1
STUDY001,LB,STUDY001-SUBJ0005,15,L00015,GLUC,Glucose,CHEMISTRY,66.02,mg/dL,70.0,100.0,66.02,66.02,mg/dL,70.0,100.0,LOW,Y,BASELINE,2,2024-09-15,1
STUDY001,LB,STUDY001-SUBJ0005,16,L00016,BUN,Blood Urea Nitrogen,CHEMISTRY,11.95,mg/dL,7.0,20.0,11.95,11.95,mg/dL,7.0,20.0,NORMAL,Y,BASELINE,2,2024-09-15,1
STUDY001,LB,STUDY001-SUBJ0005,17,L00017,CREAT,Creatinine,CHEMISTRY,0.82,mg/dL,0.6,1.2,0.82,0.82,mg/dL,0.6,1.2,NORMAL,Y,BASELINE,2,2024-09-15,1
STUDY001,LB,STUDY001-SUBJ0005,18,L00018,BILI,Total Bilirubin,CHEMISTRY,0.48,mg/dL,0.1,1.2,0.48,0.48,mg/dL,0.1,1.2,NORMAL,Y,BASELINE,2,2024-09-15,1
STUDY001,LB,STUDY001-SUBJ0005,19,L00019,ALP,Alkaline Phosphatase,CHEMISTRY,105.48,U/L,44.0,147.0,105.48,105.48,U/L,44.0,147.0,NORMAL,Y,BASELINE,2,2024-09-15,1
STUDY001,LB,STUDY001-SUBJ0005,20,L00020,ALT,Alanine Aminotransferase,CHEMISTRY,7.53,U/L,7.0,56.0,7.53,7.53,U/L,7.0,56.0,NORMAL,Y,BASELINE,2,2024-09-15,1
STUDY001,LB,STUDY001-SUBJ0005,21,L00021,HGB,Hemoglobin,HEMATOLOGY,15.57,g/dL,13.5,17.5,15.57,15.57,g/dL,13.5,17.5,NORMAL,,WEEK 1,3,2024-09-21,7
STUDY001,LB,STUDY001-SUBJ0005,22,L00022,HCT,Hematocrit,HEMATOLOGY,48.68,%,41.0,51.0,48.68,48.68,%,41.0,51.0,NORMAL,,WEEK 1,3,2024-09-21,7
STUDY001,LB,STUDY001-SUBJ0005,23,L00023,WBC,White Blood Cell Count,HEMATOLOGY,5.12,10^9/L,4.5,11.0,5.12,5.12,10^9/L,4.5,11.0,NORMAL,,WEEK 1,3,2024-09-21,7
STUDY001,LB,STUDY001-SUBJ0005,24,L00024,PLT,Platelet Count,HEMATOLOGY,256.87,10^9/L,150.0,450.0,256.87,256.87,10^9/L,150.0,450.0,NORMAL,,WEEK 1,3,2024-09-21,7
STUDY001,LB,STUDY001-SUBJ0005,25,L00025,GLUC,Glucose,CHEMISTRY,65.98,mg/dL,70.0,100.0,65.98,65.98,mg/dL,70.0,100.0,LOW,,WEEK 1,3,2024-09-21,7
STUDY001,LB,STUDY001-SUBJ0005,26,L00026,BUN,Blood Urea Nitrogen,CHEMISTRY,12.89,mg/dL,7.0,20.0,12.89,12.89,mg/dL,7.0,20.0,NORMAL,,WEEK 1,3,2024-09-21,7
STUDY001,LB,STUDY001-SUBJ0005,27,L00027,CREAT,Creatinine,CHEMISTRY,0.83,mg/dL,0.6,1.2,0.83,0.83,mg/dL,0.6,1.2,NORMAL,,WEEK 1,3,2024-09-21,7
STUDY001,LB,STUDY001-SUBJ0005,28,L00028,BILI,Total Bilirubin,CHEMISTRY,0.47,mg/dL,0.1,1.2,0.47,0.47,mg/dL,0.1,1.2,NORMAL,,WEEK 1,3,2024-09-21,7
STUDY001,LB,STUDY001-SUBJ0005,29,L00029,ALP,Alkaline Phosphatase,CHEMISTRY,106.44,U/L,44.0,147.0,106.44,106.44,U/L,44.0,147.0,NORMAL,,WEEK 1,3,2024-09-21,7
STUDY001,LB,STUDY001-SUBJ0005,30,L00030,ALT,Alanine Aminotransferase,CHEMISTRY,8.58,U/L,7.0,56.0,8.58,8.58,U/L,7.0,56.0,NORMAL,,WEEK 1,3,2024-09-21,7
STUDY001,LB,STUDY001-SUBJ0005,31,L00031,HGB,Hemoglobin,HEMATOLOGY,15.67,g/dL,13.5,17.5,15.67,15.67,g/dL,13.5,17.5,NORMAL,,WEEK 2,4,2024-09-28,14
STUDY001,LB,STUDY001-SUBJ0005,32,L00032,HCT,Hematocrit,HEMATOLOGY,48.31,%,41.0,51.0,48.31,48.31,%,41.0,51.0,NORMAL,,WEEK 2,4,2024-09-28,14
STUDY001,LB,STUDY001-SUBJ0005,33,L00033,WBC,White Blood Cell Count,HEMATOLOGY,4.92,10^9/L,4.5,11.0,4.92,4.92,10^9/L,4.5,11.0,NORMAL,,WEEK 2,4,2024-09-28,14
STUDY001,LB,STUDY001-SUBJ0005,34,L00034,PLT,Platelet Count,HEMATOLOGY,260.23,10^9/L,150.0,450.0,260.23,260.23,10^9/L,150.0,450.0,NORMAL,,WEEK 2,4,2024-09-28,14
STUDY001,LB,STUDY001-SUBJ0005,35,L00035,GLUC,Glucose,CHEMISTRY,65.27,mg/dL,70.0,100.0,65.27,65.27,mg/dL,70.0,100.0,LOW,,WEEK 2,4,2024-09-28,14
STUDY001,LB,STUDY001-SUBJ0005,36,L00036,BUN,Blood Urea Nitrogen,CHEMISTRY,12.72,mg/dL,7.0,20.0,12.72,12.72,mg/dL,7.0,20.0,NORMAL,,WEEK 2,4,2024-09-28,14
STUDY001,LB,STUDY001-SUBJ0005,37,L00037,CREAT,Creatinine,CHEMISTRY,0.81,mg/dL,0.6,1.2,0.81,0.81,mg/dL,0.6,1.2,NORMAL,,WEEK 2,4,2024-09-28,14
STUDY001,LB,STUDY001-SUBJ0005,38,L00038,BILI,Total Bilirubin,CHEMISTRY,0.47,mg/dL,0.1,1.2,0.47,0.47,mg/dL,0.1,1.2,NORMAL,,WEEK 2,4,2024-09-28,14
STUDY001,LB,STUDY001-SUBJ0005,39,L00039,ALP,Alkaline Phosphatase,CHEMISTRY,105.97,U/L,44.0,147.0,105.97,105.97,U/L,44.0,147.0,NORMAL,,WEEK 2,4,2024-09-28,14
STUDY001,LB,STUDY001-SUBJ0005,40,L00040,ALT,Alanine Aminotransferase,CHEMISTRY,7.97,U/L,7.0,56.0,7.97,7.97,U/L,7.0,56.0,NORMAL,,WEEK 2,4,2024-09-28,14
STUDY001,LB,STUDY001-SUBJ0005,41,L00041,HGB,Hemoglobin,HEMATOLOGY,15.65,g/dL,13.5,17.5,15.65,15.65,g/dL,13.5,17.5,NORMAL,,WEEK 4,5,2024-10-12,28
STUDY001,LB,STUDY001-SUBJ0005,42,L00042,HCT,Hematocrit,HEMATOLOGY,48.59,%,41.0,51.0,48.59,48.59,%,41.0,51.0,NORMAL,,WEEK 4,5,2024-10-12,28
STUDY001,LB,STUDY001-SUBJ0005,43,L00043,WBC,White Blood Cell Count,HEMATOLOGY,5.03,10^9/L,4.5,11.0,5.03,5.03,10^9/L,4.5,11.0,NORMAL,,WEEK 4,5,2024-10-12,28
STUDY001,LB,STUDY001-SUBJ0005,44,L00044,PLT,Platelet Count,HEMATOLOGY,262.09,10^9/L,150.0,450.0,262.09,262.09,10^9/L,150.0,450.0,NORMAL,,WEEK 4,5,2024-10-12,28
STUDY001,LB,STUDY001-SUBJ0005,45,L00045,GLUC,Glucose,CHEMISTRY,63.75,mg/dL,70.0,100.0,63.75,63.75,mg/dL,70.0,100.0,LOW,,WEEK 4,5,2024-10-12,28
STUDY001,LB,STUDY001-SUBJ0005,46,L00046,BUN,Blood Urea Nitrogen,CHEMISTRY,12.55,mg/dL,7.0,20.0,12.55,12.55,mg/dL,7.0,20.0,NORMAL,,WEEK 4,5,2024-10-12,28
STUDY001,LB,STUDY001-SUBJ0005,47,L00047,CREAT,Creatinine,CHEMISTRY,0.81,mg/dL,0.6,1.2,0.81,0.81,mg/dL,0.6,1.2,NORMAL,,WEEK 4,5,2024-10-12,28
STUDY001,LB,STUDY001-SUBJ0005,48,L00048,BILI,Total Bilirubin,CHEMISTRY,0.48,mg/dL,0.1,1.2,0.48,0.48,mg/dL,0.1,1.2,NORMAL,,WEEK 4,5,2024-10-12,28
STUDY001,LB,STUDY001-SUBJ0005,49,L00049,ALP,Alkaline Phosphatase,CHEMISTRY,106.57,U/L,44.0,147.0,106.57,106.57,U/L,44.0,147.0,NORMAL,,WEEK 4,5,2024-10-12,28
STUDY001,LB,STUDY001-SUBJ0005,50,L00050,ALT,Alanine Aminotransferase,CHEMISTRY,9.5,U/L,7.0,56.0,9.5,9.5,U/L,7.0,56.0,NORMAL,,WEEK 4,5,2024-10-12,28
STUDY001,LB,STUDY001-SUBJ0005,51,L00051,HGB,Hemoglobin,HEMATOLOGY,15.62,g/dL,13.5,17.5,15.62,15.62,g/dL,13.5,17.5,NORMAL,,WEEK 8,6,2024-11-09,56
STUDY001,LB,STUDY001-SUBJ0005,52,L00052,HCT,Hematocrit,HEMATOLOGY,47.66,%,41.0,51.0,47.66,47.66,%,41.0,51.0,NORMAL,,WEEK 8,6,2024-11-09,56
STUDY001,LB,STUDY001-SUBJ0005,53,L00053,WBC,White Blood Cell Count,HEMATOLOGY,4.98,10^9/L,4.5,11.0,4.98,4.98,10^9/L,4.5,11.0,NORMAL,,WEEK 8,6,2024-11-09,56
STUDY001,LB,STUDY001-SUBJ0005,54,L00054,PLT,Platelet Count,HEMATOLOGY,257.76,10^9/L,150.0,450.0,257.76,257.76,10^9/L,150.0,450.0,NORMAL,,WEEK 8,6,2024-11-09,56
STUDY001,LB,STUDY001-SUBJ0005,55,L00055,GLUC,Glucose,CHEMISTRY,64.82,mg/dL,70.0,100.0,64.82,64.82,mg/dL,70.0,100.0,LOW,,WEEK 8,6,2024-11-09,56
STUDY001,LB,STUDY001-SUBJ0005,56,L00056,BUN,Blood Urea Nitrogen,CHEMISTRY,12.11,mg/dL,7.0,20.0,12.11,12.11,mg/dL,7.0,20.0,NORMAL,,WEEK 8,6,2024-11-09,56
STUDY001,LB,STUDY001-SUBJ0005,57,L00057,CREAT,Creatinine,CHEMISTRY,0.84,mg/dL,0.6,1.2,0.84,0.84,mg/dL,0.6,1.2,NORMAL,,WEEK 8,6,2024-11-09,56
STUDY001,LB,STUDY001-SUBJ0005,58,L00058,BILI,Total Bilirubin,CHEMISTRY,0.47,mg/dL,0.1,1.2,0.47,0.47,mg/dL,0.1,1.2,NORMAL,,WEEK 8,6,2024-11-09,56
STUDY001,LB,STUDY001-SUBJ0005,59,L00059,ALP,Alkaline Phosphatase,CHEMISTRY,108.38,U/L,44.0,147.0,108.38,108.38,U/L,44.0,147.0,NORMAL,,WEEK 8,6,2024-11-09,56
STUDY001,LB,STUDY001-SUBJ0005,60,L00060,ALT,Alanine Aminotransferase,CHEMISTRY,9.87,U/L,7.0,56.0,9.87,9.87,U/L,7.0,56.0,NORMAL,,WEEK 8,6,2024-11-09,56
STUDY001,LB,STUDY001-SUBJ0005,61,L00061,HGB,Hemoglobin,HEMATOLOGY,15.59,g/dL,13.5,17.5,15.59,15.59,g/dL,13.5,17.5,NORMAL,,WEEK 12,7,2024-12-07,84
STUDY001,LB,STUDY001-SUBJ0005,62,L00062,HCT,Hematocrit,HEMATOLOGY,48.23,%,41.0,51.0,48.23,48.23,%,41.0,51.0,NORMAL,,WEEK 12,7,2024-12-07,84
STUDY001,LB,STUDY001-SUBJ0005,63,L00063,WBC,White Blood Cell Count,HEMATOLOGY,5.07,10^9/L,4.5,11.0,5.07,5.07,10^9/L,4.5,11.0,NORMAL,,WEEK 12,7,2024-12-07,84
STUDY001,LB,STUDY001-SUBJ0005,64,L00064,PLT,Platelet Count,HEMATOLOGY,253.42,10^9/L,150.0,450.0,253.42,253.42,10^9/L,150.0,450.0,NORMAL,,WEEK 12,7,2024-12-07,84
STUDY001,LB,STUDY001-SUBJ0005,65,L00065,GLUC,Glucose,CHEMISTRY,63.55,mg/dL,70.0,100.0,63.55,63.55,mg/dL,70.0,100.0,LOW,,WEEK 12,7,2024-12-07,84
STUDY001,LB,STUDY001-SUBJ0005,66,L00066,BUN,Blood Urea Nitrogen,CHEMISTRY,12.67,mg/dL,7.0,20.0,12.67,12.67,mg/dL,7.0,20.0,NORMAL,,WEEK 12,7,2024-12-07,84
STUDY001,LB,STUDY001-SUBJ0005,67,L00067,CREAT,Creatinine,CHEMISTRY,0.81,mg/dL,0.6,1.2,0.81,0.81,mg/dL,0.6,1.2,NORMAL,,WEEK 12,7,2024-12-07,84
STUDY001,LB,STUDY001-SUBJ0005,68,L00068,BILI,Total Bilirubin,CHEMISTRY,0.52,mg/dL,0.1,1.2,0.52,0.52,mg/dL,0.1,1.2,NORMAL,,WEEK 12,7,2024-12-07,84
STUDY001,LB,STUDY001-SUBJ0005,69,L00069,ALP,Alkaline Phosphatase,CHEMISTRY,107.5,U/L,44.0,147.0,107.5,107.5,U/L,44.0,147.0,NORMAL,,WEEK 12,7,2024-12-07,84
STUDY001,LB,STUDY001-SUBJ0005,70,L00070,ALT,Alanine Aminotransferase,CHEMISTRY,9.04,U/L,7.0,56.0,9.04,9.04,U/L,7.0,56.0,NORMAL,,WEEK 12,7,2024-12-07,84
STUDY001,LB,STUDY001-SUBJ0005,71,L00071,HGB,Hemoglobin,HEMATOLOGY,15.54,g/dL,13.5,17.5,15.54,15.54,g/dL,13.5,17.5,NORMAL,,WEEK 16,8,2025-01-04,112
STUDY001,LB,STUDY001-SUBJ0005,72,L00072,HCT,Hematocrit,HEMATOLOGY,48.83,%,41.0,51.0,48.83,48.83,%,41.0,51.0,NORMAL,,WEEK 16,8,2025-01-04,112
STUDY001,LB,STUDY001-SUBJ0005,73,L00073,WBC,White Blood Cell Count,HEMATOLOGY,5.02,10^9/L,4.5,11.0,5.02,5.02,10^9/L,4.5,11.0,NORMAL,,WEEK 16,8,2025-01-04,112
STUDY001,LB,STUDY001-SUBJ0005,74,L00074,PLT,Platelet Count,HEMATOLOGY,259.93,10^9/L,150.0,450.0,259.93,259.93,10^9/L,150.0,450.0,NORMAL,,WEEK 16,8,2025-01-04,112
STUDY001,LB,STUDY001-SUBJ0005,75,L00075,GLUC,Glucose,CHEMISTRY,64.01,mg/dL,70.0,100.0,64.01,64.01,mg/dL,70.0,100.0,LOW,,WEEK 16,8,2025-01-04,112
STUDY001,LB,STUDY001-SUBJ0005,76,L00076,BUN,Blood Urea Nitrogen,CHEMISTRY,12.8,mg/dL,7.0,20.0,12.8,12.8,mg/dL,7.0,20.0,NORMAL,,WEEK 16,8,2025-01-04,112
STUDY001,LB,STUDY001-SUBJ0005,77,L00077,CREAT,Creatinine,CHEMISTRY,0.83,mg/dL,0.6,1.2,0.83,0.83,mg/dL,0.6,1.2,NORMAL,,WEEK 16,8,2025-01-04,112
STUDY001,LB,STUDY001-SUBJ0005,78,L00078,BILI,Total Bilirubin,CHEMISTRY,0.44,mg/dL,0.1,1.2,0.44,0.44,mg/dL,0.1,1.2,NORMAL,,WEEK 16,8,2025-01-04,112
STUDY001,LB,STUDY001-SUBJ0005,79,L00079,ALP,Alkaline Phosphatase,CHEMISTRY,107.88,U/L,44.0,147.0,107.88,107.88,U/L,44.0,147.0,NORMAL,,WEEK 16,8,2025-01-04,112
STUDY001,LB,STUDY001-SUBJ0005,80,L00080,ALT,Alanine Aminotransferase,CHEMISTRY,8.92,U/L,7.0,56.0,8.92,8.92,U/L,7.0,56.0,NORMAL,,WEEK 16,8,2025-01-04,112
STUDY001,LB,STUDY001-SUBJ0005,81,L00081,HGB,Hemoglobin,HEMATOLOGY,15.62,g/dL,13.5,17.5,15.62,15.62,g/dL,13.5,17.5,NORMAL,,END OF TREATMENT,9,2025-02-01,140
STUDY001,LB,STUDY001-SUBJ0005,82,L00082,HCT,Hematocrit,HEMATOLOGY,48.41,%,41.0,51.0,48.41,48.41,%,41.0,51.0,NORMAL,,END OF TREATMENT,9,2025-02-01,140
STUDY001,LB,STUDY001-SUBJ0005,83,L00083,WBC,White Blood Cell Count,HEMATOLOGY,5.17,10^9/L,4.5,11.0,5.17,5.17,10^9/L,4.5,11.0,NORMAL,,END OF TREATMENT,9,2025-02-01,140
STUDY001,LB,STUDY001-SUBJ0005,84,L00084,PLT,Platelet Count,HEMATOLOGY,257.11,10^9/L,150.0,450.0,257.11,257.11,10^9/L,150.0,450.0,NORMAL,,END OF TREATMENT,9,2025-02-01,140
STUDY001,LB,STUDY001-SUBJ0005,85,L00085,GLUC,Glucose,CHEMISTRY,63.09,mg/dL,70.0,100.0,63.09,63.09,mg/dL,70.0,100.0,LOW,,END OF TREATMENT,9,2025-02-01,140
STUDY001,LB,STUDY001-SUBJ0005,86,L00086,BUN,Blood Urea Nitrogen,CHEMISTRY,13.3,mg/dL,7.0,20.0,13.3,13.3,mg/dL,7.0,20.0,NORMAL,,END OF TREATMENT,9,2025-02-01,140
STUDY001,LB,STUDY001-SUBJ0005,87,L00087,CREAT,Creatinine,CHEMISTRY,0.84,mg/dL,0.6,1.2,0.84,0.84,mg/dL,0.6,1.2,NORMAL,,END OF TREATMENT,9,2025-02-01,140
STUDY001,LB,STUDY001-SUBJ0005,88,L00088,BILI,Total Bilirubin,CHEMISTRY,0.46,mg/dL,0.1,1.2,0.46,0.46,mg/dL,0.1,1.2,NORMAL,,END OF TREATMENT,9,2025-02-01,140
STUDY001,LB,STUDY001-SUBJ0005,89,L00089,ALP,Alkaline Phosphatase,CHEMISTRY,108.51,U/L,44.0,147.0,108.51,108.51,U/L,44.0,147.0,NORMAL,,END OF TREATMENT,9,2025-02-01,140
STUDY001,LB,STUDY001-SUBJ0005,90,L00090,ALT,Alanine Aminotransferase,CHEMISTRY,8.87,U/L,7.0,56.0,8.87,8.87,U/L,7.0,56.0,NORMAL,,END OF TREATMENT,9,2025-02-01,140
STUDY001,LB,STUDY001-SUBJ0006,1,L00001,HGB,Hemoglobin,HEMATOLOGY,15.16,g/dL,13.5,17.5,15.16,15.16,g/dL,13.5,17.5,NORMAL,,SCREENING,1,2025-06-26,-14
STUDY001,LB,STUDY001-SUBJ0006,2,L00002,HCT,Hematocrit,HEMATOLOGY,47.96,%,41.0,51.0,47.96,47.96,%,41.0,51.0,NORMAL,,SCREENING,1,2025-06-26,-14
STUDY001,LB,STUDY001-SUBJ0006,3,L00003,WBC,White Blood Cell Count,HEMATOLOGY,5.55,10^9/L,4.5,11.0,5.55,5.55,10^9/L,4.5,11.0,NORMAL,,SCREENING,1,2025-06-26,-14
STUDY001,LB,STUDY001-SUBJ0006,4,L00004,PLT,Platelet Count,HEMATOLOGY,214.85,10^9/L,150.0,450.0,214.85,214.85,10^9/L,150.0,450.0,NORMAL,,SCREENING,1,2025-06-26,-14
STUDY001,LB,STUDY001-SUBJ0006,5,L00005,GLUC,Glucose,CHEMISTRY,70.32,mg/dL,70.0,100.0,70.32,70.32,mg/dL,70.0,100.0,NORMAL,,SCREENING,1,2025-06-26,-14
STUDY001,LB,STUDY001-SUBJ0006,6,L00006,BUN,Blood Urea Nitrogen,CHEMISTRY,13.27,mg/dL,7.0,20.0,13.27,13.27,mg/dL,7.0,20.0,NORMAL,,SCREENING,1,2025-06-26,-14
STUDY001,LB,STUDY001-SUBJ0006,7,L00007,CREAT,Creatinine,CHEMISTRY,0.84,mg/dL,0.6,1.2,0.84,0.84,mg/dL,0.6,1.2,NORMAL,,SCREENING,1,2025-06-26,-14
STUDY001,LB,STUDY001-SUBJ0006,8,L00008,BILI,Total Bilirubin,CHEMISTRY,0.98,mg/dL,0.1,1.2,0.98,0.98,mg/dL,0.1,1.2,NORMAL,,SCREENING,1,2025-06-26,-14
STUDY001,LB,STUDY001-SUBJ0006,9,L00009,ALP,Alkaline Phosphatase,CHEMISTRY,79.23,U/L,44.0,147.0,79.23,79.23,U/L,44.0,147.0,NORMAL,,SCREENING,1,2025-06-26,-14
STUDY001,LB,STUDY001-SUBJ0006,10,L00010,ALT,Alanine Aminotransferase,CHEMISTRY,38.18,U/L,7.0,56.0,38.18,38.18,U/L,7.0,56.0,NORMAL,,SCREENING,1,2025-06-26,-14
STUDY001,LB,STUDY001-SUBJ0006,11,L00011,HGB,Hemoglobin,HEMATOLOGY,15.13,g/dL,13.5,17.5,15.13,15.13,g/dL,13.5,17.5,NORMAL,Y,BASELINE,2,2025-07-10,1
STUDY001,LB,STUDY001-SUBJ0006,12,L00012,HCT,Hematocrit,HEMATOLOGY,47.25,%,41.0,51.0,47.25,47.25,%,41.0,51.0,NORMAL,Y,BASELINE,2,2025-07-10,1
STUDY001,LB,STUDY001-SUBJ0006,13,L00013,WBC,White Blood Cell Count,HEMATOLOGY,5.06,10^9/L,4.5,11.0,5.06,5.06,10^9/L,4.5,11.0,NORMAL,Y,BASELINE,2,2025-07-10,1
STUDY001,LB,STUDY001-SUBJ0006,14,L00014,PLT,Platelet Count,HEMATOLOGY,220.47,10^9/L,150.0,450.0,220.47,220.47,10^9/L,150.0,450.0,NORMAL,Y,BASELINE,2,2025-07-10,1
STUDY001,LB,STUDY001-SUBJ0006,15,L00015,GLUC,Glucose,CHEMISTRY,69.82,mg/dL,70.0,100.0,69.82,69.82,mg/dL,70.0,100.0,LOW,Y,BASELINE,2,2025-07-10,1
STUDY001,LB,STUDY001-SUBJ0006,16,L00016,BUN,Blood Urea Nitrogen,CHEMISTRY,13.69,mg/dL,7.0,20.0,13.69,13.69,mg/dL,7.0,20.0,NORMAL,Y,BASELINE,2,2025-07-10,1
STUDY001,LB,STUDY001-SUBJ0006,17,L00017,CREAT,Creatinine,CHEMISTRY,0.83,mg/dL,0.6,1.2,0.83,0.83,mg/dL,0.6,1.2,NORMAL,Y,BASELINE,2,2025-07-10,1
STUDY001,LB,STUDY001-SUBJ0006,18,L00018,BILI,Total Bilirubin,CHEMISTRY,0.97,mg/dL,0.1,1.2,0.97,0.97,mg/dL,0.1,1.2,NORMAL,Y,BASELINE,2,2025-07-10,1
STUDY001,LB,STUDY001-SUBJ0006,19,L00019,ALP,Alkaline Phosphatase,CHEMISTRY,78.25,U/L,44.0,147.0,78.25,78.25,U/L,44.0,147.0,NORMAL,Y,BASELINE,2,2025-07-10,1
STUDY001,LB,STUDY001-SUBJ0006,20,L00020,ALT,Alanine Aminotransferase,CHEMISTRY,38.78,U/L,7.0,56.0,38.78,38.78,U/L,7.0,56.0,NORMAL,Y,BASELINE,2,2025-07-10,1
STUDY001,LB,STUDY001-SUBJ0006,21,L00021,HGB,Hemoglobin,HEMATOLOGY,15.36,g/dL,13.5,17.5,15.36,15.36,g/dL,13.5,17.5,NORMAL,,WEEK 1,3,2025-07-16,7
STUDY001,LB,STUDY001-SUBJ0006,22,L00022,HCT,Hematocrit,HEMATOLOGY,47.65,%,41.0,51.0,47.65,47.65,%,41.0,51.0,NORMAL,,WEEK 1,3,2025-07-16,7
STUDY001,LB,STUDY001-SUBJ0006,23,L00023,WBC,White Blood Cell Count,HEMATOLOGY,5.37,10^9/L,4.5,11.0,5.37,5.37,10^9/L,4.5,11.0,NORMAL,,WEEK 1,3,2025-07-16,7
STUDY001,LB,STUDY001-SUBJ0006,24,L00024,PLT,Platelet Count,HEMATOLOGY,219.0,10^9/L,150.0,450.0,219.0,219.0,10^9/L,150.0,450.0,NORMAL,,WEEK 1,3,2025-07-16,7
STUDY001,LB,STUDY001-SUBJ0006,25,L00025,GLUC,Glucose,CHEMISTRY,70.07,mg/dL,70.0,100.0,70.07,70.07,mg/dL,70.0,100.0,NORMAL,,WEEK 1,3,2025-07-16,7
STUDY001,LB,STUDY001-SUBJ0006,26,L00026,BUN,Blood Urea Nitrogen,CHEMISTRY,12.7,mg/dL,7.0,20.0,12.7,12.7,mg/dL,7.0,20.0,NORMAL,,WEEK 1,3,2025-07-16,7
STUDY001,LB,STUDY001-SUBJ0006,27,L00027,CREAT,Creatinine,CHEMISTRY,0.84,mg/dL,0.6,1.2,0.84,0.84,mg/dL,0.6,1.2,NORMAL,,WEEK 1,3,2025-07-16,7
STUDY001,LB,STUDY001-SUBJ0006,28,L00028,BILI,Total Bilirubin,CHEMISTRY,0.99,mg/dL,0.1,1.2,0.99,0.99,mg/dL,0.1,1.2,NORMAL,,WEEK 1,3,2025-07-16,7
STUDY001,LB,STUDY001-SUBJ0006,29,L00029,ALP,Alkaline Phosphatase,CHEMISTRY,83.71,U/L,44.0,147.0,83.71,83.71,U/L,44.0,147.0,NORMAL,,WEEK 1,3,2025-07-16,7
STUDY001,LB,STUDY001-SUBJ0006,30,L00030,ALT,Alanine Aminotransferase,CHEMISTRY,37.63,U/L,7.0,56.0,37.63,37.63,U/L,7.0,56.0,NORMAL,,WEEK 1,3,2025-07-16,7
STUDY001,LB,STUDY001-SUBJ0006,31,L00031,HGB,Hemoglobin,HEMATOLOGY,15.14,g/dL,13.5,17.5,15.14,15.14,g/dL,13.5,17.5,NORMAL,,WEEK 2,4,2025-07-23,14
STUDY001,LB,STUDY001-SUBJ0006,32,L00032,HCT,Hematocrit,HEMATOLOGY,47.52,%,41.0,51.0,47.52,47.52,%,41.0,51.0,NORMAL,,WEEK 2,4,2025-07-23,14
STUDY001,LB,STUDY001-SUBJ0006,33,L00033,WBC,White Blood Cell Count,HEMATOLOGY,5.0,10^9/L,4.5,11.0,5.0,5.0,10^9/L,4.5,11.0,NORMAL,,WEEK 2,4,2025-07-23,14
STUDY001,LB,STUDY001-SUBJ0006,34,L00034,PLT,Platelet Count,HEMATOLOGY,219.91,10^9/L,150.0,450.0,219.91,219.91,10^9/L,150.0,450.0,NORMAL,,WEEK 2,4,2025-07-23,14
STUDY001,LB,STUDY001-SUBJ0006,35,L00035,GLUC,Glucose,CHEMISTRY,71.97,mg/dL,70.0,100.0,71.97,71.97,mg/dL,70.0,100.0,NORMAL,,WEEK 2,4,2025-07-23,14
STUDY001,LB,STUDY001-SUBJ0006,36,L00036,BUN,Blood Urea Nitrogen,CHEMISTRY,13.19,mg/dL,7.0,20.0,13.19,13.19,mg/dL,7.0,20.0,NORMAL,,WEEK 2,4,2025-07-23,14
STUDY001,LB,STUDY001-SUBJ0006,37,L00037,CREAT,Creatinine,CHEMISTRY,0.85,mg/dL,0.6,1.2,0.85,0.85,mg/dL,0.6,1.2,NORMAL,,WEEK 2,4,2025-07-23,14
STUDY001,LB,STUDY001-SUBJ0006,38,L00038,BILI,Total Bilirubin,CHEMISTRY,1.0,mg/dL,0.1,1.2,1.0,1.0,mg/dL,0.1,1.2,NORMAL,,WEEK 2,4,2025-07-23,14
STUDY001,LB,STUDY001-SUBJ0006,39,L00039,ALP,Alkaline Phosphatase,CHEMISTRY,83.67,U/L,44.0,147.0,83.67,83.67,U/L,44.0,147.0,NORMAL,,WEEK 2,4,2025-07-23,14
STUDY001,LB,STUDY001-SUBJ0006,40,L00040,ALT,Alanine Aminotransferase,CHEMISTRY,39.11,U/L,7.0,56.0,39.11,39.11,U/L,7.0,56.0,NORMAL,,WEEK 2,4,2025-07-23,14
STUDY001,LB,STUDY001-SUBJ0006,41,L00041,HGB,Hemoglobin,HEMATOLOGY,15.28,g/dL,13.5,17.5,15.28,15.28,g/dL,13.5,17.5,NORMAL,,WEEK 4,5,2025-08-06,28
STUDY001,LB,STUDY001-SUBJ0006,42,L00042,HCT,Hematocrit,HEMATOLOGY,47.15,%,41.0,51.0,47.15,47.15,%,41.0,51.0,NORMAL,,WEEK 4,5,2025-08-06,28
STUDY001,LB,STUDY001-SUBJ0006,43,L00043,WBC,White Blood Cell Count,HEMATOLOGY,5.47,10^9/L,4.5,11.0,5.47,5.47,10^9/L,4.5,11.0,NORMAL,,WEEK 4,5,2025-08-06,28
STUDY001,LB,STUDY001-SUBJ0006,44,L00044,PLT,Platelet Count,HEMATOLOGY,217.31,10^9/L,150.0,450.0,217.31,217.31,10^9/L,150.0,450.0,NORMAL,,WEEK 4,5,2025-08-06,28
STUDY001,LB,STUDY001-SUBJ0006,45,L00045,GLUC,Glucose,CHEMISTRY,71.66,mg/dL,70.0,100.0,71.66,71.66,mg/dL,70.0,100.0,NORMAL,,WEEK 4,5,2025-08-06,28
STUDY001,LB,STUDY001-SUBJ0006,46,L00046,BUN,Blood Urea Nitrogen,CHEMISTRY,12.3,mg/dL,7.0,20.0,12.3,12.3,mg/dL,7.0,20.0,NORMAL,,WEEK 4,5,2025-08-06,28
STUDY001,LB,STUDY001-SUBJ0006,47,L00047,CREAT,Creatinine,CHEMISTRY,0.83,mg/dL,0.6,1.2,0.83,0.83,mg/dL,0.6,1.2,NORMAL,,WEEK 4,5,2025-08-06,28
STUDY001,LB,STUDY001-SUBJ0006,48,L00048,BILI,Total Bilirubin,CHEMISTRY,1.0,mg/dL,0.1,1.2,1.0,1.0,mg/dL,0.1,1.2,NORMAL,,WEEK 4,5,2025-08-06,28
STUDY001,LB,STUDY001-SUBJ0006,49,L00049,ALP,Alkaline Phosphatase,CHEMISTRY,82.42,U/L,44.0,147.0,82.42,82.42,U/L,44.0,147.0,NORMAL,,WEEK 4,5,2025-08-06,28
STUDY001,LB,STUDY001-SUBJ0006,50,L00050,ALT,Alanine Aminotransferase,CHEMISTRY,37.97,U/L,7.0,56.0,37.97,37.97,U/L,7.0,56.0,NORMAL,,WEEK 4,5,2025-08-06,28
STUDY001,LB,STUDY001-SUBJ0006,51,L00051,HGB,Hemoglobin,HEMATOLOGY,15.28,g/dL,13.5,17.5,15.28,15.28,g/dL,13.5,17.5,NORMAL,,WEEK 8,6,2025-09-03,56
STUDY001,LB,STUDY001-SUBJ0006,52,L00052,HCT,Hematocrit,HEMATOLOGY,47.42,%,41.0,51.0,47.42,47.42,%,41.0,51.0,NORMAL,,WEEK 8,6,2025-09-03,56
STUDY001,LB,STUDY001-SUBJ0006,53,L00053,WBC,White Blood Cell Count,HEMATOLOGY,5.35,10^9/L,4.5,11.0,5.35,5.35,10^9/L,4.5,11.0,NORMAL,,WEEK 8,6,2025-09-03,56
STUDY001,LB,STUDY001-SUBJ0006,54,L00054,PLT,Platelet Count,HEMATOLOGY,214.94,10^9/L,150.0,450.0,214.94,214.94,10^9/L,150.0,450.0,NORMAL,,WEEK 8,6,2025-09-03,56
STUDY001,LB,STUDY001-SUBJ0006,55,L00055,GLUC,Glucose,CHEMISTRY,72.81,mg/dL,70.0,100.0,72.81,72.81,mg/dL,70.0,100.0,NORMAL,,WEEK 8,6,2025-09-03,56
STUDY001,LB,STUDY001-SUBJ0006,56,L00056,BUN,Blood Urea Nitrogen,CHEMISTRY,13.16,mg/dL,7.0,20.0,13.16,13.16,mg/dL,7.0,20.0,NORMAL,,WEEK 8,6,2025-09-03,56
STUDY001,LB,STUDY001-SUBJ0006,57,L00057,CREAT,Creatinine,CHEMISTRY,0.86,mg/dL,0.6,1.2,0.86,0.86,mg/dL,0.6,1.2,NORMAL,,WEEK 8,6,2025-09-03,56
STUDY001,LB,STUDY001-SUBJ0006,58,L00058,BILI,Total Bilirubin,CHEMISTRY,0.97,mg/dL,0.1,1.2,0.97,0.97,mg/dL,0.1,1.2,NORMAL,,WEEK 8,6,2025-09-03,56
STUDY001,LB,STUDY001-SUBJ0006,59,L00059,ALP,Alkaline Phosphatase,CHEMISTRY,81.29,U/L,44.0,147.0,81.29,81.29,U/L,44.0,147.0,NORMAL,,WEEK 8,6,2025-09-03,56
STUDY001,LB,STUDY001-SUBJ0006,60,L00060,ALT,Alanine Aminotransferase,CHEMISTRY,40.07,U/L,7.0,56.0,40.07,40.07,U/L,7.0,56.0,NORMAL,,WEEK 8,6,2025-09-03,56
STUDY001,LB,STUDY001-SUBJ0006,61,L00061,HGB,Hemoglobin,HEMATOLOGY,15.4,g/dL,13.5,17.5,15.4,15.4,g/dL,13.5,17.5,NORMAL,,WEEK 12,7,2025-10-01,84
STUDY001,LB,STUDY001-SUBJ0006,62,L00062,HCT,Hematocrit,HEMATOLOGY,47.98,%,41.0,51.0,47.98,47.98,%,41.0,51.0,NORMAL,,WEEK 12,7,2025-10-01,84
STUDY001,LB,STUDY001-SUBJ0006,63,L00063,WBC,White Blood Cell Count,HEMATOLOGY,5.38,10^9/L,4.5,11.0,5.38,5.38,10^9/L,4.5,11.0,NORMAL,,WEEK 12,7,2025-10-01,84
STUDY001,LB,STUDY001-SUBJ0006,64,L00064,PLT,Platelet Count,HEMATOLOGY,220.51,10^9/L,150.0,450.0,220.51,220.51,10^9/L,150.0,450.0,NORMAL,,WEEK 12,7,2025-10-01,84
STUDY001,LB,STUDY001-SUBJ0006,65,L00065,GLUC,Glucose,CHEMISTRY,72.36,mg/dL,70.0,100.0,72.36,72.36,mg/dL,70.0,100.0,NORMAL,,WEEK 12,7,2025-10-01,84
STUDY001,LB,STUDY001-SUBJ0006,66,L00066,BUN,Blood Urea Nitrogen,CHEMISTRY,12.21,mg/dL,7.0,20.0,12.21,12.21,mg/dL,7.0,20.0,NORMAL,,WEEK 12,7,2025-10-01,84
STUDY001,LB,STUDY001-SUBJ0006,67,L00067,CREAT,Creatinine,CHEMISTRY,0.84,mg/dL,0.6,1.2,0.84,0.84,mg/dL,0.6,1.2,NORMAL,,WEEK 12,7,2025-10-01,84
STUDY001,LB,STUDY001-SUBJ0006,68,L00068,BILI,Total Bilirubin,CHEMISTRY,0.95,mg/dL,0.1,1.2,0.95,0.95,mg/dL,0.1,1.2,NORMAL,,WEEK 12,7,2025-10-01,84
STUDY001,LB,STUDY001-SUBJ0006,69,L00069,ALP,Alkaline Phosphatase,CHEMISTRY,85.24,U/L,44.0,147.0,85.24,85.24,U/L,44.0,147.0,NORMAL,,WEEK 12,7,2025-10-01,84
STUDY001,LB,STUDY001-SUBJ0006,70,L00070,ALT,Alanine Aminotransferase,CHEMISTRY,37.86,U/L,7.0,56.0,37.86,37.86,U/L,7.0,56.0,NORMAL,,WEEK 12,7,2025-10-01,84
STUDY001,LB,STUDY001-SUBJ0006,71,L00071,HGB,Hemoglobin,HEMATOLOGY,15.4,g/dL,13.5,17.5,15.4,15.4,g/dL,13.5,17.5,NORMAL,,WEEK 16,8,2025-10-29,112
STUDY001,LB,STUDY001-SUBJ0006,72,L00072,HCT,Hematocrit,HEMATOLOGY,47.18,%,41.0,51.0,47.18,47.18,%,41.0,51.0,NORMAL,,WEEK 16,8,2025-10-29,112
STUDY001,LB,STUDY001-SUBJ0006,73,L00073,WBC,White Blood Cell Count,HEMATOLOGY,5.53,10^9/L,4.5,11.0,5.53,5.53,10^9/L,4.5,11.0,NORMAL,,WEEK 16,8,2025-10-29,112
STUDY001,LB,STUDY001-SUBJ0006,74,L00074,PLT,Platelet Count,HEMATOLOGY,231.52,10^9/L,150.0,450.0,231.52,231.52,10^9/L,150.0,450.0,NORMAL,,WEEK 16,8,2025-10-29,112
STUDY001,LB,STUDY001-SUBJ0006,75,L00075,GLUC,Glucose,CHEMISTRY,72.0,mg/dL,70.0,100.0,72.0,72.0,mg/dL,70.0,100.0,NORMAL,,WEEK 16,8,2025-10-29,112
STUDY001,LB,STUDY001-SUBJ0006,76,L00076,BUN,Blood Urea Nitrogen,CHEMISTRY,12.62,mg/dL,7.0,20.0,12.62,12.62,mg/dL,7.0,20.0,NORMAL,,WEEK 16,8,2025-10-29,112
STUDY001,LB,STUDY001-SUBJ0006,77,L00077,CREAT,Creatinine,CHEMISTRY,0.85,mg/dL,0.6,1.2,0.85,0.85,mg/dL,0.6,1.2,NORMAL,,WEEK 16,8,2025-10-29,112
STUDY001,LB,STUDY001-SUBJ0006,78,L00078,BILI,Total Bilirubin,CHEMISTRY,0.99,mg/dL,0.1,1.2,0.99,0.99,mg/dL,0.1,1.2,NORMAL,,WEEK 16,8,2025-10-29,112
STUDY001,LB,STUDY001-SUBJ0006,79,L00079,ALP,Alkaline Phosphatase,CHEMISTRY,82.89,U/L,44.0,147.0,82.89,82.89,U/L,44.0,147.0,NORMAL,,WEEK 16,8,2025-10-29,112
STUDY001,LB,STUDY001-SUBJ0006,80,L00080,ALT,Alanine Aminotransferase,CHEMISTRY,39.89,U/L,7.0,56.0,39.89,39.89,U/L,7.0,56.0,NORMAL,,WEEK 16,8,2025-10-29,112
STUDY001,LB,STUDY001-SUBJ0006,81,L00081,HGB,Hemoglobin,HEMATOLOGY,15.3,g/dL,13.5,17.5,15.3,15.3,g/dL,13.5,17.5,NORMAL,,END OF TREATMENT,9,2025-11-26,140
STUDY001,LB,STUDY001-SUBJ0006,82,L00082,HCT,Hematocrit,HEMATOLOGY,47.56,%,41.0,51.0,47.56,47.56,%,41.0,51.0,NORMAL,,END OF TREATMENT,9,2025-11-26,140
STUDY001,LB,STUDY001-SUBJ0006,83,L00083,WBC,White Blood Cell Count,HEMATOLOGY,5.03,10^9/L,4.5,11.0,5.03,5.03,10^9/L,4.5,11.0,NORMAL,,END OF TREATMENT,9,2025-11-26,140
STUDY001,LB,STUDY001-SUBJ0006,84,L00084,PLT,Platelet Count,HEMATOLOGY,220.69,10^9/L,150.0,450.0,220.69,220.69,10^9/L,150.0,450.0,NORMAL,,END OF TREATMENT,9,2025-11-26,140
STUDY001,LB,STUDY001-SUBJ0006,85,L00085,GLUC,Glucose,CHEMISTRY,72.2,mg/dL,70.0,100.0,72.2,72.2,mg/dL,70.0,100.0,NORMAL,,END OF TREATMENT,9,2025-11-26,140
STUDY001,LB,STUDY001-SUBJ0006,86,L00086,BUN,Blood Urea Nitrogen,CHEMISTRY,12.4,mg/dL,7.0,20.0,12.4,12.4,mg/dL,7.0,20.0,NORMAL,,END OF TREATMENT,9,2025-11-26,140
STUDY001,LB,STUDY001-SUBJ0006,87,L00087,CREAT,Creatinine,CHEMISTRY,0.84,mg/dL,0.6,1.2,0.84,0.84,mg/dL,0.6,1.2,NORMAL,,END OF TREATMENT,9,2025-11-26,140
STUDY001,LB,STUDY001-SUBJ0006,88,L00088,BILI,Total Bilirubin,CHEMISTRY,1.01,mg/dL,0.1,1.2,1.01,1.01,mg/dL,0.1,1.2,NORMAL,,END OF TREATMENT,9,2025-11-26,140
STUDY001,LB,STUDY001-SUBJ0006,89,L00089,ALP,Alkaline Phosphatase,CHEMISTRY,84.4,U/L,44.0,147.0,84.4,84.4,U/L,44.0,147.0,NORMAL,,END OF TREATMENT,9,2025-11-26,140
STUDY001,LB,STUDY001-SUBJ0006,90,L00090,ALT,Alanine Aminotransferase,CHEMISTRY,39.88,U/L,7.0,56.0,39.88,39.88,U/L,7.0,56.0,NORMAL,,END OF TREATMENT,9,2025-11-26,140
STUDY001,LB,STUDY001-SUBJ0007,1,L00001,HGB,Hemoglobin,HEMATOLOGY,14.71,g/dL,13.5,17.5,14.71,14.71,g/dL,13.5,17.5,NORMAL,,SCREENING,1,2024-12-27,-14
STUDY001,LB,STUDY001-SUBJ0007,2,L00002,HCT,Hematocrit,HEMATOLOGY,41.69,%,41.0,51.0,41.69,41.69,%,41.0,51.0,NORMAL,,SCREENING,1,2024-12-27,-14
STUDY001,LB,STUDY001-SUBJ0007,3,L00003,WBC,White Blood Cell Count,HEMATOLOGY,6.56,10^9/L,4.5,11.0,6.56,6.56,10^9/L,4.5,11.0,NORMAL,,SCREENING,1,2024-12-27,-14
STUDY001,LB,STUDY001-SUBJ0007,4,L00004,PLT,Platelet Count,HEMATOLOGY,223.18,10^9/L,150.0,450.0,223.18,223.18,10^9/L,150.0,450.0,NORMAL,,SCREENING,1,2024-12-27,-14
STUDY001,LB,STUDY001-SUBJ0007,5,L00005,GLUC,Glucose,CHEMISTRY,79.58,mg/dL,70.0,100.0,79.58,79.58,mg/dL,70.0,100.0,NORMAL,,SCREENING,1,2024-12-27,-14
STUDY001,LB,STUDY001-SUBJ0007,6,L00006,BUN,Blood Urea Nitrogen,CHEMISTRY,8.17,mg/dL,7.0,20.0,8.17,8.17,mg/dL,7.0,20.0,NORMAL,,SCREENING,1,2024-12-27,-14
STUDY001,LB,STUDY001-SUBJ0007,7,L00007,CREAT,Creatinine,CHEMISTRY,0.88,mg/dL,0.6,1.2,0.88,0.88,mg/dL,0.6,1.2,NORMAL,,SCREENING,1,2024-12-27,-14
STUDY001,LB,STUDY001-SUBJ0007,8,L00008,BILI,Total Bilirubin,CHEMISTRY,0.5,mg/dL,0.1,1.2,0.5,0.5,mg/dL,0.1,1.2,NORMAL,,SCREENING,1,2024-12-27,-14
STUDY001,LB,STUDY001-SUBJ0007,9,L00009,ALP,Alkaline Phosphatase,CHEMISTRY,115.97,U/L,44.0,147.0,115.97,115.97,U/L,44.0,147.0,NORMAL,,SCREENING,1,2024-12-27,-14
STUDY001,LB,STUDY001-SUBJ0007,10,L00010,ALT,Alanine Aminotransferase,CHEMISTRY,19.39,U/L,7.0,56.0,19.39,19.39,U/L,7.0,56.0,NORMAL,,SCREENING,1,2024-12-27,-14
STUDY001,LB,STUDY001-SUBJ0007,11,L00011,HGB,Hemoglobin,HEMATOLOGY,14.52,g/dL,13.5,17.5,14.52,14.52,g/dL,13.5,17.5,NORMAL,Y,BASELINE,2,2025-01-10,1
STUDY001,LB,STUDY001-SUBJ0007,12,L00012,HCT,Hematocrit,HEMATOLOGY,41.37,%,41.0,51.0,41.37,41.37,%,41.0,51.0,NORMAL,Y,BASELINE,2,2025-01-10,1
STUDY001,LB,STUDY001-SUBJ0007,13,L00013,WBC,White Blood Cell Count,HEMATOLOGY,6.82,10^9/L,4.5,11.0,6.82,6.82,10^9/L,4.5,11.0,NORMAL,Y,BASELINE,2,2025-01-10,1
STUDY001,LB,STUDY001-SUBJ0007,14,L00014,PLT,Platelet Count,HEMATOLOGY,234.1,10^9/L,150.0,450.0,234.1,234.1,10^9/L,150.0,450.0,NORMAL,Y,BASELINE,2,2025-01-10,1
STUDY001,LB,STUDY001-SUBJ0007,15,L00015,GLUC,Glucose,CHEMISTRY,81.35,mg/dL,70.0,100.0,81.35,81.35,mg/dL,70.0,100.0,NORMAL,Y,BASELINE,2,2025-01-10,1
STUDY001,LB,STUDY001-SUBJ0007,16,L00016,BUN,Blood Urea Nitrogen,CHEMISTRY,8.31,mg/dL,7.0,20.0,8.31,8.31,mg/dL,7.0,20.0,NORMAL,Y,BASELINE,2,2025-01-10,1
STUDY001,LB,STUDY001-SUBJ0007,17,L00017,CREAT,Creatinine,CHEMISTRY,0.86,mg/dL,0.6,1.2,0.86,0.86,mg/dL,0.6,1.2,NORMAL,Y,BASELINE,2,2025-01-10,1
STUDY001,LB,STUDY001-SUBJ0007,18,L00018,BILI,Total Bilirubin,CHEMISTRY,0.52,mg/dL,0.1,1.2,0.52,0.52,mg/dL,0.1,1.2,NORMAL,Y,BASELINE,2,2025-01-10,1
STUDY001,LB,STUDY001-SUBJ0007,19,L00019,ALP,Alkaline Phosphatase,CHEMISTRY,116.56,U/L,44.0,147.0,116.56,116.56,U/L,44.0,147.0,NORMAL,Y,BASELINE,2,2025-01-10,1
STUDY001,LB,STUDY001-SUBJ0007,20,L00020,ALT,Alanine Aminotransferase,CHEMISTRY,18.81,U/L,7.0,56.0,18.81,18.81,U/L,7.0,56.0,NORMAL,Y,BASELINE,2,2025-01-10,1
STUDY001,LB,STUDY001-SUBJ0007,21,L00021,HGB,Hemoglobin,HEMATOLOGY,14.82,g/dL,13.5,17.5,14.82,14.82,g/dL,13.5,17.5,NORMAL,,WEEK 1,3,2025-01-16,7
STUDY001,LB,STUDY001-SUBJ0007,22,L00022,HCT,Hematocrit,HEMATOLOGY,41.67,%,41.0,51.0,41.67,41.67,%,41.0,51.0,NORMAL,,WEEK 1,3,2025-01-16,7
STUDY001,LB,STUDY001-SUBJ0007,23,L00023,WBC,White Blood Cell Count,HEMATOLOGY,6.89,10^9/L,4.5,11.0,6.89,6.89,10^9/L,4.5,11.0,NORMAL,,WEEK 1,3,2025-01-16,7
STUDY001,LB,STUDY001-SUBJ0007,24,L00024,PLT,Platelet Count,HEMATOLOGY,226.33,10^9/L,150.0,450.0,226.33,226.33,10^9/L,150.0,450.0,NORMAL,,WEEK 1,3,2025-01-16,7
STUDY001,LB,STUDY001-SUBJ0007,25,L00025,GLUC,Glucose,CHEMISTRY,82.71,mg/dL,70.0,100.0,82.71,82.71,mg/dL,70.0,100.0,NORMAL,,WEEK 1,3,2025-01-16,7
STUDY001,LB,STUDY001-SUBJ0007,26,L00026,BUN,Blood Urea Nitrogen,CHEMISTRY,7.96,mg/dL,7.0,20.0,7.96,7.96,mg/dL,7.0,20.0,NORMAL,,WEEK 1,3,2025-01-16,7
STUDY001,LB,STUDY001-SUBJ0007,27,L00027,CREAT,Creatinine,CHEMISTRY,0.85,mg/dL,0.6,1.2,0.85,0.85,mg/dL,0.6,1.2,NORMAL,,WEEK 1,3,2025-01-16,7
STUDY001,LB,STUDY001-SUBJ0007,28,L00028,BILI,Total Bilirubin,CHEMISTRY,0.53,mg/dL,0.1,1.2,0.53,0.53,mg/dL,0.1,1.2,NORMAL,,WEEK 1,3,2025-01-16,7
STUDY001,LB,STUDY001-SUBJ0007,29,L00029,ALP,Alkaline Phosphatase,CHEMISTRY,114.4,U/L,44.0,147.0,114.4,114.4,U/L,44.0,147.0,NORMAL,,WEEK 1,3,2025-01-16,7
STUDY001,LB,STUDY001-SUBJ0007,30,L00030,ALT,Alanine Aminotransferase,CHEMISTRY,18.81,U/L,7.0,56.0,18.81,18.81,U/L,7.0,56.0,NORMAL,,WEEK 1,3,2025-01-16,7
STUDY001,LB,STUDY001-SUBJ0007,31,L00031,HGB,Hemoglobin,HEMATOLOGY,14.61,g/dL,13.5,17.5,14.61,14.61,g/dL,13.5,17.5,NORMAL,,WEEK 2,4,2025-01-23,14
STUDY001,LB,STUDY001-SUBJ0007,32,L00032,HCT,Hematocrit,HEMATOLOGY,41.77,%,41.0,51.0,41.77,41.77,%,41.0,51.0,NORMAL,,WEEK 2,4,2025-01-23,14
STUDY001,LB,STUDY001-SUBJ0007,33,L00033,WBC,White Blood Cell Count,HEMATOLOGY,6.83,10^9/L,4.5,11.0,6.83,6.83,10^9/L,4.5,11.0,NORMAL,,WEEK 2,4,2025-01-23,14
STUDY001,LB,STUDY001-SUBJ0007,34,L00034,PLT,Platelet Count,HEMATOLOGY,224.54,10^9/L,150.0,450.0,224.54,224.54,10^9/L,150.0,450.0,NORMAL,,WEEK 2,4,2025-01-23,14
STUDY001,LB,STUDY001-SUBJ0007,35,L00035,GLUC,Glucose,CHEMISTRY,79.73,mg/dL,70.0,100.0,79.73,79.73,mg/dL,70.0,100.0,NORMAL,,WEEK 2,4,2025-01-23,14
STUDY001,LB,STUDY001-SUBJ0007,36,L00036,BUN,Blood Urea Nitrogen,CHEMISTRY,8.18,mg/dL,7.0,20.0,8.18,8.18,mg/dL,7.0,20.0,NORMAL,,WEEK 2,4,2025-01-23,14
STUDY001,LB,STUDY001-SUBJ0007,37,L00037,CREAT,Creatinine,CHEMISTRY,0.87,mg/dL,0.6,1.2,0.87,0.87,mg/dL,0.6,1.2,NORMAL,,WEEK 2,4,2025-01-23,14
STUDY001,LB,STUDY001-SUBJ0007,38,L00038,BILI,Total Bilirubin,CHEMISTRY,0.54,mg/dL,0.1,1.2,0.54,0.54,mg/dL,0.1,1.2,NORMAL,,WEEK 2,4,2025-01-23,14
STUDY001,LB,STUDY001-SUBJ0007,39,L00039,ALP,Alkaline Phosphatase,CHEMISTRY,118.5,U/L,44.0,147.0,118.5,118.5,U/L,44.0,147.0,NORMAL,,WEEK 2,4,2025-01-23,14
STUDY001,LB,STUDY001-SUBJ0007,40,L00040,ALT,Alanine Aminotransferase,CHEMISTRY,16.31,U/L,7.0,56.0,16.31,16.31,U/L,7.0,56.0,NORMAL,,WEEK 2,4,2025-01-23,14
STUDY001,LB,STUDY001-SUBJ0007,41,L00041,HGB,Hemoglobin,HEMATOLOGY,14.73,g/dL,13.5,17.5,14.73,14.73,g/dL,13.5,17.5,NORMAL,,WEEK 4,5,2025-02-06,28
STUDY001,LB,STUDY001-SUBJ0007,42,L00042,HCT,Hematocrit,HEMATOLOGY,40.91,%,41.0,51.0,40.91,40.91,%,41.0,51.0,LOW,,WEEK 4,5,2025-02-06,28
STUDY001,LB,STUDY001-SUBJ0007,43,L00043,WBC,White Blood Cell Count,HEMATOLOGY,6.38,10^9/L,4.5,11.0,6.38,6.38,10^9/L,4.5,11.0,NORMAL,,WEEK 4,5,2025-02-06,28
STUDY001,LB,STUDY001-SUBJ0007,44,L00044,PLT,Platelet Count,HEMATOLOGY,236.52,10^9/L,150.0,450.0,236.52,236.52,10^9/L,150.0,450.0,NORMAL,,WEEK 4,5,2025-02-06,28
STUDY001,LB,STUDY001-SUBJ0007,45,L00045,GLUC,Glucose,CHEMISTRY,79.87,mg/dL,70.0,100.0,79.87,79.87,mg/dL,70.0,100.0,NORMAL,,WEEK 4,5,2025-02-06,28
STUDY001,LB,STUDY001-SUBJ0007,46,L00046,BUN,Blood Urea Nitrogen,CHEMISTRY,8.3,mg/dL,7.0,20.0,8.3,8.3,mg/dL,7.0,20.0,NORMAL,,WEEK 4,5,2025-02-06,28
STUDY001,LB,STUDY001-SUBJ0007,47,L00047,CREAT,Creatinine,CHEMISTRY,0.86,mg/dL,0.6,1.2,0.86,0.86,mg/dL,0.6,1.2,NORMAL,,WEEK 4,5,2025-02-06,28
STUDY001,LB,STUDY001-SUBJ0007,48,L00048,BILI,Total Bilirubin,CHEMISTRY,0.51,mg/dL,0.1,1.2,0.51,0.51,mg/dL,0.1,1.2,NORMAL,,WEEK 4,5,2025-02-06,28
STUDY001,LB,STUDY001-SUBJ0007,49,L00049,ALP,Alkaline Phosphatase,CHEMISTRY,116.8,U/L,44.0,147.0,116.8,116.8,U/L,44.0,147.0,NORMAL,,WEEK 4,5,2025-02-06,28
STUDY001,LB,STUDY001-SUBJ0007,50,L00050,ALT,Alanine Aminotransferase,CHEMISTRY,17.67,U/L,7.0,56.0,17.67,17.67,U/L,7.0,56.0,NORMAL,,WEEK 4,5,2025-02-06,28
STUDY001,LB,STUDY001-SUBJ0007,51,L00051,HGB,Hemoglobin,HEMATOLOGY,14.65,g/dL,13.5,17.5,14.65,14.65,g/dL,13.5,17.5,NORMAL,,WEEK 8,6,2025-03-06,56
STUDY001,LB,STUDY001-SUBJ0007,52,L00052,HCT,Hematocrit,HEMATOLOGY,41.62,%,41.0,51.0,41.62,41.62,%,41.0,51.0,NORMAL,,WEEK 8,6,2025-03-06,56
STUDY001,LB,STUDY001-SUBJ0007,53,L00053,WBC,White Blood Cell Count,HEMATOLOGY,6.82,10^9/L,4.5,11.0,6.82,6.82,10^9/L,4.5,11.0,NORMAL,,WEEK 8,6,2025-03-06,56
STUDY001,LB,STUDY001-SUBJ0007,54,L00054,PLT,Platelet Count,HEMATOLOGY,230.89,10^9/L,150.0,450.0,230.89,230.89,10^9/L,150.0,450.0,NORMAL,,WEEK 8,6,2025-03-06,56
STUDY001,LB,STUDY001-SUBJ0007,55,L00055,GLUC,Glucose,CHEMISTRY,81.35,mg/dL,70.0,100.0,81.35,81.35,mg/dL,70.0,100.0,NORMAL,,WEEK 8,6,2025-03-06,56
STUDY001,LB,STUDY001-SUBJ0007,56,L00056,BUN,Blood Urea Nitrogen,CHEMISTRY,7.83,mg/dL,7.0,20.0,7.83,7.83,mg/dL,7.0,20.0,NORMAL,,WEEK 8,6,2025-03-06,56
STUDY001,LB,STUDY001-SUBJ0007,57,L00057,CREAT,Creatinine,CHEMISTRY,0.89,mg/dL,0.6,1.2,0.89,0.89,mg/dL,0.6,1.2,NORMAL,,WEEK 8,6,2025-03-06,56
STUDY001,LB,STUDY001-SUBJ0007,58,L00058,BILI,Total Bilirubin,CHEMISTRY,0.52,mg/dL,0.1,1.2,0.52,0.52,mg/dL,0.1,1.2,NORMAL,,WEEK 8,6,2025-03-06,56
STUDY001,LB,STUDY001-SUBJ0007,59,L00059,ALP,Alkaline Phosphatase,CHEMISTRY,119.53,U/L,44.0,147.0,119.53,119.53,U/L,44.0,147.0,NORMAL,,WEEK 8,6,2025-03-06,56
STUDY001,LB,STUDY001-SUBJ0007,60,L00060,ALT,Alanine Aminotransferase,CHEMISTRY,18.37,U/L,7.0,56.0,18.37,18.37,U/L,7.0,56.0,NORMAL,,WEEK 8,6,2025-03-06,56
STUDY001,LB,STUDY001-SUBJ0007,61,L00061,HGB,Hemoglobin,HEMATOLOGY,14.65,g/dL,13.5,17.5,14.65,14.65,g/dL,13.5,17.5,NORMAL,,WEEK 12,7,2025-04-03,84
STUDY001,LB,STUDY001-SUBJ0007,62,L00062,HCT,Hematocrit,HEMATOLOGY,41.93,%,41.0,51.0,41.93,41.93,%,41.0,51.0,NORMAL,,WEEK 12,7,2025-04-03,84
STUDY001,LB,STUDY001-SUBJ0007,63,L00063,WBC,White Blood Cell Count,HEMATOLOGY,6.88,10^9/L,4.5,11.0,6.88,6.88,10^9/L,4.5,11.0,NORMAL,,WEEK 12,7,2025-04-03,84
STUDY001,LB,STUDY001-SUBJ0007,64,L00064,PLT,Platelet Count,HEMATOLOGY,230.04,10^9/L,150.0,450.0,230.04,230.04,10^9/L,150.0,450.0,NORMAL,,WEEK 12,7,2025-04-03,84
STUDY001,LB,STUDY001-SUBJ0007,65,L00065,GLUC,Glucose,CHEMISTRY,81.99,mg/dL,70.0,100.0,81.99,81.99,mg/dL,70.0,100.0,NORMAL,,WEEK 12,7,2025-04-03,84
STUDY001,LB,STUDY001-SUBJ0007,66,L00066,BUN,Blood Urea Nitrogen,CHEMISTRY,7.58,mg/dL,7.0,20.0,7.58,7.58,mg/dL,7.0,20.0,NORMAL,,WEEK 12,7,2025-04-03,84
STUDY001,LB,STUDY001-SUBJ0007,67,L00067,CREAT,Creatinine,CHEMISTRY,0.88,mg/dL,0.6,1.2,0.88,0.88,mg/dL,0.6,1.2,NORMAL,,WEEK 12,7,2025-04-03,84
STUDY001,LB,STUDY001-SUBJ0007,68,L00068,BILI,Total Bilirubin,CHEMISTRY,0.46,mg/dL,0.1,1.2,0.46,0.46,mg/dL,0.1,1.2,NORMAL,,WEEK 12,7,2025-04-03,84
STUDY001,LB,STUDY001-SUBJ0007,69,L00069,ALP,Alkaline Phosphatase,CHEMISTRY,120.91,U/L,44.0,147.0,120.91,120.91,U/L,44.0,147.0,NORMAL,,WEEK 12,7,2025-04-03,84
STUDY001,LB,STUDY001-SUBJ0007,70,L00070,ALT,Alanine Aminotransferase,CHEMISTRY,16.08,U/L,7.0,56.0,16.08,16.08,U/L,7.0,56.0,NORMAL,,WEEK 12,7,2025-04-03,84
STUDY001,LB,STUDY001-SUBJ0007,71,L00071,HGB,Hemoglobin,HEMATOLOGY,14.71,g/dL,13.5,17.5,14.71,14.71,g/dL,13.5,17.5,NORMAL,,WEEK 16,8,2025-05-01,112
STUDY001,LB,STUDY001-SUBJ0007,72,L00072,HCT,Hematocrit,HEMATOLOGY,41.56,%,41.0,51.0,41.56,41.56,%,41.0,51.0,NORMAL,,WEEK 16,8,2025-05-01,112
STUDY001,LB,STUDY001-SUBJ0007,73,L00073,WBC,White Blood Cell Count,HEMATOLOGY,6.49,10^9/L,4.5,11.0,6.49,6.49,10^9/L,4.5,11.0,NORMAL,,WEEK 16,8,2025-05-01,112
STUDY001,LB,STUDY001-SUBJ0007,74,L00074,PLT,Platelet Count,HEMATOLOGY,232.97,10^9/L,150.0,450.0,232.97,232.97,10^9/L,150.0,450.0,NORMAL,,WEEK 16,8,2025-05-01,112
STUDY001,LB,STUDY001-SUBJ0007,75,L00075,GLUC,Glucose,CHEMISTRY,78.05,mg/dL,70.0,100.0,78.05,78.05,mg/dL,70.0,100.0,NORMAL,,WEEK 16,8,2025-05-01,112
STUDY001,LB,STUDY001-SUBJ0007,76,L00076,BUN,Blood Urea Nitrogen,CHEMISTRY,8.66,mg/dL,7.0,20.0,8.66,8.66,mg/dL,7.0,20.0,NORMAL,,WEEK 16,8,2025-05-01,112
STUDY001,LB,STUDY001-SUBJ0007,77,L00077,CREAT,Creatinine,CHEMISTRY,0.87,mg/dL,0.6,1.2,0.87,0.87,mg/dL,0.6,1.2,NORMAL,,WEEK 16,8,2025-05-01,112
STUDY001,LB,STUDY001-SUBJ0007,78,L00078,BILI,Total Bilirubin,CHEMISTRY,0.53,mg/dL,0.1,1.2,0.53,0.53,mg/dL,0.1,1.2,NORMAL,,WEEK 16,8,2025-05-01,112
STUDY001,LB,STUDY001-SUBJ0007,79,L00079,ALP,Alkaline Phosphatase,CHEMISTRY,118.84,U/L,44.0,147.0,118.84,118.84,U/L,44.0,147.0,NORMAL,,WEEK 16,8,2025-05-01,112
STUDY001,LB,STUDY001-SUBJ0007,80,L00080,ALT,Alanine Aminotransferase,CHEMISTRY,18.16,U/L,7.0,56.0,18.16,18.16,U/L,7.0,56.0,NORMAL,,WEEK 16,8,2025-05-01,112
STUDY001,LB,STUDY001-SUBJ0007,81,L00081,HGB,Hemoglobin,HEMATOLOGY,14.7,g/dL,13.5,17.5,14.7,14.7,g/dL,13.5,17.5,NORMAL,,END OF TREATMENT,9,2025-05-29,140
STUDY001,LB,STUDY001-SUBJ0007,82,L00082,HCT,Hematocrit,HEMATOLOGY,41.91,%,41.0,51.0,41.91,41.91,%,41.0,51.0,NORMAL,,END OF TREATMENT,9,2025-05-29,140
STUDY001,LB,STUDY001-SUBJ0007,83,L00083,WBC,White Blood Cell Count,HEMATOLOGY,6.52,10^9/L,4.5,11.0,6.52,6.52,10^9/L,4.5,11.0,NORMAL,,END OF TREATMENT,9,2025-05-29,140
STUDY001,LB,STUDY001-SUBJ0007,84,L00084,PLT,Platelet Count,HEMATOLOGY,219.23,10^9/L,150.0,450.0,219.23,219.23,10^9/L,150.0,450.0,NORMAL,,END OF TREATMENT,9,2025-05-29,140
STUDY001,LB,STUDY001-SUBJ0007,85,L00085,GLUC,Glucose,CHEMISTRY,79.74,mg/dL,70.0,100.0,79.74,79.74,mg/dL,70.0,100.0,NORMAL,,END OF TREATMENT,9,2025-05-29,140
STUDY001,LB,STUDY001-SUBJ0007,86,L00086,BUN,Blood Urea Nitrogen,CHEMISTRY,8.19,mg/dL,7.0,20.0,8.19,8.19,mg/dL,7.0,20.0,NORMAL,,END OF TREATMENT,9,2025-05-29,140
STUDY001,LB,STUDY001-SUBJ0007,87,L00087,CREAT,Creatinine,CHEMISTRY,0.86,mg/dL,0.6,1.2,0.86,0.86,mg/dL,0.6,1.2,NORMAL,,END OF TREATMENT,9,2025-05-29,140
STUDY001,LB,STUDY001-SUBJ0007,88,L00088,BILI,Total Bilirubin,CHEMISTRY,0.49,mg/dL,0.1,1.2,0.49,0.49,mg/dL,0.1,1.2,NORMAL,,END OF TREATMENT,9,2025-05-29,140
STUDY001,LB,STUDY001-SUBJ0007,89,L00089,ALP,Alkaline Phosphatase,CHEMISTRY,117.87,U/L,44.0,147.0,117.87,117.87,U/L,44.0,147.0,NORMAL,,END OF TREATMENT,9,2025-05-29,140
STUDY001,LB,STUDY001-SUBJ0007,90,L00090,ALT,Alanine Aminotransferase,CHEMISTRY,19.81,U/L,7.0,56.0,19.81,19.81,U/L,7.0,56.0,NORMAL,,END OF TREATMENT,9,2025-05-29,140
STUDY001,LB,STUDY001-SUBJ0008,1,L00001,HGB,Hemoglobin,HEMATOLOGY,15.07,g/dL,13.5,17.5,15.07,15.07,g/dL,13.5,17.5,NORMAL,,SCREENING,1,2025-02-03,-14
STUDY001,LB,STUDY001-SUBJ0008,2,L00002,HCT,Hematocrit,HEMATOLOGY,43.91,%,41.0,51.0,43.91,43.91,%,41.0,51.0,NORMAL,,SCREENING,1,2025-02-03,-14
STUDY001,LB,STUDY001-SUBJ0008,3,L00003,WBC,White Blood Cell Count,HEMATOLOGY,6.24,10^9/L,4.5,11.0,6.24,6.24,10^9/L,4.5,11.0,NORMAL,,SCREENING,1,2025-02-03,-14
STUDY001,LB,STUDY001-SUBJ0008,4,L00004,PLT,Platelet Count,HEMATOLOGY,312.91,10^9/L,150.0,450.0,312.91,312.91,10^9/L,150.0,450.0,NORMAL,,SCREENING,1,2025-02-03,-14
STUDY001,LB,STUDY001-SUBJ0008,5,L00005,GLUC,Glucose,CHEMISTRY,72.21,mg/dL,70.0,100.0,72.21,72.21,mg/dL,70.0,100.0,NORMAL,,SCREENING,1,2025-02-03,-14
STUDY001,LB,STUDY001-SUBJ0008,6,L00006,BUN,Blood Urea Nitrogen,CHEMISTRY,15.16,mg/dL,7.0,20.0,15.16,15.16,mg/dL,7.0,20.0,NORMAL,,SCREENING,1,2025-02-03,-14
STUDY001,LB,STUDY001-SUBJ0008,7,L00007,CREAT,Creatinine,CHEMISTRY,0.87,mg/dL,0.6,1.2,0.87,0.87,mg/dL,0.6,1.2,NORMAL,,SCREENING,1,2025-02-03,-14
STUDY001,LB,STUDY001-SUBJ0008,8,L00008,BILI,Total Bilirubin,CHEMISTRY,0.38,mg/dL,0.1,1.2,0.38,0.38,mg/dL,0.1,1.2,NORMAL,,SCREENING,1,2025-02-03,-14
STUDY001,LB,STUDY001-SUBJ0008,9,L00009,ALP,Alkaline Phosphatase,CHEMISTRY,79.48,U/L,44.0,147.0,79.48,79.48,U/L,44.0,147.0,NORMAL,,SCREENING,1,2025-02-03,-14
STUDY001,LB,STUDY001-SUBJ0008,10,L00010,ALT,Alanine Aminotransferase,CHEMISTRY,30.91,U/L,7.0,56.0,30.91,30.91,U/L,7.0,56.0,NORMAL,,SCREENING,1,2025-02-03,-14
STUDY001,LB,STUDY001-SUBJ0008,11,L00011,HGB,Hemoglobin,HEMATOLOGY,14.88,g/dL,13.5,17.5,14.88,14.88,g/dL,13.5,17.5,NORMAL,Y,BASELINE,2,2025-02-17,1
STUDY001,LB,STUDY001-SUBJ0008,12,L00012,HCT,Hematocrit,HEMATOLOGY,44.05,%,41.0,51.0,44.05,44.05,%,41.0,51.0,NORMAL,Y,BASELINE,2,2025-02-17,1
STUDY001,LB,STUDY001-SUBJ0008,13,L00013,WBC,White Blood Cell Count,HEMATOLOGY,6.47,10^9/L,4.5,11.0,6.47,6.47,10^9/L,4.5,11.0,NORMAL,Y,BASELINE,2,2025-02-17,1
STUDY001,LB,STUDY001-SUBJ0008,14,L00014,PLT,Platelet Count,HEMATOLOGY,311.51,10^9/L,150.0,450.0,311.51,311.51,10^9/L,150.0,450.0,NORMAL,Y,BASELINE,2,2025-02-17,1
STUDY001,LB,STUDY001-SUBJ0008,15,L00015,GLUC,Glucose,CHEMISTRY,71.37,mg/dL,70.0,100.0,71.37,71.37,mg/dL,70.0,100.0,NORMAL,Y,BASELINE,2,2025-02-17,1
STUDY001,LB,STUDY001-SUBJ0008,16,L00016,BUN,Blood Urea Nitrogen,CHEMISTRY,15.15,mg/dL,7.0,20.0,15.15,15.15,mg/dL,7.0,20.0,NORMAL,Y,BASELINE,2,2025-02-17,1
STUDY001,LB,STUDY001-SUBJ0008,17,L00017,CREAT,Creatinine,CHEMISTRY,0.89,mg/dL,0.6,1.2,0.89,0.89,mg/dL,0.6,1.2,NORMAL,Y,BASELINE,2,2025-02-17,1
STUDY001,LB,STUDY001-SUBJ0008,18,L00018,BILI,Total Bilirubin,CHEMISTRY,0.41,mg/dL,0.1,1.2,0.41,0.41,mg/dL,0.1,1.2,NORMAL,Y,BASELINE,2,2025-02-17,1
STUDY001,LB,STUDY001-SUBJ0008,19,L00019,ALP,Alkaline Phosphatase,CHEMISTRY,74.95,U/L,44.0,147.0,74.95,74.95,U/L,44.0,147.0,NORMAL,Y,BASELINE,2,2025-02-17,1
STUDY001,LB,STUDY001-SUBJ0008,20,L00020,ALT,Alanine Aminotransferase,CHEMISTRY,29.3,U/L,7.0,56.0,29.3,29.3,U/L,7.0,56.0,NORMAL,Y,BASELINE,2,2025-02-17,1
STUDY001,LB,STUDY001-SUBJ0008,21,L00021,HGB,Hemoglobin,HEMATOLOGY,14.93,g/dL,13.5,17.5,14.93,14.93,g/dL,13.5,17.5,NORMAL,,WEEK 1,3,2025-02-23,7
STUDY001,LB,STUDY001-SUBJ0008,22,L00022,HCT,Hematocrit,HEMATOLOGY,43.5,%,41.0,51.0,43.5,43.5,%,41.0,51.0,NORMAL,,WEEK 1,3,2025-02-23,7
STUDY001,LB,STUDY001-SUBJ0008,23,L00023,WBC,White Blood Cell Count,HEMATOLOGY,6.23,10^9/L,4.5,11.0,6.23,6.23,10^9/L,4.5,11.0,NORMAL,,WEEK 1,3,2025-02-23,7
STUDY001,LB,STUDY001-SUBJ0008,24,L00024,PLT,Platelet Count,HEMATOLOGY,310.67,10^9/L,150.0,450.0,310.67,310.67,10^9/L,150.0,450.0,NORMAL,,WEEK 1,3,2025-02-23,7
STUDY001,LB,STUDY001-SUBJ0008,25,L00025,GLUC,Glucose,CHEMISTRY,71.13,mg/dL,70.0,100.0,71.13,71.13,mg/dL,70.0,100.0,NORMAL,,WEEK 1,3,2025-02-23,7
STUDY001,LB,STUDY001-SUBJ0008,26,L00026,BUN,Blood Urea Nitrogen,CHEMISTRY,14.8,mg/dL,7.0,20.0,14.8,14.8,mg/dL,7.0,20.0,NORMAL,,WEEK 1,3,2025-02-23,7
STUDY001,LB,STUDY001-SUBJ0008,27,L00027,CREAT,Creatinine,CHEMISTRY,0.9,mg/dL,0.6,1.2,0.9,0.9,mg/dL,0.6,1.2,NORMAL,,WEEK 1,3,2025-02-23,7
STUDY001,LB,STUDY001-SUBJ0008,28,L00028,BILI,Total Bilirubin,CHEMISTRY,0.39,mg/dL,0.1,1.2,0.39,0.39,mg/dL,0.1,1.2,NORMAL,,WEEK 1,3,2025-02-23,7
STUDY001,LB,STUDY001-SUBJ0008,29,L00029,ALP,Alkaline Phosphatase,CHEMISTRY,82.73,U/L,44.0,147.0,82.73,82.73,U/L,44.0,147.0,NORMAL,,WEEK 1,3,2025-02-23,7
STUDY001,LB,STUDY001-SUBJ0008,30,L00030,ALT,Alanine Aminotransferase,CHEMISTRY,29.76,U/L,7.0,56.0,29.76,29.76,U/L,7.0,56.0,NORMAL,,WEEK 1,3,2025-02-23,7
STUDY001,LB,STUDY001-SUBJ0008,31,L00031,HGB,Hemoglobin,HEMATOLOGY,15.07,g/dL,13.5,17.5,15.07,15.07,g/dL,13.5,17.5,NORMAL,,WEEK 2,4,2025-03-02,14
STUDY001,LB,STUDY001-SUBJ0008,32,L00032,HCT,Hematocrit,HEMATOLOGY,44.13,%,41.0,51.0,44.13,44.13,%,41.0,51.0,NORMAL,,WEEK 2,4,2025-03-02,14
STUDY001,LB,STUDY001-SUBJ0008,33,L00033,WBC,White Blood Cell Count,HEMATOLOGY,6.06,10^9/L,4.5,11.0,6.06,6.06,10^9/L,4.5,11.0,NORMAL,,WEEK 2,4,2025-03-02,14
STUDY001,LB,STUDY001-SUBJ0008,34,L00034,PLT,Platelet Count,HEMATOLOGY,309.74,10^9/L,150.0,450.0,309.74,309.74,10^9/L,150.0,450.0,NORMAL,,WEEK 2,4,2025-03-02,14
STUDY001,LB,STUDY001-SUBJ0008,35,L00035,GLUC,Glucose,CHEMISTRY,69.65,mg/dL,70.0,100.0,69.65,69.65,mg/dL,70.0,100.0,LOW,,WEEK 2,4,2025-03-02,14
STUDY001,LB,STUDY001-SUBJ0008,36,L00036,BUN,Blood Urea Nitrogen,CHEMISTRY,15.04,mg/dL,7.0,20.0,15.04,15.04,mg/dL,7.0,20.0,NORMAL,,WEEK 2,4,2025-03-02,14
STUDY001,LB,STUDY001-SUBJ0008,37,L00037,CREAT,Creatinine,CHEMISTRY,0.88,mg/dL,0.6,1.2,0.88,0.88,mg/dL,0.6,1.2,NORMAL,,WEEK 2,4,2025-03-02,14
STUDY001,LB,STUDY001-SUBJ0008,38,L00038,BILI,Total Bilirubin,CHEMISTRY,0.41,mg/dL,0.1,1.2,0.41,0.41,mg/dL,0.1,1.2,NORMAL,,WEEK 2,4,2025-03-02,14
STUDY001,LB,STUDY001-SUBJ0008,39,L00039,ALP,Alkaline Phosphatase,CHEMISTRY,82.97,U/L,44.0,147.0,82.97,82.97,U/L,44.0,147.0,NORMAL,,WEEK 2,4,2025-03-02,14
STUDY001,LB,STUDY001-SUBJ0008,40,L00040,ALT,Alanine Aminotransferase,CHEMISTRY,28.87,U/L,7.0,56.0,28.87,28.87,U/L,7.0,56.0,NORMAL,,WEEK 2,4,2025-03-02,14
STUDY001,LB,STUDY001-SUBJ0008,41,L00041,HGB,Hemoglobin,HEMATOLOGY,14.91,g/dL,13.5,17.5,14.91,14.91,g/dL,13.5,17.5,NORMAL,,WEEK 4,5,2025-03-16,28
STUDY001,LB,STUDY001-SUBJ0008,42,L00042,HCT,Hematocrit,HEMATOLOGY,44.05,%,41.0,51.0,44.05,44.05,%,41.0,51.0,NORMAL,,WEEK 4,5,2025-03-16,28
STUDY001,LB,STUDY001-SUBJ0008,43,L00043,WBC,White Blood Cell Count,HEMATOLOGY,5.98,10^9/L,4.5,11.0,5.98,5.98,10^9/L,4.5,11.0,NORMAL,,WEEK 4,5,2025-03-16,28
STUDY001,LB,STUDY001-SUBJ0008,44,L00044,PLT,Platelet Count,HEMATOLOGY,315.57,10^9/L,150.0,450.0,315.57,315.57,10^9/L,150.0,450.0,NORMAL,,WEEK 4,5,2025-03-16,28
STUDY001,LB,STUDY001-SUBJ0008,45,L00045,GLUC,Glucose,CHEMISTRY,71.71,mg/dL,70.0,100.0,71.71,71.71,mg/dL,70.0,100.0,NORMAL,,WEEK 4,5,2025-03-16,28
STUDY001,LB,STUDY001-SUBJ0008,46,L00046,BUN,Blood Urea Nitrogen,CHEMISTRY,15.23,mg/dL,7.0,20.0,15.23,15.23,mg/dL,7.0,20.0,NORMAL,,WEEK 4,5,2025-03-16,28
STUDY001,LB,STUDY001-SUBJ0008,47,L00047,CREAT,Creatinine,CHEMISTRY,0.86,mg/dL,0.6,1.2,0.86,0.86,mg/dL,0.6,1.2,NORMAL,,WEEK 4,5,2025-03-16,28
STUDY001,LB,STUDY001-SUBJ0008,48,L00048,BILI,Total Bilirubin,CHEMISTRY,0.39,mg/dL,0.1,1.2,0.39,0.39,mg/dL,0.1,1.2,NORMAL,,WEEK 4,5,2025-03-16,28
STUDY001,LB,STUDY001-SUBJ0008,49,L00049,ALP,Alkaline Phosphatase,CHEMISTRY,78.04,U/L,44.0,147.0,78.04,78.04,U/L,44.0,147.0,NORMAL,,WEEK 4,5,2025-03-16,28
STUDY001,LB,STUDY001-SUBJ0008,50,L00050,ALT,Alanine Aminotransferase,CHEMISTRY,30.54,U/L,7.0,56.0,30.54,30.54,U/L,7.0,56.0,NORMAL,,WEEK 4,5,2025-03-16,28
STUDY001,LB,STUDY001-SUBJ0008,51,L00051,HGB,Hemoglobin,HEMATOLOGY,14.9,g/dL,13.5,17.5,14.9,14.9,g/dL,13.5,17.5,NORMAL,,WEEK 8,6,2025-04-13,56
STUDY001,LB,STUDY001-SUBJ0008,52,L00052,HCT,Hematocrit,HEMATOLOGY,43.25,%,41.0,51.0,43.25,43.25,%,41.0,51.0,NORMAL,,WEEK 8,6,2025-04-13,56
STUDY001,LB,STUDY001-SUBJ0008,53,L00053,WBC,White Blood Cell Count,HEMATOLOGY,6.09,10^9/L,4.5,11.0,6.09,6.09,10^9/L,4.5,11.0,NORMAL,,WEEK 8,6,2025-04-13,56
STUDY001,LB,STUDY001-SUBJ0008,54,L00054,PLT,Platelet Count,HEMATOLOGY,303.77,10^9/L,150.0,450.0,303.77,303.77,10^9/L,150.0,450.0,NORMAL,,WEEK 8,6,2025-04-13,56
STUDY001,LB,STUDY001-SUBJ0008,55,L00055,GLUC,Glucose,CHEMISTRY,71.98,mg/dL,70.0,100.0,71.98,71.98,mg/dL,70.0,100.0,NORMAL,,WEEK 8,6,2025-04-13,56
STUDY001,LB,STUDY001-SUBJ0008,56,L00056,BUN,Blood Urea Nitrogen,CHEMISTRY,15.33,mg/dL,7.0,20.0,15.33,15.33,mg/dL,7.0,20.0,NORMAL,,WEEK 8,6,2025-04-13,56
STUDY001,LB,STUDY001-SUBJ0008,57,L00057,CREAT,Creatinine,CHEMISTRY,0.89,mg/dL,0.6,1.2,0.89,0.89,mg/dL,0.6,1.2,NORMAL,,WEEK 8,6,2025-04-13,56
STUDY001,LB,STUDY001-SUBJ0008,58,L00058,BILI,Total Bilirubin,CHEMISTRY,0.41,mg/dL,0.1,1.2,0.41,0.41,mg/dL,0.1,1.2,NORMAL,,WEEK 8,6,2025-04-13,56
STUDY001,LB,STUDY001-SUBJ0008,59,L00059,ALP,Alkaline Phosphatase,CHEMISTRY,87.14,U/L,44.0,147.0,87.14,87.14,U/L,44.0,147.0,NORMAL,,WEEK 8,6,2025-04-13,56
STUDY001,LB,STUDY001-SUBJ0008,60,L00060,ALT,Alanine Aminotransferase,CHEMISTRY,29.27,U/L,7.0,56.0,29.27,29.27,U/L,7.0,56.0,NORMAL,,WEEK 8,6,2025-04-13,56
STUDY001,LB,STUDY001-SUBJ0008,61,L00061,HGB,Hemoglobin,HEMATOLOGY,14.91,g/dL,13.5,17.5,14.91,14.91,g/dL,13.5,17.5,NORMAL,,WEEK 12,7,2025-05-11,84
STUDY001,LB,STUDY001-SUBJ0008,62,L00062,HCT,Hematocrit,HEMATOLOGY,43.87,%,41.0,51.0,43.87,43.87,%,41.0,51.0,NORMAL,,WEEK 12,7,2025-05-11,84
STUDY001,LB,STUDY001-SUBJ0008,63,L00063,WBC,White Blood Cell Count,HEMATOLOGY,6.03,10^9/L,4.5,11.0,6.03,6.03,10^9/L,4.5,11.0,NORMAL,,WEEK 12,7,2025-05-11,84
STUDY001,LB,STUDY001-SUBJ0008,64,L00064,PLT,Platelet Count,HEMATOLOGY,308.31,10^9/L,150.0,450.0,308.31,308.31,10^9/L,150.0,450.0,NORMAL,,WEEK 12,7,2025-05-11,84
STUDY001,LB,STUDY001-SUBJ0008,65,L00065,GLUC,Glucose,CHEMISTRY,72.12,mg/dL,70.0,100.0,72.12,72.12,mg/dL,70.0,100.0,NORMAL,,WEEK 12,7,2025-05-11,84
STUDY001,LB,STUDY001-SUBJ0008,66,L00066,BUN,Blood Urea Nitrogen,CHEMISTRY,16.06,mg/dL,7.0,20.0,16.06,16.06,mg/dL,7.0,20.0,NORMAL,,WEEK 12,7,2025-05-11,84
STUDY001,LB,STUDY001-SUBJ0008,67,L00067,CREAT,Creatinine,CHEMISTRY,0.88,mg/dL,0.6,1.2,0.88,0.88,mg/dL,0.6,1.2,NORMAL,,WEEK 12,7,2025-05-11,84
STUDY001,LB,STUDY001-SUBJ0008,68,L00068,BILI,Total Bilirubin,CHEMISTRY,0.4,mg/dL,0.1,1.2,0.4,0.4,mg/dL,0.1,1.2,NORMAL,,WEEK 12,7,2025-05-11,84
STUDY001,LB,STUDY001-SUBJ0008,69,L00069,ALP,Alkaline Phosphatase,CHEMISTRY,81.63,U/L,44.0,147.0,81.63,81.63,U/L,44.0,147.0,NORMAL,,WEEK 12,7,2025-05-11,84
STUDY001,LB,STUDY001-SUBJ0008,70,L00070,ALT,Alanine Aminotransferase,CHEMISTRY,28.49,U/L,7.0,56.0,28.49,28.49,U/L,7.0,56.0,NORMAL,,WEEK 12,7,2025-05-11,84
STUDY001,LB,STUDY001-SUBJ0008,71,L00071,HGB,Hemoglobin,HEMATOLOGY,14.73,g/dL,13.5,17.5,14.73,14.73,g/dL,13.5,17.5,NORMAL,,WEEK 16,8,2025-06-08,112
STUDY001,LB,STUDY001-SUBJ0008,72,L00072,HCT,Hematocrit,HEMATOLOGY,43.79,%,41.0,51.0,43.79,43.79,%,41.0,51.0,NORMAL,,WEEK 16,8,2025-06-08,112
STUDY001,LB,STUDY001-SUBJ0008,73,L00073,WBC,White Blood Cell Count,HEMATOLOGY,5.98,10^9/L,4.5,11.0,5.98,5.98,10^9/L,4.5,11.0,NORMAL,,WEEK 16,8,2025-06-08,112
STUDY001,LB,STUDY001-SUBJ0008,74,L00074,PLT,Platelet Count,HEMATOLOGY,299.67,10^9/L,150.0,450.0,299.67,299.67,10^9/L,150.0,450.0,NORMAL,,WEEK 16,8,2025-06-08,112
STUDY001,LB,STUDY001-SUBJ0008,75,L00075,GLUC,Glucose,CHEMISTRY,72.32,mg/dL,70.0,100.0,72.32,72.32,mg/dL,70.0,100.0,NORMAL,,WEEK 16,8,2025-06-08,112
STUDY001,LB,STUDY001-SUBJ0008,76,L00076,BUN,Blood Urea Nitrogen,CHEMISTRY,15.45,mg/dL,7.0,20.0,15.45,15.45,mg/dL,7.0,20.0,NORMAL,,WEEK 16,8,2025-06-08,112
STUDY001,LB,STUDY001-SUBJ0008,77,L00077,CREAT,Creatinine,CHEMISTRY,0.86,mg/dL,0.6,1.2,0.86,0.86,mg/dL,0.6,1.2,NORMAL,,WEEK 16,8,2025-06-08,112
STUDY001,LB,STUDY001-SUBJ0008,78,L00078,BILI,Total Bilirubin,CHEMISTRY,0.43,mg/dL,0.1,1.2,0.43,0.43,mg/dL,0.1,1.2,NORMAL,,WEEK 16,8,2025-06-08,112
STUDY001,LB,STUDY001-SUBJ0008,79,L00079,ALP,Alkaline Phosphatase,CHEMISTRY,82.65,U/L,44.0,147.0,82.65,82.65,U/L,44.0,147.0,NORMAL,,WEEK 16,8,2025-06-08,112
STUDY001,LB,STUDY001-SUBJ0008,80,L00080,ALT,Alanine Aminotransferase,CHEMISTRY,30.57,U/L,7.0,56.0,30.57,30.57,U/L,7.0,56.0,NORMAL,,WEEK 16,8,2025-06-08,112
STUDY001,LB,STUDY001-SUBJ0008,81,L00081,HGB,Hemoglobin,HEMATOLOGY,14.76,g/dL,13.5,17.5,14.76,14.76,g/dL,13.5,17.5,NORMAL,,END OF TREATMENT,9,2025-07-06,140
STUDY001,LB,STUDY001-SUBJ0008,82,L00082,HCT,Hematocrit,HEMATOLOGY,44.21,%,41.0,51.0,44.21,44.21,%,41.0,51.0,NORMAL,,END OF TREATMENT,9,2025-07-06,140
STUDY001,LB,STUDY001-SUBJ0008,83,L00083,WBC,White Blood Cell Count,HEMATOLOGY,6.09,10^9/L,4.5,11.0,6.09,6.09,10^9/L,4.5,11.0,NORMAL,,END OF TREATMENT,9,2025-07-06,140
STUDY001,LB,STUDY001-SUBJ0008,84,L00084,PLT,Platelet Count,HEMATOLOGY,307.35,10^9/L,150.0,450.0,307.35,307.35,10^9/L,150.0,450.0,NORMAL,,END OF TREATMENT,9,2025-07-06,140
STUDY001,LB,STUDY001-SUBJ0008,85,L00085,GLUC,Glucose,CHEMISTRY,70.81,mg/dL,70.0,100.0,70.81,70.81,mg/dL,70.0,100.0,NORMAL,,END OF TREATMENT,9,2025-07-06,140
STUDY001,LB,STUDY001-SUBJ0008,86,L00086,BUN,Blood Urea Nitrogen,CHEMISTRY,15.28,mg/dL,7.0,20.0,15.28,15.28,mg/dL,7.0,20.0,NORMAL,,END OF TREATMENT,9,2025-07-06,140
STUDY001,LB,STUDY001-SUBJ0008,87,L00087,CREAT,Creatinine,CHEMISTRY,0.89,mg/dL,0.6,1.2,0.89,0.89,mg/dL,0.6,1.2,NORMAL,,END OF TREATMENT,9,2025-07-06,140
STUDY001,LB,STUDY001-SUBJ0008,88,L00088,BILI,Total Bilirubin,CHEMISTRY,0.39,mg/dL,0.1,1.2,0.39,0.39,mg/dL,0.1,1.2,NORMAL,,END OF TREATMENT,9,2025-07-06,140
STUDY001,LB,STUDY001-SUBJ0008,89,L00089,ALP,Alkaline Phosphatase,CHEMISTRY,83.1,U/L,44.0,147.0,83.1,83.1,U/L,44.0,147.0,NORMAL,,END OF TREATMENT,9,2025-07-06,140
STUDY001,LB,STUDY001-SUBJ0008,90,L00090,ALT,Alanine Aminotransferase,CHEMISTRY,28.35,U/L,7.0,56.0,28.35,28.35,U/L,7.0,56.0,NORMAL,,END OF TREATMENT,9,2025-07-06,140
STUDY001,LB,STUDY001-SUBJ0009,1,L00001,HGB,Hemoglobin,HEMATOLOGY,14.62,g/dL,13.5,17.5,14.62,14.62,g/dL,13.5,17.5,NORMAL,,SCREENING,1,2025-07-05,-14
STUDY001,LB,STUDY001-SUBJ0009,2,L00002,HCT,Hematocrit,HEMATOLOGY,45.62,%,41.0,51.0,45.62,45.62,%,41.0,51.0,NORMAL,,SCREENING,1,2025-07-05,-14
STUDY001,LB,STUDY001-SUBJ0009,3,L00003,WBC,White Blood Cell Count,HEMATOLOGY,7.45,10^9/L,4.5,11.0,7.45,7.45,10^9/L,4.5,11.0,NORMAL,,SCREENING,1,2025-07-05,-14
STUDY001,LB,STUDY001-SUBJ0009,4,L00004,PLT,Platelet Count,HEMATOLOGY,279.16,10^9/L,150.0,450.0,279.16,279.16,10^9/L,150.0,450.0,NORMAL,,SCREENING,1,2025-07-05,-14
STUDY001,LB,STUDY001-SUBJ0009,5,L00005,GLUC,Glucose,CHEMISTRY,82.82,mg/dL,70.0,100.0,82.82,82.82,mg/dL,70.0,100.0,NORMAL,,SCREENING,1,2025-07-05,-14
STUDY001,LB,STUDY001-SUBJ0009,6,L00006,BUN,Blood Urea Nitrogen,CHEMISTRY,9.28,mg/dL,7.0,20.0,9.28,9.28,mg/dL,7.0,20.0,NORMAL,,SCREENING,1,2025-07-05,-14
STUDY001,LB,STUDY001-SUBJ0009,7,L00007,CREAT,Creatinine,CHEMISTRY,1.03,mg/dL,0.6,1.2,1.03,1.03,mg/dL,0.6,1.2,NORMAL,,SCREENING,1,2025-07-05,-14
STUDY001,LB,STUDY001-SUBJ0009,8,L00008,BILI,Total Bilirubin,CHEMISTRY,0.88,mg/dL,0.1,1.2,0.88,0.88,mg/dL,0.1,1.2,NORMAL,,SCREENING,1,2025-07-05,-14
STUDY001,LB,STUDY001-SUBJ0009,9,L00009,ALP,Alkaline Phosphatase,CHEMISTRY,88.65,U/L,44.0,147.0,88.65,88.65,U/L,44.0,147.0,NORMAL,,SCREENING,1,2025-07-05,-14
STUDY001,LB,STUDY001-SUBJ0009,10,L00010,ALT,Alanine Aminotransferase,CHEMISTRY,23.64,U/L,7.0,56.0,23.64,23.64,U/L,7.0,56.0,NORMAL,,SCREENING,1,2025-07-05,-14
STUDY001,LB,STUDY001-SUBJ0009,11,L00011,HGB,Hemoglobin,HEMATOLOGY,14.46,g/dL,13.5,17.5,14.46,14.46,g/dL,13.5,17.5,NORMAL,Y,BASELINE,2,2025-07-19,1
STUDY001,LB,STUDY001-SUBJ0009,12,L00012,HCT,Hematocrit,HEMATOLOGY,46.14,%,41.0,51.0,46.14,46.14,%,41.0,51.0,NORMAL,Y,BASELINE,2,2025-07-19,1
STUDY001,LB,STUDY001-SUBJ0009,13,L00013,WBC,White Blood Cell Count,HEMATOLOGY,7.57,10^9/L,4.5,11.0,7.57,7.57,10^9/L,4.5,11.0,NORMAL,Y,BASELINE,2,2025-07-19,1
STUDY001,LB,STUDY001-SUBJ0009,14,L00014,PLT,Platelet Count,HEMATOLOGY,272.9,10^9/L,150.0,450.0,272.9,272.9,10^9/L,150.0,450.0,NORMAL,Y,BASELINE,2,2025-07-19,1
STUDY001,LB,STUDY001-SUBJ0009,15,L00015,GLUC,Glucose,CHEMISTRY,81.37,mg/dL,70.0,100.0,81.37,81.37,mg/dL,70.0,100.0,NORMAL,Y,BASELINE,2,2025-07-19,1
STUDY001,LB,STUDY001-SUBJ0009,16,L00016,BUN,Blood Urea Nitrogen,CHEMISTRY,9.72,mg/dL,7.0,20.0,9.72,9.72,mg/dL,7.0,20.0,NORMAL,Y,BASELINE,2,2025-07-19,1
STUDY001,LB,STUDY001-SUBJ0009,17,L00017,CREAT,Creatinine,CHEMISTRY,1.03,mg/dL,0.6,1.2,1.03,1.03,mg/dL,0.6,1.2,NORMAL,Y,BASELINE,2,2025-07-19,1
STUDY001,LB,STUDY001-SUBJ0009,18,L00018,BILI,Total Bilirubin,CHEMISTRY,0.89,mg/dL,0.1,1.2,0.89,0.89,mg/dL,0.1,1.2,NORMAL,Y,BASELINE,2,2025-07-19,1
STUDY001,LB,STUDY001-SUBJ0009,19,L00019,ALP,Alkaline Phosphatase,CHEMISTRY,88.61,U/L,44.0,147.0,88.61,88.61,U/L,44.0,147.0,NORMAL,Y,BASELINE,2,2025-07-19,1
STUDY001,LB,STUDY001-SUBJ0009,20,L00020,ALT,Alanine Aminotransferase,CHEMISTRY,23.28,U/L,7.0,56.0,23.28,23.28,U/L,7.0,56.0,NORMAL,Y,BASELINE,2,2025-07-19,1
STUDY001,LB,STUDY001-SUBJ0009,21,L00021,HGB,Hemoglobin,HEMATOLOGY,14.56,g/dL,13.5,17.5,14.56,14.56,g/dL,13.5,17.5,NORMAL,,WEEK 1,3,2025-07-25,7
STUDY001,LB,STUDY001-SUBJ0009,22,L00022,HCT,Hematocrit,HEMATOLOGY,45.58,%,41.0,51.0,45.58,45.58,%,41.0,51.0,NORMAL,,WEEK 1,3,2025-07-25,7
STUDY001,LB,STUDY001-SUBJ0009,23,L00023,WBC,White Blood Cell Count,HEMATOLOGY,7.51,10^9/L,4.5,11.0,7.51,7.51,10^9/L,4.5,11.0,NORMAL,,WEEK 1,3,2025-07-25,7
STUDY001,LB,STUDY001-SUBJ0009,24,L00024,PLT,Platelet Count,HEMATOLOGY,266.62,10^9/L,150.0,450.0,266.62,266.62,10^9/L,150.0,450.0,NORMAL,,WEEK 1,3,2025-07-25,7
STUDY001,LB,STUDY001-SUBJ0009,25,L00025,GLUC,Glucose,CHEMISTRY,80.19,mg/dL,70.0,100.0,80.19,80.19,mg/dL,70.0,100.0,NORMAL,,WEEK 1,3,2025-07-25,7
STUDY001,LB,STUDY001-SUBJ0009,26,L00026,BUN,Blood Urea Nitrogen,CHEMISTRY,10.23,mg/dL,7.0,20.0,10.23,10.23,mg/dL,7.0,20.0,NORMAL,,WEEK 1,3,2025-07-25,7
STUDY001,LB,STUDY001-SUBJ0009,27,L00027,CREAT,Creatinine,CHEMISTRY,1.04,mg/dL,0.6,1.2,1.04,1.04,mg/dL,0.6,1.2,NORMAL,,WEEK 1,3,2025-07-25,7
STUDY001,LB,STUDY001-SUBJ0009,28,L00028,BILI,Total Bilirubin,CHEMISTRY,0.88,mg/dL,0.1,1.2,0.88,0.88,mg/dL,0.1,1.2,NORMAL,,WEEK 1,3,2025-07-25,7
STUDY001,LB,STUDY001-SUBJ0009,29,L00029,ALP,Alkaline Phosphatase,CHEMISTRY,89.12,U/L,44.0,147.0,89.12,89.12,U/L,44.0,147.0,NORMAL,,WEEK 1,3,2025-07-25,7
STUDY001,LB,STUDY001-SUBJ0009,30,L00030,ALT,Alanine Aminotransferase,CHEMISTRY,23.2,U/L,7.0,56.0,23.2,23.2,U/L,7.0,56.0,NORMAL,,WEEK 1,3,2025-07-25,7
STUDY001,LB,STUDY001-SUBJ0009,31,L00031,HGB,Hemoglobin,HEMATOLOGY,14.7,g/dL,13.5,17.5,14.7,14.7,g/dL,13.5,17.5,NORMAL,,WEEK 2,4,2025-08-01,14
STUDY001,LB,STUDY001-SUBJ0009,32,L00032,HCT,Hematocrit,HEMATOLOGY,45.98,%,41.0,51.0,45.98,45.98,%,41.0,51.0,NORMAL,,WEEK 2,4,2025-08-01,14
STUDY001,LB,STUDY001-SUBJ0009,33,L00033,WBC,White Blood Cell Count,HEMATOLOGY,7.44,10^9/L,4.5,11.0,7.44,7.44,10^9/L,4.5,11.0,NORMAL,,WEEK 2,4,2025-08-01,14
STUDY001,LB,STUDY001-SUBJ0009,34,L00034,PLT,Platelet Count,HEMATOLOGY,274.27,10^9/L,150.0,450.0,274.27,274.27,10^9/L,150.0,450.0,NORMAL,,WEEK 2,4,2025-08-01,14
STUDY001,LB,STUDY001-SUBJ0009,35,L00035,GLUC,Glucose,CHEMISTRY,81.69,mg/dL,70.0,100.0,81.69,81.69,mg/dL,70.0,100.0,NORMAL,,WEEK 2,4,2025-08-01,14
STUDY001,LB,STUDY001-SUBJ0009,36,L00036,BUN,Blood Urea Nitrogen,CHEMISTRY,9.65,mg/dL,7.0,20.0,9.65,9.65,mg/dL,7.0,20.0,NORMAL,,WEEK 2,4,2025-08-01,14
STUDY001,LB,STUDY001-SUBJ0009,37,L00037,CREAT,Creatinine,CHEMISTRY,1.03,mg/dL,0.6,1.2,1.03,1.03,mg/dL,0.6,1.2,NORMAL,,WEEK 2,4,2025-08-01,14
STUDY001,LB,STUDY001-SUBJ0009,38,L00038,BILI,Total Bilirubin,CHEMISTRY,0.93,mg/dL,0.1,1.2,0.93,0.93,mg/dL,0.1,1.2,NORMAL,,WEEK 2,4,2025-08-01,14
STUDY001,LB,STUDY001-SUBJ0009,39,L00039,ALP,Alkaline Phosphatase,CHEMISTRY,91.24,U/L,44.0,147.0,91.24,91.24,U/L,44.0,147.0,NORMAL,,WEEK 2,4,2025-08-01,14
STUDY001,LB,STUDY001-SUBJ0009,40,L00040,ALT,Alanine Aminotransferase,CHEMISTRY,24.38,U/L,7.0,56.0,24.38,24.38,U/L,7.0,56.0,NORMAL,,WEEK 2,4,2025-08-01,14
STUDY001,LB,STUDY001-SUBJ0009,41,L00041,HGB,Hemoglobin,HEMATOLOGY,14.63,g/dL,13.5,17.5,14.63,14.63,g/dL,13.5,17.5,NORMAL,,WEEK 4,5,2025-08-15,28
STUDY001,LB,STUDY001-SUBJ0009,42,L00042,HCT,Hematocrit,HEMATOLOGY,45.69,%,41.0,51.0,45.69,45.69,%,41.0,51.0,NORMAL,,WEEK 4,5,2025-08-15,28
STUDY001,LB,STUDY001-SUBJ0009,43,L00043,WBC,White Blood Cell Count,HEMATOLOGY,7.58,10^9/L,4.5,11.0,7.58,7.58,10^9/L,4.5,11.0,NORMAL,,WEEK 4,5,2025-08-15,28
STUDY001,LB,STUDY001-SUBJ0009,44,L00044,PLT,Platelet Count,HEMATOLOGY,265.11,10^9/L,150.0,450.0,265.11,265.11,10^9/L,150.0,450.0,NORMAL,,WEEK 4,5,2025-08-15,28
STUDY001,LB,STUDY001-SUBJ0009,45,L00045,GLUC,Glucose,CHEMISTRY,81.66,mg/dL,70.0,100.0,81.66,81.66,mg/dL,70.0,100.0,NORMAL,,WEEK 4,5,2025-08-15,28
STUDY001,LB,STUDY001-SUBJ0009,46,L00046,BUN,Blood Urea Nitrogen,CHEMISTRY,9.13,mg/dL,7.0,20.0,9.13,9.13,mg/dL,7.0,20.0,NORMAL,,WEEK 4,5,2025-08-15,28
STUDY001,LB,STUDY001-SUBJ0009,47,L00047,CREAT,Creatinine,CHEMISTRY,1.03,mg/dL,0.6,1.2,1.03,1.03,mg/dL,0.6,1.2,NORMAL,,WEEK 4,5,2025-08-15,28
STUDY001,LB,STUDY001-SUBJ0009,48,L00048,BILI,Total Bilirubin,CHEMISTRY,0.93,mg/dL,0.1,1.2,0.93,0.93,mg/dL,0.1,1.2,NORMAL,,WEEK 4,5,2025-08-15,28
STUDY001,LB,STUDY001-SUBJ0009,49,L00049,ALP,Alkaline Phosphatase,CHEMISTRY,87.65,U/L,44.0,147.0,87.65,87.65,U/L,44.0,147.0,NORMAL,,WEEK 4,5,2025-08-15,28
STUDY001,LB,STUDY001-SUBJ0009,50,L00050,ALT,Alanine Aminotransferase,CHEMISTRY,23.74,U/L,7.0,56.0,23.74,23.74,U/L,7.0,56.0,NORMAL,,WEEK 4,5,2025-08-15,28
STUDY001,LB,STUDY001-SUBJ0009,51,L00051,HGB,Hemoglobin,HEMATOLOGY,14.51,g/dL,13.5,17.5,14.51,14.51,g/dL,13.5,17.5,NORMAL,,WEEK 8,6,2025-09-12,56
STUDY001,LB,STUDY001-SUBJ0009,52,L00052,HCT,Hematocrit,HEMATOLOGY,45.8,%,41.0,51.0,45.8,45.8,%,41.0,51.0,NORMAL,,WEEK 8,6,2025-09-12,56
STUDY001,LB,STUDY001-SUBJ0009,53,L00053,WBC,White Blood Cell Count,HEMATOLOGY,7.16,10^9/L,4.5,11.0,7.16,7.16,10^9/L,4.5,11.0,NORMAL,,WEEK 8,6,2025-09-12,56
STUDY001,LB,STUDY001-SUBJ0009,54,L00054,PLT,Platelet Count,HEMATOLOGY,279.58,10^9/L,150.0,450.0,279.58,279.58,10^9/L,150.0,450.0,NORMAL,,WEEK 8,6,2025-09-12,56
STUDY001,LB,STUDY001-SUBJ0009,55,L00055,GLUC,Glucose,CHEMISTRY,79.92,mg/dL,70.0,100.0,79.92,79.92,mg/dL,70.0,100.0,NORMAL,,WEEK 8,6,2025-09-12,56
STUDY001,LB,STUDY001-SUBJ0009,56,L00056,BUN,Blood Urea Nitrogen,CHEMISTRY,9.74,mg/dL,7.0,20.0,9.74,9.74,mg/dL,7.0,20.0,NORMAL,,WEEK 8,6,2025-09-12,56
STUDY001,LB,STUDY001-SUBJ0009,57,L00057,CREAT,Creatinine,CHEMISTRY,1.01,mg/dL,0.6,1.2,1.01,1.01,mg/dL,0.6,1.2,NORMAL,,WEEK 8,6,2025-09-12,56
STUDY001,LB,STUDY001-SUBJ0009,58,L00058,BILI,Total Bilirubin,CHEMISTRY,0.91,mg/dL,0.1,1.2,0.91,0.91,mg/dL,0.1,1.2,NORMAL,,WEEK 8,6,2025-09-12,56
STUDY001,LB,STUDY001-SUBJ0009,59,L00059,ALP,Alkaline Phosphatase,CHEMISTRY,89.36,U/L,44.0,147.0,89.36,89.36,U/L,44.0,147.0,NORMAL,,WEEK 8,6,2025-09-12,56
STUDY001,LB,STUDY001-SUBJ0009,60,L00060,ALT,Alanine Aminotransferase,CHEMISTRY,24.1,U/L,7.0,56.0,24.1,24.1,U/L,7.0,56.0,NORMAL,,WEEK 8,6,2025-09-12,56
STUDY001,LB,STUDY001-SUBJ0009,61,L00061,HGB,Hemoglobin,HEMATOLOGY,14.42,g/dL,13.5,17.5,14.42,14.42,g/dL,13.5,17.5,NORMAL,,WEEK 12,7,2025-10-10,84
STUDY001,LB,STUDY001-SUBJ0009,62,L00062,HCT,Hematocrit,HEMATOLOGY,45.98,%,41.0,51.0,45.98,45.98,%,41.0,51.0,NORMAL,,WEEK 12,7,2025-10-10,84
STUDY001,LB,STUDY001-SUBJ0009,63,L00063,WBC,White Blood Cell Count,HEMATOLOGY,7.49,10^9/L,4.5,11.0,7.49,7.49,10^9/L,4.5,11.0,NORMAL,,WEEK 12,7,2025-10-10,84
STUDY001,LB,STUDY001-SUBJ0009,64,L00064,PLT,Platelet Count,HEMATOLOGY,271.93,10^9/L,150.0,450.0,271.93,271.93,10^9/L,150.0,450.0,NORMAL,,WEEK 12,7,2025-10-10,84
STUDY001,LB,STUDY001-SUBJ0009,65,L00065,GLUC,Glucose,CHEMISTRY,82.06,mg/dL,70.0,100.0,82.06,82.06,mg/dL,70.0,100.0,NORMAL,,WEEK 12,7,2025-10-10,84
STUDY001,LB,STUDY001-SUBJ0009,66,L00066,BUN,Blood Urea Nitrogen,CHEMISTRY,9.97,mg/dL,7.0,20.0,9.97,9.97,mg/dL,7.0,20.0,NORMAL,,WEEK 12,7,2025-10-10,84
STUDY001,LB,STUDY001-SUBJ0009,67,L00067,CREAT,Creatinine,CHEMISTRY,1.03,mg/dL,0.6,1.2,1.03,1.03,mg/dL,0.6,1.2,NORMAL,,WEEK 12,7,2025-10-10,84
STUDY001,LB,STUDY001-SUBJ0009,68,L00068,BILI,Total Bilirubin,CHEMISTRY,0.9,mg/dL,0.1,1.2,0.9,0.9,mg/dL,0.1,1.2,NORMAL,,WEEK 12,7,2025-10-10,84
STUDY001,LB,STUDY001-SUBJ0009,69,L00069,ALP,Alkaline Phosphatase,CHEMISTRY,88.57,U/L,44.0,147.0,88.57,88.57,U/L,44.0,147.0,NORMAL,,WEEK 12,7,2025-10-10,84
STUDY001,LB,STUDY001-SUBJ0009,70,L00070,ALT,Alanine Aminotransferase,CHEMISTRY,23.69,U/L,7.0,56.0,23.69,23.69,U/L,7.0,56.0,NORMAL,,WEEK 12,7,2025-10-10,84
STUDY001,LB,STUDY001-SUBJ0009,71,L00071,HGB,Hemoglobin,HEMATOLOGY,14.43,g/dL,13.5,17.5,14.43,14.43,g/dL,13.5,17.5,NORMAL,,WEEK 16,8,2025-11-07,112
STUDY001,LB,STUDY001-SUBJ0009,72,L00072,HCT,Hematocrit,HEMATOLOGY,46.37,%,41.0,51.0,46.37,46.37,%,41.0,51.0,NORMAL,,WEEK 16,8,2025-11-07,112
STUDY001,LB,STUDY001-SUBJ0009,73,L00073,WBC,White Blood Cell Count,HEMATOLOGY,7.3,10^9/L,4.5,11.0,7.3,7.3,10^9/L,4.5,11.0,NORMAL,,WEEK 16,8,2025-11-07,112
STUDY001,LB,STUDY001-SUBJ0009,74,L00074,PLT,Platelet Count,HEMATOLOGY,273.88,10^9/L,150.0,450.0,273.88,273.88,10^9/L,150.0,450.0,NORMAL,,WEEK 16,8,2025-11-07,112
STUDY001,LB,STUDY001-SUBJ0009,75,L00075,GLUC,Glucose,CHEMISTRY,83.0,mg/dL,70.0,100.0,83.0,83.0,mg/dL,70.0,100.0,NORMAL,,WEEK 16,8,2025-11-07,112
STUDY001,LB,STUDY001-SUBJ0009,76,L00076,BUN,Blood Urea Nitrogen,CHEMISTRY,9.82,mg/dL,7.0,20.0,9.82,9.82,mg/dL,7.0,20.0,NORMAL,,WEEK 16,8,2025-11-07,112
STUDY001,LB,STUDY001-SUBJ0009,77,L00077,CREAT,Creatinine,CHEMISTRY,1.02,mg/dL,0.6,1.2,1.02,1.02,mg/dL,0.6,1.2,NORMAL,,WEEK 16,8,2025-11-07,112
STUDY001,LB,STUDY001-SUBJ0009,78,L00078,BILI,Total Bilirubin,CHEMISTRY,0.91,mg/dL,0.1,1.2,0.91,0.91,mg/dL,0.1,1.2,NORMAL,,WEEK 16,8,2025-11-07,112
STUDY001,LB,STUDY001-SUBJ0009,79,L00079,ALP,Alkaline Phosphatase,CHEMISTRY,88.4,U/L,44.0,147.0,88.4,88.4,U/L,44.0,147.0,NORMAL,,WEEK 16,8,2025-11-07,112
STUDY001,LB,STUDY001-SUBJ0009,80,L00080,ALT,Alanine Aminotransferase,CHEMISTRY,23.94,U/L,7.0,56.0,23.94,23.94,U/L,7.0,56.0,NORMAL,,WEEK 16,8,2025-11-07,112
STUDY001,LB,STUDY001-SUBJ0009,81,L00081,HGB,Hemoglobin,HEMATOLOGY,14.61,g/dL,13.5,17.5,14.61,14.61,g/dL,13.5,17.5,NORMAL,,END OF TREATMENT,9,2025-12-05,140
STUDY001,LB,STUDY001-SUBJ0009,82,L00082,HCT,Hematocrit,HEMATOLOGY,45.38,%,41.0,51.0,45.38,45.38,%,41.0,51.0,NORMAL,,END OF TREATMENT,9,2025-12-05,140
STUDY001,LB,STUDY001-SUBJ0009,83,L00083,WBC,White Blood Cell Count,HEMATOLOGY,7.53,10^9/L,4.5,11.0,7.53,7.53,10^9/L,4.5,11.0,NORMAL,,END OF TREATMENT,9,2025-12-05,140
STUDY001,LB,STUDY001-SUBJ0009,84,L00084,PLT,Platelet Count,HEMATOLOGY,277.37,10^9/L,150.0,450.0,277.37,277.37,10^9/L,150.0,450.0,NORMAL,,END OF TREATMENT,9,2025-12-05,140
STUDY001,LB,STUDY001-SUBJ0009,85,L00085,GLUC,Glucose,CHEMISTRY,80.7,mg/dL,70.0,100.0,80.7,80.7,mg/dL,70.0,100.0,NORMAL,,END OF TREATMENT,9,2025-12-05,140
STUDY001,LB,STUDY001-SUBJ0009,86,L00086,BUN,Blood Urea Nitrogen,CHEMISTRY,9.24,mg/dL,7.0,20.0,9.24,9.24,mg/dL,7.0,20.0,NORMAL,,END OF TREATMENT,9,2025-12-05,140
STUDY001,LB,STUDY001-SUBJ0009,87,L00087,CREAT,Creatinine,CHEMISTRY,1.03,mg/dL,0.6,1.2,1.03,1.03,mg/dL,0.6,1.2,NORMAL,,END OF TREATMENT,9,2025-12-05,140
STUDY001,LB,STUDY001-SUBJ0009,88,L00088,BILI,Total Bilirubin,CHEMISTRY,0.92,mg/dL,0.1,1.2,0.92,0.92,mg/dL,0.1,1.2,NORMAL,,END OF TREATMENT,9,2025-12-05,140
STUDY001,LB,STUDY001-SUBJ0009,89,L00089,ALP,Alkaline Phosphatase,CHEMISTRY,88.96,U/L,44.0,147.0,88.96,88.96,U/L,44.0,147.0,NORMAL,,END OF TREATMENT,9,2025-12-05,140
STUDY001,LB,STUDY001-SUBJ0009,90,L00090,ALT,Alanine Aminotransferase,CHEMISTRY,24.95,U/L,7.0,56.0,24.95,24.95,U/L,7.0,56.0,NORMAL,,END OF TREATMENT,9,2025-12-05,140
STUDY001,LB,STUDY001-SUBJ0010,1,L00001,HGB,Hemoglobin,HEMATOLOGY,15.13,g/dL,13.5,17.5,15.13,15.13,g/dL,13.5,17.5,NORMAL,,SCREENING,1,2024-08-24,-14
STUDY001,LB,STUDY001-SUBJ0010,2,L00002,HCT,Hematocrit,HEMATOLOGY,45.25,%,41.0,51.0,45.25,45.25,%,41.0,51.0,NORMAL,,SCREENING,1,2024-08-24,-14
STUDY001,LB,STUDY001-SUBJ0010,3,L00003,WBC,White Blood Cell Count,HEMATOLOGY,6.77,10^9/L,4.5,11.0,6.77,6.77,10^9/L,4.5,11.0,NORMAL,,SCREENING,1,2024-08-24,-14
STUDY001,LB,STUDY001-SUBJ0010,4,L00004,PLT,Platelet Count,HEMATOLOGY,300.9,10^9/L,150.0,450.0,300.9,300.9,10^9/L,150.0,450.0,NORMAL,,SCREENING,1,2024-08-24,-14
STUDY001,LB,STUDY001-SUBJ0010,5,L00005,GLUC,Glucose,CHEMISTRY,82.08,mg/dL,70.0,100.0,82.08,82.08,mg/dL,70.0,100.0,NORMAL,,SCREENING,1,2024-08-24,-14
STUDY001,LB,STUDY001-SUBJ0010,6,L00006,BUN,Blood Urea Nitrogen,CHEMISTRY,10.35,mg/dL,7.0,20.0,10.35,10.35,mg/dL,7.0,20.0,NORMAL,,SCREENING,1,2024-08-24,-14
STUDY001,LB,STUDY001-SUBJ0010,7,L00007,CREAT,Creatinine,CHEMISTRY,0.73,mg/dL,0.6,1.2,0.73,0.73,mg/dL,0.6,1.2,NORMAL,,SCREENING,1,2024-08-24,-14
STUDY001,LB,STUDY001-SUBJ0010,8,L00008,BILI,Total Bilirubin,CHEMISTRY,0.43,mg/dL,0.1,1.2,0.43,0.43,mg/dL,0.1,1.2,NORMAL,,SCREENING,1,2024-08-24,-14
STUDY001,LB,STUDY001-SUBJ0010,9,L00009,ALP,Alkaline Phosphatase,CHEMISTRY,133.69,U/L,44.0,147.0,133.69,133.69,U/L,44.0,147.0,NORMAL,,SCREENING,1,2024-08-24,-14
STUDY001,LB,STUDY001-SUBJ0010,10,L00010,ALT,Alanine Aminotransferase,CHEMISTRY,26.95,U/L,7.0,56.0,26.95,26.95,U/L,7.0,56.0,NORMAL,,SCREENING,1,2024-08-24,-14
STUDY001,LB,STUDY001-SUBJ0010,11,L00011,HGB,Hemoglobin,HEMATOLOGY,15.08,g/dL,13.5,17.5,15.08,15.08,g/dL,13.5,17.5,NORMAL,Y,BASELINE,2,2024-09-07,1
STUDY001,LB,STUDY001-SUBJ0010,12,L00012,HCT,Hematocrit,HEMATOLOGY,45.49,%,41.0,51.0,45.49,45.49,%,41.0,51.0,NORMAL,Y,BASELINE,2,2024-09-07,1
STUDY001,LB,STUDY001-SUBJ0010,13,L00013,WBC,White Blood Cell Count,HEMATOLOGY,7.09,10^9/L,4.5,11.0,7.09,7.09,10^9/L,4.5,11.0,NORMAL,Y,BASELINE,2,2024-09-07,1
STUDY001,LB,STUDY001-SUBJ0010,14,L00014,PLT,Platelet Count,HEMATOLOGY,293.11,10^9/L,150.0,450.0,293.11,293.11,10^9/L,150.0,450.0,NORMAL,Y,BASELINE,2,2024-09-07,1
STUDY001,LB,STUDY001-SUBJ0010,15,L00015,GLUC,Glucose,CHEMISTRY,81.61,mg/dL,70.0,100.0,81.61,81.61,mg/dL,70.0,100.0,NORMAL,Y,BASELINE,2,2024-09-07,1
STUDY001,LB,STUDY001-SUBJ0010,16,L00016,BUN,Blood Urea Nitrogen,CHEMISTRY,10.02,mg/dL,7.0,20.0,10.02,10.02,mg/dL,7.0,20.0,NORMAL,Y,BASELINE,2,2024-09-07,1
STUDY001,LB,STUDY001-SUBJ0010,17,L00017,CREAT,Creatinine,CHEMISTRY,0.72,mg/dL,0.6,1.2,0.72,0.72,mg/dL,0.6,1.2,NORMAL,Y,BASELINE,2,2024-09-07,1
STUDY001,LB,STUDY001-SUBJ0010,18,L00018,BILI,Total Bilirubin,CHEMISTRY,0.46,mg/dL,0.1,1.2,0.46,0.46,mg/dL,0.1,1.2,NORMAL,Y,BASELINE,2,2024-09-07,1
STUDY001,LB,STUDY001-SUBJ0010,19,L00019,ALP,Alkaline Phosphatase,CHEMISTRY,138.19,U/L,44.0,147.0,138.19,138.19,U/L,44.0,147.0,NORMAL,Y,BASELINE,2,2024-09-07,1
STUDY001,LB,STUDY001-SUBJ0010,20,L00020,ALT,Alanine Aminotransferase,CHEMISTRY,26.66,U/L,7.0,56.0,26.66,26.66,U/L,7.0,56.0,NORMAL,Y,BASELINE,2,2024-09-07,1
STUDY001,LB,STUDY001-SUBJ0010,21,L00021,HGB,Hemoglobin,HEMATOLOGY,14.96,g/dL,13.5,17.5,14.96,14.96,g/dL,13.5,17.5,NORMAL,,WEEK 1,3,2024-09-13,7
STUDY001,LB,STUDY001-SUBJ0010,22,L00022,HCT,Hematocrit,HEMATOLOGY,45.36,%,41.0,51.0,45.36,45.36,%,41.0,51.0,NORMAL,,WEEK 1,3,2024-09-13,7
STUDY001,LB,STUDY001-SUBJ0010,23,L00023,WBC,White Blood Cell Count,HEMATOLOGY,6.93,10^9/L,4.5,11.0,6.93,6.93,10^9/L,4.5,11.0,NORMAL,,WEEK 1,3,2024-09-13,7
STUDY001,LB,STUDY001-SUBJ0010,24,L00024,PLT,Platelet Count,HEMATOLOGY,301.8,10^9/L,150.0,450.0,301.8,301.8,10^9/L,150.0,450.0,NORMAL,,WEEK 1,3,2024-09-13,7
STUDY001,LB,STUDY001-SUBJ0010,25,L00025,GLUC,Glucose,CHEMISTRY,83.84,mg/dL,70.0,100.0,83.84,83.84,mg/dL,70.0,100.0,NORMAL,,WEEK 1,3,2024-09-13,7
STUDY001,LB,STUDY001-SUBJ0010,26,L00026,BUN,Blood Urea Nitrogen,CHEMISTRY,9.8,mg/dL,7.0,20.0,9.8,9.8,mg/dL,7.0,20.0,NORMAL,,WEEK 1,3,2024-09-13,7
STUDY001,LB,STUDY001-SUBJ0010,27,L00027,CREAT,Creatinine,CHEMISTRY,0.73,mg/dL,0.6,1.2,0.73,0.73,mg/dL,0.6,1.2,NORMAL,,WEEK 1,3,2024-09-13,7
STUDY001,LB,STUDY001-SUBJ0010,28,L00028,BILI,Total Bilirubin,CHEMISTRY,0.46,mg/dL,0.1,1.2,0.46,0.46,mg/dL,0.1,1.2,NORMAL,,WEEK 1,3,2024-09-13,7
STUDY001,LB,STUDY001-SUBJ0010,29,L00029,ALP,Alkaline Phosphatase,CHEMISTRY,133.42,U/L,44.0,147.0,133.42,133.42,U/L,44.0,147.0,NORMAL,,WEEK 1,3,2024-09-13,7
STUDY001,LB,STUDY001-SUBJ0010,30,L00030,ALT,Alanine Aminotransferase,CHEMISTRY,25.0,U/L,7.0,56.0,25.0,25.0,U/L,7.0,56.0,NORMAL,,WEEK 1,3,2024-09-13,7
STUDY001,LB,STUDY001-SUBJ0010,31,L00031,HGB,Hemoglobin,HEMATOLOGY,15.07,g/dL,13.5,17.5,15.07,15.07,g/dL,13.5,17.5,NORMAL,,WEEK 2,4,2024-09-20,14
STUDY001,LB,STUDY001-SUBJ0010,32,L00032,HCT,Hematocrit,HEMATOLOGY,45.2,%,41.0,51.0,45.2,45.2,%,41.0,51.0,NORMAL,,WEEK 2,4,2024-09-20,14
STUDY001,LB,STUDY001-SUBJ0010,33,L00033,WBC,White Blood Cell Count,HEMATOLOGY,7.15,10^9/L,4.5,11.0,7.15,7.15,10^9/L,4.5,11.0,NORMAL,,WEEK 2,4,2024-09-20,14
STUDY001,LB,STUDY001-SUBJ0010,34,L00034,PLT,Platelet Count,HEMATOLOGY,295.96,10^9/L,150.0,450.0,295.96,295.96,10^9/L,150.0,450.0,NORMAL,,WEEK 2,4,2024-09-20,14
STUDY001,LB,STUDY001-SUBJ0010,35,L00035,GLUC,Glucose,CHEMISTRY,82.5,mg/dL,70.0,100.0,82.5,82.5,mg/dL,70.0,100.0,NORMAL,,WEEK 2,4,2024-09-20,14
STUDY001,LB,STUDY001-SUBJ0010,36,L00036,BUN,Blood Urea Nitrogen,CHEMISTRY,9.7,mg/dL,7.0,20.0,9.7,9.7,mg/dL,7.0,20.0,NORMAL,,WEEK 2,4,2024-09-20,14
STUDY001,LB,STUDY001-SUBJ0010,37,L00037,CREAT,Creatinine,CHEMISTRY,0.7,mg/dL,0.6,1.2,0.7,0.7,mg/dL,0.6,1.2,NORMAL,,WEEK 2,4,2024-09-20,14
STUDY001,LB,STUDY001-SUBJ0010,38,L00038,BILI,Total Bilirubin,CHEMISTRY,0.43,mg/dL,0.1,1.2,0.43,0.43,mg/dL,0.1,1.2,NORMAL,,WEEK 2,4,2024-09-20,14
STUDY001,LB,STUDY001-SUBJ0010,39,L00039,ALP,Alkaline Phosphatase,CHEMISTRY,137.17,U/L,44.0,147.0,137.17,137.17,U/L,44.0,147.0,NORMAL,,WEEK 2,4,2024-09-20,14
STUDY001,LB,STUDY001-SUBJ0010,40,L00040,ALT,Alanine Aminotransferase,CHEMISTRY,25.81,U/L,7.0,56.0,25.81,25.81,U/L,7.0,56.0,NORMAL,,WEEK 2,4,2024-09-20,14
STUDY001,LB,STUDY001-SUBJ0010,41,L00041,HGB,Hemoglobin,HEMATOLOGY,15.11,g/dL,13.5,17.5,15.11,15.11,g/dL,13.5,17.5,NORMAL,,WEEK 4,5,2024-10-04,28
STUDY001,LB,STUDY001-SUBJ0010,42,L00042,HCT,Hematocrit,HEMATOLOGY,45.54,%,41.0,51.0,45.54,45.54,%,41.0,51.0,NORMAL,,WEEK 4,5,2024-10-04,28
STUDY001,LB,STUDY001-SUBJ0010,43,L00043,WBC,White Blood Cell Count,HEMATOLOGY,6.94,10^9/L,4.5,11.0,6.94,6.94,10^9/L,4.5,11.0,NORMAL,,WEEK 4,5,2024-10-04,28
STUDY001,LB,STUDY001-SUBJ0010,44,L00044,PLT,Platelet Count,HEMATOLOGY,305.04,10^9/L,150.0,450.0,305.04,305.04,10^9/L,150.0,450.0,NORMAL,,WEEK 4,5,2024-10-04,28
STUDY001,LB,STUDY001-SUBJ0010,45,L00045,GLUC,Glucose,CHEMISTRY,80.67,mg/dL,70.0,100.0,80.67,80.67,mg/dL,70.0,100.0,NORMAL,,WEEK 4,5,2024-10-04,28
STUDY001,LB,STUDY001-SUBJ0010,46,L00046,BUN,Blood Urea Nitrogen,CHEMISTRY,10.28,mg/dL,7.0,20.0,10.28,10.28,mg/dL,7.0,20.0,NORMAL,,WEEK 4,5,2024-10-04,28
STUDY001,LB,STUDY001-SUBJ0010,47,L00047,CREAT,Creatinine,CHEMISTRY,0.7,mg/dL,0.6,1.2,0.7,0.7,mg/dL,0.6,1.2,NORMAL,,WEEK 4,5,2024-10-04,28
STUDY001,LB,STUDY001-SUBJ0010,48,L00048,BILI,Total Bilirubin,CHEMISTRY,0.44,mg/dL,0.1,1.2,0.44,0.44,mg/dL,0.1,1.2,NORMAL,,WEEK 4,5,2024-10-04,28
STUDY001,LB,STUDY001-SUBJ0010,49,L00049,ALP,Alkaline Phosphatase,CHEMISTRY,135.55,U/L,44.0,147.0,135.55,135.55,U/L,44.0,147.0,NORMAL,,WEEK 4,5,2024-10-04,28
STUDY001,LB,STUDY001-SUBJ0010,50,L00050,ALT,Alanine Aminotransferase,CHEMISTRY,27.25,U/L,7.0,56.0,27.25,27.25,U/L,7.0,56.0,NORMAL,,WEEK 4,5,2024-10-04,28
STUDY001,LB,STUDY001-SUBJ0010,51,L00051,HGB,Hemoglobin,HEMATOLOGY,14.91,g/dL,13.5,17.5,14.91,14.91,g/dL,13.5,17.5,NORMAL,,WEEK 8,6,2024-11-01,56
STUDY001,LB,STUDY001-SUBJ0010,52,L00052,HCT,Hematocrit,HEMATOLOGY,45.62,%,41.0,51.0,45.62,45.62,%,41.0,51.0,NORMAL,,WEEK 8,6,2024-11-01,56
STUDY001,LB,STUDY001-SUBJ0010,53,L00053,WBC,White Blood Cell Count,HEMATOLOGY,6.94,10^9/L,4.5,11.0,6.94,6.94,10^9/L,4.5,11.0,NORMAL,,WEEK 8,6,2024-11-01,56
STUDY001,LB,STUDY001-SUBJ0010,54,L00054,PLT,Platelet Count,HEMATOLOGY,296.37,10^9/L,150.0,450.0,296.37,296.37,10^9/L,150.0,450.0,NORMAL,,WEEK 8,6,2024-11-01,56
STUDY001,LB,STUDY001-SUBJ0010,55,L00055,GLUC,Glucose,CHEMISTRY,82.85,mg/dL,70.0,100.0,82.85,82.85,mg/dL,70.0,100.0,NORMAL,,WEEK 8,6,2024-11-01,56
STUDY001,LB,STUDY001-SUBJ0010,56,L00056,BUN,Blood Urea Nitrogen,CHEMISTRY,9.96,mg/dL,7.0,20.0,9.96,9.96,mg/dL,7.0,20.0,NORMAL,,WEEK 8,6,2024-11-01,56
STUDY001,LB,STUDY001-SUBJ0010,57,L00057,CREAT,Creatinine,CHEMISTRY,0.74,mg/dL,0.6,1.2,0.74,0.74,mg/dL,0.6,1.2,NORMAL,,WEEK 8,6,2024-11-01,56
STUDY001,LB,STUDY001-SUBJ0010,58,L00058,BILI,Total Bilirubin,CHEMISTRY,0.43,mg/dL,0.1,1.2,0.43,0.43,mg/dL,0.1,1.2,NORMAL,,WEEK 8,6,2024-11-01,56
STUDY001,LB,STUDY001-SUBJ0010,59,L00059,ALP,Alkaline Phosphatase,CHEMISTRY,139.29,U/L,44.0,147.0,139.29,139.29,U/L,44.0,147.0,NORMAL,,WEEK 8,6,2024-11-01,56
STUDY001,LB,STUDY001-SUBJ0010,60,L00060,ALT,Alanine Aminotransferase,CHEMISTRY,27.64,U/L,7.0,56.0,27.64,27.64,U/L,7.0,56.0,NORMAL,,WEEK 8,6,2024-11-01,56
STUDY001,LB,STUDY001-SUBJ0010,61,L00061,HGB,Hemoglobin,HEMATOLOGY,15.15,g/dL,13.5,17.5,15.15,15.15,g/dL,13.5,17.5,NORMAL,,WEEK 12,7,2024-11-29,84
STUDY001,LB,STUDY001-SUBJ0010,62,L00062,HCT,Hematocrit,HEMATOLOGY,45.13,%,41.0,51.0,45.13,45.13,%,41.0,51.0,NORMAL,,WEEK 12,7,2024-11-29,84
STUDY001,LB,STUDY001-SUBJ0010,63,L00063,WBC,White Blood Cell Count,HEMATOLOGY,7.04,10^9/L,4.5,11.0,7.04,7.04,10^9/L,4.5,11.0,NORMAL,,WEEK 12,7,2024-11-29,84
STUDY001,LB,STUDY001-SUBJ0010,64,L00064,PLT,Platelet Count,HEMATOLOGY,296.83,10^9/L,150.0,450.0,296.83,296.83,10^9/L,150.0,450.0,NORMAL,,WEEK 12,7,2024-11-29,84
STUDY001,LB,STUDY001-SUBJ0010,65,L00065,GLUC,Glucose,CHEMISTRY,83.91,mg/dL,70.0,100.0,83.91,83.91,mg/dL,70.0,100.0,NORMAL,,WEEK 12,7,2024-11-29,84
STUDY001,LB,STUDY001-SUBJ0010,66,L00066,BUN,Blood Urea Nitrogen,CHEMISTRY,10.4,mg/dL,7.0,20.0,10.4,10.4,mg/dL,7.0,20.0,NORMAL,,WEEK 12,7,2024-11-29,84
STUDY001,LB,STUDY001-SUBJ0010,67,L00067,CREAT,Creatinine,CHEMISTRY,0.73,mg/dL,0.6,1.2,0.73,0.73,mg/dL,0.6,1.2,NORMAL,,WEEK 12,7,2024-11-29,84
STUDY001,LB,STUDY001-SUBJ0010,68,L00068,BILI,Total Bilirubin,CHEMISTRY,0.45,mg/dL,0.1,1.2,0.45,0.45,mg/dL,0.1,1.2,NORMAL,,WEEK 12,7,2024-11-29,84
STUDY001,LB,STUDY001-SUBJ0010,69,L00069,ALP,Alkaline Phosphatase,CHEMISTRY,131.59,U/L,44.0,147.0,131.59,131.59,U/L,44.0,147.0,NORMAL,,WEEK 12,7,2024-11-29,84
STUDY001,LB,STUDY001-SUBJ0010,70,L00070,ALT,Alanine Aminotransferase,CHEMISTRY,25.95,U/L,7.0,56.0,25.95,25.95,U/L,7.0,56.0,NORMAL,,WEEK 12,7,2024-11-29,84
STUDY001,LB,STUDY001-SUBJ0010,71,L00071,HGB,Hemoglobin,HEMATOLOGY,15.0,g/dL,13.5,17.5,15.0,15.0,g/dL,13.5,17.5,NORMAL,,WEEK 16,8,2024-12-27,112
STUDY001,LB,STUDY001-SUBJ0010,72,L00072,HCT,Hematocrit,HEMATOLOGY,45.4,%,41.0,51.0,45.4,45.4,%,41.0,51.0,NORMAL,,WEEK 16,8,2024-12-27,112
STUDY001,LB,STUDY001-SUBJ0010,73,L00073,WBC,White Blood Cell Count,HEMATOLOGY,6.96,10^9/L,4.5,11.0,6.96,6.96,10^9/L,4.5,11.0,NORMAL,,WEEK 16,8,2024-12-27,112
STUDY001,LB,STUDY001-SUBJ0010,74,L00074,PLT,Platelet Count,HEMATOLOGY,300.12,10^9/L,150.0,450.0,300.12,300.12,10^9/L,150.0,450.0,NORMAL,,WEEK 16,8,2024-12-27,112
STUDY001,LB,STUDY001-SUBJ0010,75,L00075,GLUC,Glucose,CHEMISTRY,81.92,mg/dL,70.0,100.0,81.92,81.92,mg/dL,70.0,100.0,NORMAL,,WEEK 16,8,2024-12-27,112
STUDY001,LB,STUDY001-SUBJ0010,76,L00076,BUN,Blood Urea Nitrogen,CHEMISTRY,10.05,mg/dL,7.0,20.0,10.05,10.05,mg/dL,7.0,20.0,NORMAL,,WEEK 16,8,2024-12-27,112
STUDY001,LB,STUDY001-SUBJ0010,77,L00077,CREAT,Creatinine,CHEMISTRY,0.69,mg/dL,0.6,1.2,0.69,0.69,mg/dL,0.6,1.2,NORMAL,,WEEK 16,8,2024-12-27,112
STUDY001,LB,STUDY001-SUBJ0010,78,L00078,BILI,Total Bilirubin,CHEMISTRY,0.42,mg/dL,0.1,1.2,0.42,0.42,mg/dL,0.1,1.2,NORMAL,,WEEK 16,8,2024-12-27,112
STUDY001,LB,STUDY001-SUBJ0010,79,L00079,ALP,Alkaline Phosphatase,CHEMISTRY,138.83,U/L,44.0,147.0,138.83,138.83,U/L,44.0,147.0,NORMAL,,WEEK 16,8,2024-12-27,112
STUDY001,LB,STUDY001-SUBJ0010,80,L00080,ALT,Alanine Aminotransferase,CHEMISTRY,26.82,U/L,7.0,56.0,26.82,26.82,U/L,7.0,56.0,NORMAL,,WEEK 16,8,2024-12-27,112
STUDY001,LB,STUDY001-SUBJ0010,81,L00081,HGB,Hemoglobin,HEMATOLOGY,15.09,g/dL,13.5,17.5,15.09,15.09,g/dL,13.5,17.5,NORMAL,,END OF TREATMENT,9,2025-01-24,140
STUDY001,LB,STUDY001-SUBJ0010,82,L00082,HCT,Hematocrit,HEMATOLOGY,45.21,%,41.0,51.0,45.21,45.21,%,41.0,51.0,NORMAL,,END OF TREATMENT,9,2025-01-24,140
STUDY001,LB,STUDY001-SUBJ0010,83,L00083,WBC,White Blood Cell Count,HEMATOLOGY,6.84,10^9/L,4.5,11.0,6.84,6.84,10^9/L,4.5,11.0,NORMAL,,END OF TREATMENT,9,2025-01-24,140
STUDY001,LB,STUDY001-SUBJ0010,84,L00084,PLT,Platelet Count,HEMATOLOGY,293.31,10^9/L,150.0,450.0,293.31,293.31,10^9/L,150.0,450.0,NORMAL,,END OF TREATMENT,9,2025-01-24,140
STUDY001,LB,STUDY001-SUBJ0010,85,L00085,GLUC,Glucose,CHEMISTRY,83.54,mg/dL,70.0,100.0,83.54,83.54,mg/dL,70.0,100.0,NORMAL,,END OF TREATMENT,9,2025-01-24,140
STUDY001,LB,STUDY001-SUBJ0010,86,L00086,BUN,Blood Urea Nitrogen,CHEMISTRY,9.81,mg/dL,7.0,20.0,9.81,9.81,mg/dL,7.0,20.0,NORMAL,,END OF TREATMENT,9,2025-01-24,140
STUDY001,LB,STUDY001-SUBJ0010,87,L00087,CREAT,Creatinine,CHEMISTRY,0.69,mg/dL,0.6,1.2,0.69,0.69,mg/dL,0.6,1.2,NORMAL,,END OF TREATMENT,9,2025-01-24,140
STUDY001,LB,STUDY001-SUBJ0010,88,L00088,BILI,Total Bilirubin,CHEMISTRY,0.44,mg/dL,0.1,1.2,0.44,0.44,mg/dL,0.1,1.2,NORMAL,,END OF TREATMENT,9,2025-01-24,140
STUDY001,LB,STUDY001-SUBJ0010,89,L00089,ALP,Alkaline Phosphatase,CHEMISTRY,136.39,U/L,44.0,147.0,136.39,136.39,U/L,44.0,147.0,NORMAL,,END OF TREATMENT,9,2025-01-24,140
STUDY001,LB,STUDY001-SUBJ0010,90,L00090,ALT,Alanine Aminotransferase,CHEMISTRY,26.62,U/L,7.0,56.0,26.62,26.62,U/L,7.0,56.0,NORMAL,,END OF TREATMENT,9,2025-01-24,140
