STUDYID,DOMAIN,USUBJID,VSSEQ,VSTESTCD,VSTEST,VSORRES,VSORRESU,VSSTRESC,VSSTRESN,VSSTRESU,VSBLFL,VISIT,VISITNUM,VSDTC,VSDY
STUDY001,VS,STUDY001-SUBJ0001,1,HEIGHT,Height,159.7,cm,159.7,159.7,cm,,SCREENING,1,2024-08-09,-14
STUDY001,VS,STUDY001-SUBJ0001,2,WEIGHT,Weight,80.9,kg,80.9,80.9,kg,,SCREENING,1,2024-08-09,-14
STUDY001,VS,STUDY001-SUBJ0001,3,TEMP,Temperature,36.5,C,36.5,36.5,C,,SCREENING,1,2024-08-09,-14
STUDY001,VS,STUDY001-SUBJ0001,4,BP,Blood Pressure,111/76,mmHg,111/76,,mmHg,,SCREENING,1,2024-08-09,-14
STUDY001,VS,STUDY001-SUBJ0001,5,HR,Heart Rate,81,beats/min,81,81.0,beats/min,,SCREENING,1,2024-08-09,-14
STUDY001,VS,STUDY001-SUBJ0001,6,HEIGHT,Height,159.6,cm,159.6,159.6,cm,Y,BASELINE,2,2024-08-23,1
STUDY001,VS,STUDY001-SUBJ0001,7,WEIGHT,Weight,81.0,kg,81.0,81.0,kg,Y,BASELINE,2,2024-08-23,1
STUDY001,VS,STUDY001-SUBJ0001,8,TEMP,Temperature,36.7,C,36.7,36.7,C,Y,BASELINE,2,2024-08-23,1
STUDY001,VS,STUDY001-SUBJ0001,9,BP,Blood Pressure,107/75,mmHg,107/75,,mmHg,Y,BASELINE,2,2024-08-23,1
STUDY001,VS,STUDY001-SUBJ0001,10,HR,Heart Rate,80,beats/min,80,80.0,beats/min,Y,BASELINE,2,2024-08-23,1
STUDY001,VS,STUDY001-SUBJ0001,11,HEIGHT,Height,159.6,cm,159.6,159.6,cm,,WEEK 1,3,2024-08-29,7
STUDY001,VS,STUDY001-SUBJ0001,12,WEIGHT,Weight,82.2,kg,82.2,82.2,kg,,WEEK 1,3,2024-08-29,7
STUDY001,VS,STUDY001-SUBJ0001,13,TEMP,Temperature,36.5,C,36.5,36.5,C,,WEEK 1,3,2024-08-29,7
STUDY001,VS,STUDY001-SUBJ0001,14,BP,Blood Pressure,109/80,mmHg,109/80,,mmHg,,WEEK 1,3,2024-08-29,7
STUDY001,VS,STUDY001-SUBJ0001,15,HR,Heart Rate,79,beats/min,79,79.0,beats/min,,WEEK 1,3,2024-08-29,7
STUDY001,VS,STUDY001-SUBJ0001,16,HEIGHT,Height,159.8,cm,159.8,159.8,cm,,WEEK 2,4,2024-09-05,14
STUDY001,VS,STUDY001-SUBJ0001,17,WEIGHT,Weight,80.9,kg,80.9,80.9,kg,,WEEK 2,4,2024-09-05,14
STUDY001,VS,STUDY001-SUBJ0001,18,TEMP,Temperature,36.8,C,36.8,36.8,C,,WEEK 2,4,2024-09-05,14
STUDY001,VS,STUDY001-SUBJ0001,19,BP,Blood Pressure,111/81,mmHg,111/81,,mmHg,,WEEK 2,4,2024-09-05,14
STUDY001,VS,STUDY001-SUBJ0001,20,HR,Heart Rate,86,beats/min,86,86.0,beats/min,,WEEK 2,4,2024-09-05,14
STUDY001,VS,STUDY001-SUBJ0001,21,HEIGHT,Height,159.6,cm,159.6,159.6,cm,,WEEK 4,5,2024-09-19,28
STUDY001,VS,STUDY001-SUBJ0001,22,WEIGHT,Weight,81.0,kg,81.0,81.0,kg,,WEEK 4,5,2024-09-19,28
STUDY001,VS,STUDY001-SUBJ0001,23,TEMP,Temperature,36.6,C,36.6,36.6,C,,WEEK 4,5,2024-09-19,28
STUDY001,VS,STUDY001-SUBJ0001,24,BP,Blood Pressure,104/78,mmHg,104/78,,mmHg,,WEEK 4,5,2024-09-19,28
STUDY001,VS,STUDY001-SUBJ0001,25,HR,Heart Rate,77,beats/min,77,77.0,beats/min,,WEEK 4,5,2024-09-19,28
STUDY001,VS,STUDY001-SUBJ0001,26,HEIGHT,Height,159.6,cm,159.6,159.6,cm,,WEEK 8,6,2024-10-17,56
STUDY001,VS,STUDY001-SUBJ0001,27,WEIGHT,Weight,81.5,kg,81.5,81.5,kg,,WEEK 8,6,2024-10-17,56
STUDY001,VS,STUDY001-SUBJ0001,28,TEMP,Temperature,36.9,C,36.9,36.9,C,,WEEK 8,6,2024-10-17,56
STUDY001,VS,STUDY001-SUBJ0001,29,BP,Blood Pressure,103/75,mmHg,103/75,,mmHg,,WEEK 8,6,2024-10-17,56
STUDY001,VS,STUDY001-SUBJ0001,30,HR,Heart Rate,79,beats/min,79,79.0,beats/min,,WEEK 8,6,2024-10-17,56
STUDY001,VS,STUDY001-SUBJ0001,31,HEIGHT,Height,159.8,cm,159.8,159.8,cm,,WEEK 12,7,2024-11-14,84
STUDY001,VS,STUDY001-SUBJ0001,32,WEIGHT,Weight,81.5,kg,81.5,81.5,kg,,WEEK 12,7,2024-11-14,84
STUDY001,VS,STUDY001-SUBJ0001,33,TEMP,Temperature,36.6,C,36.6,36.6,C,,WEEK 12,7,2024-11-14,84
STUDY001,VS,STUDY001-SUBJ0001,34,BP,Blood Pressure,108/81,mmHg,108/81,,mmHg,,WEEK 12,7,2024-11-14,84
STUDY001,VS,STUDY001-SUBJ0001,35,HR,Heart Rate,79,beats/min,79,79.0,beats/min,,WEEK 12,7,2024-11-14,84
STUDY001,VS,STUDY001-SUBJ0001,36,HEIGHT,Height,159.6,cm,159.6,159.6,cm,,WEEK 16,8,2024-12-12,112
STUDY001,VS,STUDY001-SUBJ0001,37,WEIGHT,Weight,81.4,kg,81.4,81.4,kg,,WEEK 16,8,2024-12-12,112
STUDY001,VS,STUDY001-SUBJ0001,38,TEMP,Temperature,36.8,C,36.8,36.8,C,,WEEK 16,8,2024-12-12,112
STUDY001,VS,STUDY001-SUBJ0001,39,BP,Blood Pressure,104/74,mmHg,104/74,,mmHg,,WEEK 16,8,2024-12-12,112
STUDY001,VS,STUDY001-SUBJ0001,40,HR,Heart Rate,79,beats/min,79,79.0,beats/min,,WEEK 16,8,2024-12-12,112
STUDY001,VS,STUDY001-SUBJ0001,41,HEIGHT,Height,159.6,cm,159.6,159.6,cm,,END OF TREATMENT,9,2025-01-09,140
STUDY001,VS,STUDY001-SUBJ0001,42,WEIGHT,Weight,82.5,kg,82.5,82.5,kg,,END OF TREATMENT,9,2025-01-09,140
STUDY001,VS,STUDY001-SUBJ0001,43,TEMP,Temperature,37.0,C,37.0,37.0,C,,END OF TREATMENT,9,2025-01-09,140
STUDY001,VS,STUDY001-SUBJ0001,44,BP,Blood Pressure,110/73,mmHg,110/73,,mmHg,,END OF TREATMENT,9,2025-01-09,140
STUDY001,VS,STUDY001-SUBJ0001,45,HR,Heart Rate,81,beats/min,81,81.0,beats/min,,END OF TREATMENT,9,2025-01-09,140
STUDY001,VS,STUDY001-SUBJ0002,1,HEIGHT,Height,169.1,cm,169.1,169.1,cm,,SCREENING,1,2025-05-08,-14
STUDY001,VS,STUDY001-SUBJ0002,2,WEIGHT,Weight,58.1,kg,58.1,58.1,kg,,SCREENING,1,2025-05-08,-14
STUDY001,VS,STUDY001-SUBJ0002,3,TEMP,Temperature,36.9,C,36.9,36.9,C,,SCREENING,1,2025-05-08,-14
STUDY001,VS,STUDY001-SUBJ0002,4,BP,Blood Pressure,136/91,mmHg,136/91,,mmHg,,SCREENING,1,2025-05-08,-14
STUDY001,VS,STUDY001-SUBJ0002,5,HR,Heart Rate,84,beats/min,84,84.0,beats/min,,SCREENING,1,2025-05-08,-14
STUDY001,VS,STUDY001-SUBJ0002,6,HEIGHT,Height,169.0,cm,169.0,169.0,cm,Y,BASELINE,2,2025-05-22,1
STUDY001,VS,STUDY001-SUBJ0002,7,WEIGHT,Weight,57.7,kg,57.7,57.7,kg,Y,BASELINE,2,2025-05-22,1
STUDY001,VS,STUDY001-SUBJ0002,8,TEMP,Temperature,37.1,C,37.1,37.1,C,Y,BASELINE,2,2025-05-22,1
STUDY001,VS,STUDY001-SUBJ0002,9,BP,Blood Pressure,133/84,mmHg,133/84,,mmHg,Y,BASELINE,2,2025-05-22,1
STUDY001,VS,STUDY001-SUBJ0002,10,HR,Heart Rate,86,beats/min,86,86.0,beats/min,Y,BASELINE,2,2025-05-22,1
STUDY001,VS,STUDY001-SUBJ0002,11,HEIGHT,Height,169.2,cm,169.2,169.2,cm,,WEEK 1,3,2025-05-28,7
STUDY001,VS,STUDY001-SUBJ0002,12,WEIGHT,Weight,57.5,kg,57.5,57.5,kg,,WEEK 1,3,2025-05-28,7
STUDY001,VS,STUDY001-SUBJ0002,13,TEMP,Temperature,36.9,C,36.9,36.9,C,,WEEK 1,3,2025-05-28,7
STUDY001,VS,STUDY001-SUBJ0002,14,BP,Blood Pressure,132/87,mmHg,132/87,,mmHg,,WEEK 1,3,2025-05-28,7
STUDY001,VS,STUDY001-SUBJ0002,15,HR,Heart Rate,88,beats/min,88,88.0,beats/min,,WEEK 1,3,2025-05-28,7
STUDY001,VS,STUDY001-SUBJ0002,16,HEIGHT,Height,168.9,cm,168.9,168.9,cm,,WEEK 2,4,2025-06-04,14
STUDY001,VS,STUDY001-SUBJ0002,17,WEIGHT,Weight,56.7,kg,56.7,56.7,kg,,WEEK 2,4,2025-06-04,14
STUDY001,VS,STUDY001-SUBJ0002,18,TEMP,Temperature,37.0,C,37.0,37.0,C,,WEEK 2,4,2025-06-04,14
STUDY001,VS,STUDY001-SUBJ0002,19,BP,Blood Pressure,132/88,mmHg,132/88,,mmHg,,WEEK 2,4,2025-06-04,14
STUDY001,VS,STUDY001-SUBJ0002,20,HR,Heart Rate,86,beats/min,86,86.0,beats/min,,WEEK 2,4,2025-06-04,14
STUDY001,VS,STUDY001-SUBJ0002,21,HEIGHT,Height,168.9,cm,168.9,168.9,cm,,WEEK 4,5,2025-06-18,28
STUDY001,VS,STUDY001-SUBJ0002,22,WEIGHT,Weight,57.2,kg,57.2,57.2,kg,,WEEK 4,5,2025-06-18,28
STUDY001,VS,STUDY001-SUBJ0002,23,TEMP,Temperature,36.8,C,36.8,36.8,C,,WEEK 4,5,2025-06-18,28
STUDY001,VS,STUDY001-SUBJ0002,24,BP,Blood Pressure,130/85,mmHg,130/85,,mmHg,,WEEK 4,5,2025-06-18,28
STUDY001,VS,STUDY001-SUBJ0002,25,HR,Heart Rate,88,beats/min,88,88.0,beats/min,,WEEK 4,5,2025-06-18,28
STUDY001,VS,STUDY001-SUBJ0002,26,HEIGHT,Height,169.1,cm,169.1,169.1,cm,,WEEK 8,6,2025-07-16,56
STUDY001,VS,STUDY001-SUBJ0002,27,WEIGHT,Weight,57.3,kg,57.3,57.3,kg,,WEEK 8,6,2025-07-16,56
STUDY001,VS,STUDY001-SUBJ0002,28,TEMP,Temperature,36.8,C,36.8,36.8,C,,WEEK 8,6,2025-07-16,56
STUDY001,VS,STUDY001-SUBJ0002,29,BP,Blood Pressure,134/91,mmHg,134/91,,mmHg,,WEEK 8,6,2025-07-16,56
STUDY001,VS,STUDY001-SUBJ0002,30,HR,Heart Rate,86,beats/min,86,86.0,beats/min,,WEEK 8,6,2025-07-16,56
STUDY001,VS,STUDY001-SUBJ0002,31,HEIGHT,Height,169.0,cm,169.0,169.0,cm,,WEEK 12,7,2025-08-13,84
STUDY001,VS,STUDY001-SUBJ0002,32,WEIGHT,Weight,56.1,kg,56.1,56.1,kg,,WEEK 12,7,2025-08-13,84
STUDY001,VS,STUDY001-SUBJ0002,33,TEMP,Temperature,37.2,C,37.2,37.2,C,,WEEK 12,7,2025-08-13,84
STUDY001,VS,STUDY001-SUBJ0002,34,BP,Blood Pressure,136/93,mmHg,136/93,,mmHg,,WEEK 12,7,2025-08-13,84
STUDY001,VS,STUDY001-SUBJ0002,35,HR,Heart Rate,91,beats/min,91,91.0,beats/min,,WEEK 12,7,2025-08-13,84
STUDY001,VS,STUDY001-SUBJ0002,36,HEIGHT,Height,169.1,cm,169.1,169.1,cm,,WEEK 16,8,2025-09-10,112
STUDY001,VS,STUDY001-SUBJ0002,37,WEIGHT,Weight,57.0,kg,57.0,57.0,kg,,WEEK 16,8,2025-09-10,112
STUDY001,VS,STUDY001-SUBJ0002,38,TEMP,Temperature,36.7,C,36.7,36.7,C,,WEEK 16,8,2025-09-10,112
STUDY001,VS,STUDY001-SUBJ0002,39,BP,Blood Pressure,132/85,mmHg,132/85,,mmHg,,WEEK 16,8,2025-09-10,112
STUDY001,VS,STUDY001-SUBJ0002,40,HR,Heart Rate,90,beats/min,90,90.0,beats/min,,WEEK 16,8,2025-09-10,112
STUDY001,VS,STUDY001-SUBJ0002,41,HEIGHT,Height,169.3,cm,169.3,169.3,cm,,END OF TREATMENT,9,2025-10-08,140
STUDY001,VS,STUDY001-SUBJ0002,42,WEIGHT,Weight,56.7,kg,56.7,56.7,kg,,END OF TREATMENT,9,2025-10-08,140
STUDY001,VS,STUDY001-SUBJ0002,43,TEMP,Temperature,37.0,C,37.0,37.0,C,,END OF TREATMENT,9,2025-10-08,140
STUDY001,VS,STUDY001-SUBJ0002,44,BP,Blood Pressure,132/88,mmHg,132/88,,mmHg,,END OF TREATMENT,9,2025-10-08,140
STUDY001,VS,STUDY001-SUBJ0002,45,HR,Heart Rate,91,beats/min,91,91.0,beats/min,,END OF TREATMENT,9,2025-10-08,140
STUDY001,VS,STUDY001-SUBJ0003,1,HEIGHT,Height,166.4,cm,166.4,166.4,cm,,SCREENING,1,2025-03-09,-14
STUDY001,VS,STUDY001-SUBJ0003,2,WEIGHT,Weight,52.9,kg,52.9,52.9,kg,,SCREENING,1,2025-03-09,-14
STUDY001,VS,STUDY001-SUBJ0003,3,TEMP,Temperature,36.7,C,36.7,36.7,C,,SCREENING,1,2025-03-09,-14
STUDY001,VS,STUDY001-SUBJ0003,4,BP,Blood Pressure,143/77,mmHg,143/77,,mmHg,,SCREENING,1,2025-03-09,-14
STUDY001,VS,STUDY001-SUBJ0003,5,HR,Heart Rate,58,beats/min,58,58.0,beats/min,,SCREENING,1,2025-03-09,-14
STUDY001,VS,STUDY001-SUBJ0003,6,HEIGHT,Height,166.2,cm,166.2,166.2,cm,Y,BASELINE,2,2025-03-23,1
STUDY001,VS,STUDY001-SUBJ0003,7,WEIGHT,Weight,53.3,kg,53.3,53.3,kg,Y,BASELINE,2,2025-03-23,1
STUDY001,VS,STUDY001-SUBJ0003,8,TEMP,Temperature,36.9,C,36.9,36.9,C,Y,BASELINE,2,2025-03-23,1
STUDY001,VS,STUDY001-SUBJ0003,9,BP,Blood Pressure,136/78,mmHg,136/78,,mmHg,Y,BASELINE,2,2025-03-23,1
STUDY001,VS,STUDY001-SUBJ0003,10,HR,Heart Rate,59,beats/min,59,59.0,beats/min,Y,BASELINE,2,2025-03-23,1
STUDY001,VS,STUDY001-SUBJ0003,11,HEIGHT,Height,166.3,cm,166.3,166.3,cm,,WEEK 1,3,2025-03-29,7
STUDY001,VS,STUDY001-SUBJ0003,12,WEIGHT,Weight,51.3,kg,51.3,51.3,kg,,WEEK 1,3,2025-03-29,7
STUDY001,VS,STUDY001-SUBJ0003,13,TEMP,Temperature,36.9,C,36.9,36.9,C,,WEEK 1,3,2025-03-29,7
STUDY001,VS,STUDY001-SUBJ0003,14,BP,Blood Pressure,142/74,mmHg,142/74,,mmHg,,WEEK 1,3,2025-03-29,7
STUDY001,VS,STUDY001-SUBJ0003,15,HR,Heart Rate,63,beats/min,63,63.0,beats/min,,WEEK 1,3,2025-03-29,7
STUDY001,VS,STUDY001-SUBJ0003,16,HEIGHT,Height,166.5,cm,166.5,166.5,cm,,WEEK 2,4,2025-04-05,14
STUDY001,VS,STUDY001-SUBJ0003,17,WEIGHT,Weight,52.4,kg,52.4,52.4,kg,,WEEK 2,4,2025-04-05,14
STUDY001,VS,STUDY001-SUBJ0003,18,TEMP,Temperature,37.1,C,37.1,37.1,C,,WEEK 2,4,2025-04-05,14
STUDY001,VS,STUDY001-SUBJ0003,19,BP,Blood Pressure,137/79,mmHg,137/79,,mmHg,,WEEK 2,4,2025-04-05,14
STUDY001,VS,STUDY001-SUBJ0003,20,HR,Heart Rate,60,beats/min,60,60.0,beats/min,,WEEK 2,4,2025-04-05,14
STUDY001,VS,STUDY001-SUBJ0003,21,HEIGHT,Height,166.6,cm,166.6,166.6,cm,,WEEK 4,5,2025-04-19,28
STUDY001,VS,STUDY001-SUBJ0003,22,WEIGHT,Weight,51.5,kg,51.5,51.5,kg,,WEEK 4,5,2025-04-19,28
STUDY001,VS,STUDY001-SUBJ0003,23,TEMP,Temperature,37.0,C,37.0,37.0,C,,WEEK 4,5,2025-04-19,28
STUDY001,VS,STUDY001-SUBJ0003,24,BP,Blood Pressure,144/81,mmHg,144/81,,mmHg,,WEEK 4,5,2025-04-19,28
STUDY001,VS,STUDY001-SUBJ0003,25,HR,Heart Rate,64,beats/min,64,64.0,beats/min,,WEEK 4,5,2025-04-19,28
STUDY001,VS,STUDY001-SUBJ0003,26,HEIGHT,Height,166.5,cm,166.5,166.5,cm,,WEEK 8,6,2025-05-17,56
STUDY001,VS,STUDY001-SUBJ0003,27,WEIGHT,Weight,52.4,kg,52.4,52.4,kg,,WEEK 8,6,2025-05-17,56
STUDY001,VS,STUDY001-SUBJ0003,28,TEMP,Temperature,37.0,C,37.0,37.0,C,,WEEK 8,6,2025-05-17,56
STUDY001,VS,STUDY001-SUBJ0003,29,BP,Blood Pressure,142/71,mmHg,142/71,,mmHg,,WEEK 8,6,2025-05-17,56
STUDY001,VS,STUDY001-SUBJ0003,30,HR,Heart Rate,61,beats/min,61,61.0,beats/min,,WEEK 8,6,2025-05-17,56
STUDY001,VS,STUDY001-SUBJ0003,31,HEIGHT,Height,166.3,cm,166.3,166.3,cm,,WEEK 12,7,2025-06-14,84
STUDY001,VS,STUDY001-SUBJ0003,32,WEIGHT,Weight,53.2,kg,53.2,53.2,kg,,WEEK 12,7,2025-06-14,84
STUDY001,VS,STUDY001-SUBJ0003,33,TEMP,Temperature,37.0,C,37.0,37.0,C,,WEEK 12,7,2025-06-14,84
STUDY001,VS,STUDY001-SUBJ0003,34,BP,Blood Pressure,142/71,mmHg,142/71,,mmHg,,WEEK 12,7,2025-06-14,84
STUDY001,VS,STUDY001-SUBJ0003,35,HR,Heart Rate,64,beats/min,64,64.0,beats/min,,WEEK 12,7,2025-06-14,84
STUDY001,VS,STUDY001-SUBJ0003,36,HEIGHT,Height,166.6,cm,166.6,166.6,cm,,WEEK 16,8,2025-07-12,112
STUDY001,VS,STUDY001-SUBJ0003,37,WEIGHT,Weight,53.3,kg,53.3,53.3,kg,,WEEK 16,8,2025-07-12,112
STUDY001,VS,STUDY001-SUBJ0003,38,TEMP,Temperature,36.6,C,36.6,36.6,C,,WEEK 16,8,2025-07-12,112
STUDY001,VS,STUDY001-SUBJ0003,39,BP,Blood Pressure,145/80,mmHg,145/80,,mmHg,,WEEK 16,8,2025-07-12,112
STUDY001,VS,STUDY001-SUBJ0003,40,HR,Heart Rate,61,beats/min,61,61.0,beats/min,,WEEK 16,8,2025-07-12,112
STUDY001,VS,STUDY001-SUBJ0003,41,HEIGHT,Height,166.5,cm,166.5,166.5,cm,,END OF TREATMENT,9,2025-08-09,140
STUDY001,VS,STUDY001-SUBJ0003,42,WEIGHT,Weight,52.8,kg,52.8,52.8,kg,,END OF TREATMENT,9,2025-08-09,140
STUDY001,VS,STUDY001-SUBJ0003,43,TEMP,Temperature,37.1,C,37.1,37.1,C,,END OF TREATMENT,9,2025-08-09,140
STUDY001,VS,STUDY001-SUBJ0003,44,BP,Blood Pressure,140/74,mmHg,140/74,,mmHg,,END OF TREATMENT,9,2025-08-09,140
STUDY001,VS,STUDY001-SUBJ0003,45,HR,Heart Rate,61,beats/min,61,61.0,beats/min,,END OF TREATMENT,9,2025-08-09,140
STUDY001,VS,STUDY001-SUBJ0004,1,HEIGHT,Height,179.5,cm,179.5,179.5,cm,,SCREENING,1,2025-05-20,-14
STUDY001,VS,STUDY001-SUBJ0004,2,WEIGHT,Weight,83.7,kg,83.7,83.7,kg,,SCREENING,1,2025-05-20,-14
STUDY001,VS,STUDY001-SUBJ0004,3,TEMP,Temperature,36.4,C,36.4,36.4,C,,SCREENING,1,2025-05-20,-14
STUDY001,VS,STUDY001-SUBJ0004,4,BP,Blood Pressure,111/95,mmHg,111/95,,mmHg,,SCREENING,1,2025-05-20,-14
STUDY001,VS,STUDY001-SUBJ0004,5,HR,Heart Rate,70,beats/min,70,70.0,beats/min,,SCREENING,1,2025-05-20,-14
STUDY001,VS,STUDY001-SUBJ0004,6,HEIGHT,Height,179.6,cm,179.6,179.6,cm,Y,BASELINE,2,2025-06-03,1
STUDY001,VS,STUDY001-SUBJ0004,7,WEIGHT,Weight,83.9,kg,83.9,83.9,kg,Y,BASELINE,2,2025-06-03,1
STUDY001,VS,STUDY001-SUBJ0004,8,TEMP,Temperature,36.3,C,36.3,36.3,C,Y,BASELINE,2,2025-06-03,1
STUDY001,VS,STUDY001-SUBJ0004,9,BP,Blood Pressure,102/94,mmHg,102/94,,mmHg,Y,BASELINE,2,2025-06-03,1
STUDY001,VS,STUDY001-SUBJ0004,10,HR,Heart Rate,64,beats/min,64,64.0,beats/min,Y,BASELINE,2,2025-06-03,1
STUDY001,VS,STUDY001-SUBJ0004,11,HEIGHT,Height,179.4,cm,179.4,179.4,cm,,WEEK 1,3,2025-06-09,7
STUDY001,VS,STUDY001-SUBJ0004,12,WEIGHT,Weight,83.9,kg,83.9,83.9,kg,,WEEK 1,3,2025-06-09,7
STUDY001,VS,STUDY001-SUBJ0004,13,TEMP,Temperature,36.3,C,36.3,36.3,C,,WEEK 1,3,2025-06-09,7
STUDY001,VS,STUDY001-SUBJ0004,14,BP,Blood Pressure,110/94,mmHg,110/94,,mmHg,,WEEK 1,3,2025-06-09,7
STUDY001,VS,STUDY001-SUBJ0004,15,HR,Heart Rate,69,beats/min,69,69.0,beats/min,,WEEK 1,3,2025-06-09,7
STUDY001,VS,STUDY001-SUBJ0004,16,HEIGHT,Height,179.5,cm,179.5,179.5,cm,,WEEK 2,4,2025-06-16,14
STUDY001,VS,STUDY001-SUBJ0004,17,WEIGHT,Weight,83.6,kg,83.6,83.6,kg,,WEEK 2,4,2025-06-16,14
STUDY001,VS,STUDY001-SUBJ0004,18,TEMP,Temperature,36.4,C,36.4,36.4,C,,WEEK 2,4,2025-06-16,14
STUDY001,VS,STUDY001-SUBJ0004,19,BP,Blood Pressure,110/97,mmHg,110/97,,mmHg,,WEEK 2,4,2025-06-16,14
STUDY001,VS,STUDY001-SUBJ0004,20,HR,Heart Rate,64,beats/min,64,64.0,beats/min,,WEEK 2,4,2025-06-16,14
STUDY001,VS,STUDY001-SUBJ0004,21,HEIGHT,Height,179.7,cm,179.7,179.7,cm,,WEEK 4,5,2025-06-30,28
STUDY001,VS,STUDY001-SUBJ0004,22,WEIGHT,Weight,83.9,kg,83.9,83.9,kg,,WEEK 4,5,2025-06-30,28
STUDY001,VS,STUDY001-SUBJ0004,23,TEMP,Temperature,36.3,C,36.3,36.3,C,,WEEK 4,5,2025-06-30,28
STUDY001,VS,STUDY001-SUBJ0004,24,BP,Blood Pressure,109/95,mmHg,109/95,,mmHg,,WEEK 4,5,2025-06-30,28
STUDY001,VS,STUDY001-SUBJ0004,25,HR,Heart Rate,69,beats/min,69,69.0,beats/min,,WEEK 4,5,2025-06-30,28
STUDY001,VS,STUDY001-SUBJ0004,26,HEIGHT,Height,179.3,cm,179.3,179.3,cm,,WEEK 8,6,2025-07-28,56
STUDY001,VS,STUDY001-SUBJ0004,27,WEIGHT,Weight,84.2,kg,84.2,84.2,kg,,WEEK 8,6,2025-07-28,56
STUDY001,VS,STUDY001-SUBJ0004,28,TEMP,Temperature,36.5,C,36.5,36.5,C,,WEEK 8,6,2025-07-28,56
STUDY001,VS,STUDY001-SUBJ0004,29,BP,Blood Pressure,104/94,mmHg,104/94,,mmHg,,WEEK 8,6,2025-07-28,56
STUDY001,VS,STUDY001-SUBJ0004,30,HR,Heart Rate,69,beats/min,69,69.0,beats/min,,WEEK 8,6,2025-07-28,56
STUDY001,VS,STUDY001-SUBJ0004,31,HEIGHT,Height,179.4,cm,179.4,179.4,cm,,WEEK 12,7,2025-08-25,84
STUDY001,VS,STUDY001-SUBJ0004,32,WEIGHT,Weight,83.5,kg,83.5,83.5,kg,,WEEK 12,7,2025-08-25,84
STUDY001,VS,STUDY001-SUBJ0004,33,TEMP,Temperature,36.6,C,36.6,36.6,C,,WEEK 12,7,2025-08-25,84
STUDY001,VS,STUDY001-SUBJ0004,34,BP,Blood Pressure,111/93,mmHg,111/93,,mmHg,,WEEK 12,7,2025-08-25,84
STUDY001,VS,STUDY001-SUBJ0004,35,HR,Heart Rate,69,beats/min,69,69.0,beats/min,,WEEK 12,7,2025-08-25,84
STUDY001,VS,STUDY001-SUBJ0004,36,HEIGHT,Height,179.5,cm,179.5,179.5,cm,,WEEK 16,8,2025-09-22,112
STUDY001,VS,STUDY001-SUBJ0004,37,WEIGHT,Weight,84.2,kg,84.2,84.2,kg,,WEEK 16,8,2025-09-22,112
STUDY001,VS,STUDY001-SUBJ0004,38,TEMP,Temperature,36.3,C,36.3,36.3,C,,WEEK 16,8,2025-09-22,112
STUDY001,VS,STUDY001-SUBJ0004,39,BP,Blood Pressure,103/100,mmHg,103/100,,mmHg,,WEEK 16,8,2025-09-22,112
STUDY001,VS,STUDY001-SUBJ0004,40,HR,Heart Rate,61,beats/min,61,61.0,beats/min,,WEEK 16,8,2025-09-22,112
STUDY001,VS,STUDY001-SUBJ0004,41,HEIGHT,Height,179.7,cm,179.7,179.7,cm,,END OF TREATMENT,9,2025-10-20,140
STUDY001,VS,STUDY001-SUBJ0004,42,WEIGHT,Weight,82.7,kg,82.7,82.7,kg,,END OF TREATMENT,9,2025-10-20,140
STUDY001,VS,STUDY001-SUBJ0004,43,TEMP,Temperature,36.1,C,36.1,36.1,C,,END OF TREATMENT,9,2025-10-20,140
STUDY001,VS,STUDY001-SUBJ0004,44,BP,Blood Pressure,106/92,mmHg,106/92,,mmHg,,END OF TREATMENT,9,2025-10-20,140
STUDY001,VS,STUDY001-SUBJ0004,45,HR,Heart Rate,63,beats/min,63,63.0,beats/min,,END OF TREATMENT,9,2025-10-20,140
STUDY001,VS,STUDY001-SUBJ0005,1,HEIGHT,Height,182.6,cm,182.6,182.6,cm,,SCREENING,1,2024-10-08,-14
STUDY001,VS,STUDY001-SUBJ0005,2,WEIGHT,Weight,78.5,kg,78.5,78.5,kg,,SCREENING,1,2024-10-08,-14
STUDY001,VS,STUDY001-SUBJ0005,3,TEMP,Temperature,36.7,C,36.7,36.7,C,,SCREENING,1,2024-10-08,-14
STUDY001,VS,STUDY001-SUBJ0005,4,BP,Blood Pressure,103/93,mmHg,103/93,,mmHg,,SCREENING,1,2024-10-08,-14
STUDY001,VS,STUDY001-SUBJ0005,5,HR,Heart Rate,86,beats/min,86,86.0,beats/min,,SCREENING,1,2024-10-08,-14
STUDY001,VS,STUDY001-SUBJ0005,6,HEIGHT,Height,182.7,cm,182.7,182.7,cm,Y,BASELINE,2,2024-10-22,1
STUDY001,VS,STUDY001-SUBJ0005,7,WEIGHT,Weight,78.9,kg,78.9,78.9,kg,Y,BASELINE,2,2024-10-22,1
STUDY001,VS,STUDY001-SUBJ0005,8,TEMP,Temperature,36.3,C,36.3,36.3,C,Y,BASELINE,2,2024-10-22,1
STUDY001,VS,STUDY001-SUBJ0005,9,BP,Blood Pressure,104/92,mmHg,104/92,,mmHg,Y,BASELINE,2,2024-10-22,1
STUDY001,VS,STUDY001-SUBJ0005,10,HR,Heart Rate,83,beats/min,83,83.0,beats/min,Y,BASELINE,2,2024-10-22,1
STUDY001,VS,STUDY001-SUBJ0005,11,HEIGHT,Height,182.7,cm,182.7,182.7,cm,,WEEK 1,3,2024-10-28,7
STUDY001,VS,STUDY001-SUBJ0005,12,WEIGHT,Weight,79.2,kg,79.2,79.2,kg,,WEEK 1,3,2024-10-28,7
STUDY001,VS,STUDY001-SUBJ0005,13,TEMP,Temperature,36.6,C,36.6,36.6,C,,WEEK 1,3,2024-10-28,7
STUDY001,VS,STUDY001-SUBJ0005,14,BP,Blood Pressure,106/91,mmHg,106/91,,mmHg,,WEEK 1,3,2024-10-28,7
STUDY001,VS,STUDY001-SUBJ0005,15,HR,Heart Rate,90,beats/min,90,90.0,beats/min,,WEEK 1,3,2024-10-28,7
STUDY001,VS,STUDY001-SUBJ0005,16,HEIGHT,Height,182.8,cm,182.8,182.8,cm,,WEEK 2,4,2024-11-04,14
STUDY001,VS,STUDY001-SUBJ0005,17,WEIGHT,Weight,79.3,kg,79.3,79.3,kg,,WEEK 2,4,2024-11-04,14
STUDY001,VS,STUDY001-SUBJ0005,18,TEMP,Temperature,36.6,C,36.6,36.6,C,,WEEK 2,4,2024-11-04,14
STUDY001,VS,STUDY001-SUBJ0005,19,BP,Blood Pressure,106/97,mmHg,106/97,,mmHg,,WEEK 2,4,2024-11-04,14
STUDY001,VS,STUDY001-SUBJ0005,20,HR,Heart Rate,84,beats/min,84,84.0,beats/min,,WEEK 2,4,2024-11-04,14
STUDY001,VS,STUDY001-SUBJ0005,21,HEIGHT,Height,182.4,cm,182.4,182.4,cm,,WEEK 4,5,2024-11-18,28
STUDY001,VS,STUDY001-SUBJ0005,22,WEIGHT,Weight,77.6,kg,77.6,77.6,kg,,WEEK 4,5,2024-11-18,28
STUDY001,VS,STUDY001-SUBJ0005,23,TEMP,Temperature,36.4,C,36.4,36.4,C,,WEEK 4,5,2024-11-18,28
STUDY001,VS,STUDY001-SUBJ0005,24,BP,Blood Pressure,105/90,mmHg,105/90,,mmHg,,WEEK 4,5,2024-11-18,28
STUDY001,VS,STUDY001-SUBJ0005,25,HR,Heart Rate,91,beats/min,91,91.0,beats/min,,WEEK 4,5,2024-11-18,28
STUDY001,VS,STUDY001-SUBJ0005,26,HEIGHT,Height,182.5,cm,182.5,182.5,cm,,WEEK 8,6,2024-12-16,56
STUDY001,VS,STUDY001-SUBJ0005,27,WEIGHT,Weight,77.5,kg,77.5,77.5,kg,,WEEK 8,6,2024-12-16,56
STUDY001,VS,STUDY001-SUBJ0005,28,TEMP,Temperature,36.7,C,36.7,36.7,C,,WEEK 8,6,2024-12-16,56
STUDY001,VS,STUDY001-SUBJ0005,29,BP,Blood Pressure,111/98,mmHg,111/98,,mmHg,,WEEK 8,6,2024-12-16,56
STUDY001,VS,STUDY001-SUBJ0005,30,HR,Heart Rate,85,beats/min,85,85.0,beats/min,,WEEK 8,6,2024-12-16,56
STUDY001,VS,STUDY001-SUBJ0005,31,HEIGHT,Height,182.6,cm,182.6,182.6,cm,,WEEK 12,7,2025-01-13,84
STUDY001,VS,STUDY001-SUBJ0005,32,WEIGHT,Weight,78.3,kg,78.3,78.3,kg,,WEEK 12,7,2025-01-13,84
STUDY001,VS,STUDY001-SUBJ0005,33,TEMP,Temperature,36.4,C,36.4,36.4,C,,WEEK 12,7,2025-01-13,84
STUDY001,VS,STUDY001-SUBJ0005,34,BP,Blood Pressure,110/91,mmHg,110/91,,mmHg,,WEEK 12,7,2025-01-13,84
STUDY001,VS,STUDY001-SUBJ0005,35,HR,Heart Rate,87,beats/min,87,87.0,beats/min,,WEEK 12,7,2025-01-13,84
STUDY001,VS,STUDY001-SUBJ0005,36,HEIGHT,Height,182.6,cm,182.6,182.6,cm,,WEEK 16,8,2025-02-10,112
STUDY001,VS,STUDY001-SUBJ0005,37,WEIGHT,Weight,77.9,kg,77.9,77.9,kg,,WEEK 16,8,2025-02-10,112
STUDY001,VS,STUDY001-SUBJ0005,38,TEMP,Temperature,36.2,C,36.2,36.2,C,,WEEK 16,8,2025-02-10,112
STUDY001,VS,STUDY001-SUBJ0005,39,BP,Blood Pressure,102/95,mmHg,102/95,,mmHg,,WEEK 16,8,2025-02-10,112
STUDY001,VS,STUDY001-SUBJ0005,40,HR,Heart Rate,88,beats/min,88,88.0,beats/min,,WEEK 16,8,2025-02-10,112
STUDY001,VS,STUDY001-SUBJ0005,41,HEIGHT,Height,182.5,cm,182.5,182.5,cm,,END OF TREATMENT,9,2025-03-10,140
STUDY001,VS,STUDY001-SUBJ0005,42,WEIGHT,Weight,78.6,kg,78.6,78.6,kg,,END OF TREATMENT,9,2025-03-10,140
STUDY001,VS,STUDY001-SUBJ0005,43,TEMP,Temperature,36.8,C,36.8,36.8,C,,END OF TREATMENT,9,2025-03-10,140
STUDY001,VS,STUDY001-SUBJ0005,44,BP,Blood Pressure,103/92,mmHg,103/92,,mmHg,,END OF TREATMENT,9,2025-03-10,140
STUDY001,VS,STUDY001-SUBJ0005,45,HR,Heart Rate,86,beats/min,86,86.0,beats/min,,END OF TREATMENT,9,2025-03-10,140
STUDY001,VS,STUDY001-SUBJ0006,1,HEIGHT,Height,165.9,cm,165.9,165.9,cm,,SCREENING,1,2024-08-21,-14
STUDY001,VS,STUDY001-SUBJ0006,2,WEIGHT,Weight,117.0,kg,117.0,117.0,kg,,SCREENING,1,2024-08-21,-14
STUDY001,VS,STUDY001-SUBJ0006,3,TEMP,Temperature,36.3,C,36.3,36.3,C,,SCREENING,1,2024-08-21,-14
STUDY001,VS,STUDY001-SUBJ0006,4,BP,Blood Pressure,123/71,mmHg,123/71,,mmHg,,SCREENING,1,2024-08-21,-14
STUDY001,VS,STUDY001-SUBJ0006,5,HR,Heart Rate,77,beats/min,77,77.0,beats/min,,SCREENING,1,2024-08-21,-14
STUDY001,VS,STUDY001-SUBJ0006,6,HEIGHT,Height,165.9,cm,165.9,165.9,cm,Y,BASELINE,2,2024-09-04,1
STUDY001,VS,STUDY001-SUBJ0006,7,WEIGHT,Weight,115.9,kg,115.9,115.9,kg,Y,BASELINE,2,2024-09-04,1
STUDY001,VS,STUDY001-SUBJ0006,8,TEMP,Temperature,35.9,C,35.9,35.9,C,Y,BASELINE,2,2024-09-04,1
STUDY001,VS,STUDY001-SUBJ0006,9,BP,Blood Pressure,125/74,mmHg,125/74,,mmHg,Y,BASELINE,2,2024-09-04,1
STUDY001,VS,STUDY001-SUBJ0006,10,HR,Heart Rate,69,beats/min,69,69.0,beats/min,Y,BASELINE,2,2024-09-04,1
STUDY001,VS,STUDY001-SUBJ0006,11,HEIGHT,Height,166.1,cm,166.1,166.1,cm,,WEEK 1,3,2024-09-10,7
STUDY001,VS,STUDY001-SUBJ0006,12,WEIGHT,Weight,116.0,kg,116.0,116.0,kg,,WEEK 1,3,2024-09-10,7
STUDY001,VS,STUDY001-SUBJ0006,13,TEMP,Temperature,36.1,C,36.1,36.1,C,,WEEK 1,3,2024-09-10,7
STUDY001,VS,STUDY001-SUBJ0006,14,BP,Blood Pressure,130/75,mmHg,130/75,,mmHg,,WEEK 1,3,2024-09-10,7
STUDY001,VS,STUDY001-SUBJ0006,15,HR,Heart Rate,70,beats/min,70,70.0,beats/min,,WEEK 1,3,2024-09-10,7
STUDY001,VS,STUDY001-SUBJ0006,16,HEIGHT,Height,166.0,cm,166.0,166.0,cm,,WEEK 2,4,2024-09-17,14
STUDY001,VS,STUDY001-SUBJ0006,17,WEIGHT,Weight,115.7,kg,115.7,115.7,kg,,WEEK 2,4,2024-09-17,14
STUDY001,VS,STUDY001-SUBJ0006,18,TEMP,Temperature,36.1,C,36.1,36.1,C,,WEEK 2,4,2024-09-17,14
STUDY001,VS,STUDY001-SUBJ0006,19,BP,Blood Pressure,130/67,mmHg,130/67,,mmHg,,WEEK 2,4,2024-09-17,14
STUDY001,VS,STUDY001-SUBJ0006,20,HR,Heart Rate,75,beats/min,75,75.0,beats/min,,WEEK 2,4,2024-09-17,14
STUDY001,VS,STUDY001-SUBJ0006,21,HEIGHT,Height,165.8,cm,165.8,165.8,cm,,WEEK 4,5,2024-10-01,28
STUDY001,VS,STUDY001-SUBJ0006,22,WEIGHT,Weight,115.4,kg,115.4,115.4,kg,,WEEK 4,5,2024-10-01,28
STUDY001,VS,STUDY001-SUBJ0006,23,TEMP,Temperature,36.0,C,36.0,36.0,C,,WEEK 4,5,2024-10-01,28
STUDY001,VS,STUDY001-SUBJ0006,24,BP,Blood Pressure,127/73,mmHg,127/73,,mmHg,,WEEK 4,5,2024-10-01,28
STUDY001,VS,STUDY001-SUBJ0006,25,HR,Heart Rate,75,beats/min,75,75.0,beats/min,,WEEK 4,5,2024-10-01,28
STUDY001,VS,STUDY001-SUBJ0006,26,HEIGHT,Height,165.7,cm,165.7,165.7,cm,,WEEK 8,6,2024-10-29,56
STUDY001,VS,STUDY001-SUBJ0006,27,WEIGHT,Weight,115.8,kg,115.8,115.8,kg,,WEEK 8,6,2024-10-29,56
STUDY001,VS,STUDY001-SUBJ0006,28,TEMP,Temperature,36.0,C,36.0,36.0,C,,WEEK 8,6,2024-10-29,56
STUDY001,VS,STUDY001-SUBJ0006,29,BP,Blood Pressure,127/77,mmHg,127/77,,mmHg,,WEEK 8,6,2024-10-29,56
STUDY001,VS,STUDY001-SUBJ0006,30,HR,Heart Rate,73,beats/min,73,73.0,beats/min,,WEEK 8,6,2024-10-29,56
STUDY001,VS,STUDY001-SUBJ0006,31,HEIGHT,Height,166.1,cm,166.1,166.1,cm,,WEEK 12,7,2024-11-26,84
STUDY001,VS,STUDY001-SUBJ0006,32,WEIGHT,Weight,115.6,kg,115.6,115.6,kg,,WEEK 12,7,2024-11-26,84
STUDY001,VS,STUDY001-SUBJ0006,33,TEMP,Temperature,36.2,C,36.2,36.2,C,,WEEK 12,7,2024-11-26,84
STUDY001,VS,STUDY001-SUBJ0006,34,BP,Blood Pressure,127/72,mmHg,127/72,,mmHg,,WEEK 12,7,2024-11-26,84
STUDY001,VS,STUDY001-SUBJ0006,35,HR,Heart Rate,75,beats/min,75,75.0,beats/min,,WEEK 12,7,2024-11-26,84
STUDY001,VS,STUDY001-SUBJ0006,36,HEIGHT,Height,165.9,cm,165.9,165.9,cm,,WEEK 16,8,2024-12-24,112
STUDY001,VS,STUDY001-SUBJ0006,37,WEIGHT,Weight,116.7,kg,116.7,116.7,kg,,WEEK 16,8,2024-12-24,112
STUDY001,VS,STUDY001-SUBJ0006,38,TEMP,Temperature,36.1,C,36.1,36.1,C,,WEEK 16,8,2024-12-24,112
STUDY001,VS,STUDY001-SUBJ0006,39,BP,Blood Pressure,129/67,mmHg,129/67,,mmHg,,WEEK 16,8,2024-12-24,112
STUDY001,VS,STUDY001-SUBJ0006,40,HR,Heart Rate,76,beats/min,76,76.0,beats/min,,WEEK 16,8,2024-12-24,112
STUDY001,VS,STUDY001-SUBJ0006,41,HEIGHT,Height,165.8,cm,165.8,165.8,cm,,END OF TREATMENT,9,2025-01-21,140
STUDY001,VS,STUDY001-SUBJ0006,42,WEIGHT,Weight,115.8,kg,115.8,115.8,kg,,END OF TREATMENT,9,2025-01-21,140
STUDY001,VS,STUDY001-SUBJ0006,43,TEMP,Temperature,36.3,C,36.3,36.3,C,,END OF TREATMENT,9,2025-01-21,140
STUDY001,VS,STUDY001-SUBJ0006,44,BP,Blood Pressure,128/74,mmHg,128/74,,mmHg,,END OF TREATMENT,9,2025-01-21,140
STUDY001,VS,STUDY001-SUBJ0006,45,HR,Heart Rate,74,beats/min,74,74.0,beats/min,,END OF TREATMENT,9,2025-01-21,140
STUDY001,VS,STUDY001-SUBJ0007,1,HEIGHT,Height,153.8,cm,153.8,153.8,cm,,SCREENING,1,2024-10-22,-14
STUDY001,VS,STUDY001-SUBJ0007,2,WEIGHT,Weight,77.6,kg,77.6,77.6,kg,,SCREENING,1,2024-10-22,-14
STUDY001,VS,STUDY001-SUBJ0007,3,TEMP,Temperature,36.2,C,36.2,36.2,C,,SCREENING,1,2024-10-22,-14
STUDY001,VS,STUDY001-SUBJ0007,4,BP,Blood Pressure,130/72,mmHg,130/72,,mmHg,,SCREENING,1,2024-10-22,-14
STUDY001,VS,STUDY001-SUBJ0007,5,HR,Heart Rate,70,beats/min,70,70.0,beats/min,,SCREENING,1,2024-10-22,-14
STUDY001,VS,STUDY001-SUBJ0007,6,HEIGHT,Height,153.7,cm,153.7,153.7,cm,Y,BASELINE,2,2024-11-05,1
STUDY001,VS,STUDY001-SUBJ0007,7,WEIGHT,Weight,78.8,kg,78.8,78.8,kg,Y,BASELINE,2,2024-11-05,1
STUDY001,VS,STUDY001-SUBJ0007,8,TEMP,Temperature,36.3,C,36.3,36.3,C,Y,BASELINE,2,2024-11-05,1
STUDY001,VS,STUDY001-SUBJ0007,9,BP,Blood Pressure,128/80,mmHg,128/80,,mmHg,Y,BASELINE,2,2024-11-05,1
STUDY001,VS,STUDY001-SUBJ0007,10,HR,Heart Rate,69,beats/min,69,69.0,beats/min,Y,BASELINE,2,2024-11-05,1
STUDY001,VS,STUDY001-SUBJ0007,11,HEIGHT,Height,153.9,cm,153.9,153.9,cm,,WEEK 1,3,2024-11-11,7
STUDY001,VS,STUDY001-SUBJ0007,12,WEIGHT,Weight,77.7,kg,77.7,77.7,kg,,WEEK 1,3,2024-11-11,7
STUDY001,VS,STUDY001-SUBJ0007,13,TEMP,Temperature,35.9,C,35.9,35.9,C,,WEEK 1,3,2024-11-11,7
STUDY001,VS,STUDY001-SUBJ0007,14,BP,Blood Pressure,130/73,mmHg,130/73,,mmHg,,WEEK 1,3,2024-11-11,7
STUDY001,VS,STUDY001-SUBJ0007,15,HR,Heart Rate,62,beats/min,62,62.0,beats/min,,WEEK 1,3,2024-11-11,7
STUDY001,VS,STUDY001-SUBJ0007,16,HEIGHT,Height,153.6,cm,153.6,153.6,cm,,WEEK 2,4,2024-11-18,14
STUDY001,VS,STUDY001-SUBJ0007,17,WEIGHT,Weight,78.4,kg,78.4,78.4,kg,,WEEK 2,4,2024-11-18,14
STUDY001,VS,STUDY001-SUBJ0007,18,TEMP,Temperature,36.0,C,36.0,36.0,C,,WEEK 2,4,2024-11-18,14
STUDY001,VS,STUDY001-SUBJ0007,19,BP,Blood Pressure,133/72,mmHg,133/72,,mmHg,,WEEK 2,4,2024-11-18,14
STUDY001,VS,STUDY001-SUBJ0007,20,HR,Heart Rate,63,beats/min,63,63.0,beats/min,,WEEK 2,4,2024-11-18,14
STUDY001,VS,STUDY001-SUBJ0007,21,HEIGHT,Height,153.8,cm,153.8,153.8,cm,,WEEK 4,5,2024-12-02,28
STUDY001,VS,STUDY001-SUBJ0007,22,WEIGHT,Weight,77.7,kg,77.7,77.7,kg,,WEEK 4,5,2024-12-02,28
STUDY001,VS,STUDY001-SUBJ0007,23,TEMP,Temperature,36.4,C,36.4,36.4,C,,WEEK 4,5,2024-12-02,28
STUDY001,VS,STUDY001-SUBJ0007,24,BP,Blood Pressure,133/71,mmHg,133/71,,mmHg,,WEEK 4,5,2024-12-02,28
STUDY001,VS,STUDY001-SUBJ0007,25,HR,Heart Rate,72,beats/min,72,72.0,beats/min,,WEEK 4,5,2024-12-02,28
STUDY001,VS,STUDY001-SUBJ0007,26,HEIGHT,Height,153.7,cm,153.7,153.7,cm,,WEEK 8,6,2024-12-30,56
STUDY001,VS,STUDY001-SUBJ0007,27,WEIGHT,Weight,77.7,kg,77.7,77.7,kg,,WEEK 8,6,2024-12-30,56
STUDY001,VS,STUDY001-SUBJ0007,28,TEMP,Temperature,35.8,C,35.8,35.8,C,,WEEK 8,6,2024-12-30,56
STUDY001,VS,STUDY001-SUBJ0007,29,BP,Blood Pressure,129/77,mmHg,129/77,,mmHg,,WEEK 8,6,2024-12-30,56
STUDY001,VS,STUDY001-SUBJ0007,30,HR,Heart Rate,69,beats/min,69,69.0,beats/min,,WEEK 8,6,2024-12-30,56
STUDY001,VS,STUDY001-SUBJ0007,31,HEIGHT,Height,153.8,cm,153.8,153.8,cm,,WEEK 12,7,2025-01-27,84
STUDY001,VS,STUDY001-SUBJ0007,32,WEIGHT,Weight,77.5,kg,77.5,77.5,kg,,WEEK 12,7,2025-01-27,84
STUDY001,VS,STUDY001-SUBJ0007,33,TEMP,Temperature,36.3,C,36.3,36.3,C,,WEEK 12,7,2025-01-27,84
STUDY001,VS,STUDY001-SUBJ0007,34,BP,Blood Pressure,128/76,mmHg,128/76,,mmHg,,WEEK 12,7,2025-01-27,84
STUDY001,VS,STUDY001-SUBJ0007,35,HR,Heart Rate,64,beats/min,64,64.0,beats/min,,WEEK 12,7,2025-01-27,84
STUDY001,VS,STUDY001-SUBJ0007,36,HEIGHT,Height,153.9,cm,153.9,153.9,cm,,WEEK 16,8,2025-02-24,112
STUDY001,VS,STUDY001-SUBJ0007,37,WEIGHT,Weight,78.5,kg,78.5,78.5,kg,,WEEK 16,8,2025-02-24,112
STUDY001,VS,STUDY001-SUBJ0007,38,TEMP,Temperature,35.8,C,35.8,35.8,C,,WEEK 16,8,2025-02-24,112
STUDY001,VS,STUDY001-SUBJ0007,39,BP,Blood Pressure,133/80,mmHg,133/80,,mmHg,,WEEK 16,8,2025-02-24,112
STUDY001,VS,STUDY001-SUBJ0007,40,HR,Heart Rate,69,beats/min,69,69.0,beats/min,,WEEK 16,8,2025-02-24,112
STUDY001,VS,STUDY001-SUBJ0007,41,HEIGHT,Height,154.0,cm,154.0,154.0,cm,,END OF TREATMENT,9,2025-03-24,140
STUDY001,VS,STUDY001-SUBJ0007,42,WEIGHT,Weight,77.7,kg,77.7,77.7,kg,,END OF TREATMENT,9,2025-03-24,140
STUDY001,VS,STUDY001-SUBJ0007,43,TEMP,Temperature,36.2,C,36.2,36.2,C,,END OF TREATMENT,9,2025-03-24,140
STUDY001,VS,STUDY001-SUBJ0007,44,BP,Blood Pressure,129/77,mmHg,129/77,,mmHg,,END OF TREATMENT,9,2025-03-24,140
STUDY001,VS,STUDY001-SUBJ0007,45,HR,Heart Rate,63,beats/min,63,63.0,beats/min,,END OF TREATMENT,9,2025-03-24,140
STUDY001,VS,STUDY001-SUBJ0008,1,HEIGHT,Height,155.4,cm,155.4,155.4,cm,,SCREENING,1,2024-10-21,-14
STUDY001,VS,STUDY001-SUBJ0008,2,WEIGHT,Weight,72.6,kg,72.6,72.6,kg,,SCREENING,1,2024-10-21,-14
STUDY001,VS,STUDY001-SUBJ0008,3,TEMP,Temperature,36.5,C,36.5,36.5,C,,SCREENING,1,2024-10-21,-14
STUDY001,VS,STUDY001-SUBJ0008,4,BP,Blood Pressure,133/97,mmHg,133/97,,mmHg,,SCREENING,1,2024-10-21,-14
STUDY001,VS,STUDY001-SUBJ0008,5,HR,Heart Rate,72,beats/min,72,72.0,beats/min,,SCREENING,1,2024-10-21,-14
STUDY001,VS,STUDY001-SUBJ0008,6,HEIGHT,Height,155.3,cm,155.3,155.3,cm,Y,BASELINE,2,2024-11-04,1
STUDY001,VS,STUDY001-SUBJ0008,7,WEIGHT,Weight,71.3,kg,71.3,71.3,kg,Y,BASELINE,2,2024-11-04,1
STUDY001,VS,STUDY001-SUBJ0008,8,TEMP,Temperature,36.6,C,36.6,36.6,C,Y,BASELINE,2,2024-11-04,1
STUDY001,VS,STUDY001-SUBJ0008,9,BP,Blood Pressure,134/92,mmHg,134/92,,mmHg,Y,BASELINE,2,2024-11-04,1
STUDY001,VS,STUDY001-SUBJ0008,10,HR,Heart Rate,71,beats/min,71,71.0,beats/min,Y,BASELINE,2,2024-11-04,1
STUDY001,VS,STUDY001-SUBJ0008,11,HEIGHT,Height,155.6,cm,155.6,155.6,cm,,WEEK 1,3,2024-11-10,7
STUDY001,VS,STUDY001-SUBJ0008,12,WEIGHT,Weight,71.1,kg,71.1,71.1,kg,,WEEK 1,3,2024-11-10,7
STUDY001,VS,STUDY001-SUBJ0008,13,TEMP,Temperature,36.3,C,36.3,36.3,C,,WEEK 1,3,2024-11-10,7
STUDY001,VS,STUDY001-SUBJ0008,14,BP,Blood Pressure,139/88,mmHg,139/88,,mmHg,,WEEK 1,3,2024-11-10,7
STUDY001,VS,STUDY001-SUBJ0008,15,HR,Heart Rate,73,beats/min,73,73.0,beats/min,,WEEK 1,3,2024-11-10,7
STUDY001,VS,STUDY001-SUBJ0008,16,HEIGHT,Height,155.5,cm,155.5,155.5,cm,,WEEK 2,4,2024-11-17,14
STUDY001,VS,STUDY001-SUBJ0008,17,WEIGHT,Weight,72.2,kg,72.2,72.2,kg,,WEEK 2,4,2024-11-17,14
STUDY001,VS,STUDY001-SUBJ0008,18,TEMP,Temperature,36.3,C,36.3,36.3,C,,WEEK 2,4,2024-11-17,14
STUDY001,VS,STUDY001-SUBJ0008,19,BP,Blood Pressure,135/91,mmHg,135/91,,mmHg,,WEEK 2,4,2024-11-17,14
STUDY001,VS,STUDY001-SUBJ0008,20,HR,Heart Rate,80,beats/min,80,80.0,beats/min,,WEEK 2,4,2024-11-17,14
STUDY001,VS,STUDY001-SUBJ0008,21,HEIGHT,Height,155.4,cm,155.4,155.4,cm,,WEEK 4,5,2024-12-01,28
STUDY001,VS,STUDY001-SUBJ0008,22,WEIGHT,Weight,72.5,kg,72.5,72.5,kg,,WEEK 4,5,2024-12-01,28
STUDY001,VS,STUDY001-SUBJ0008,23,TEMP,Temperature,36.4,C,36.4,36.4,C,,WEEK 4,5,2024-12-01,28
STUDY001,VS,STUDY001-SUBJ0008,24,BP,Blood Pressure,132/87,mmHg,132/87,,mmHg,,WEEK 4,5,2024-12-01,28
STUDY001,VS,STUDY001-SUBJ0008,25,HR,Heart Rate,80,beats/min,80,80.0,beats/min,,WEEK 4,5,2024-12-01,28
STUDY001,VS,STUDY001-SUBJ0008,26,HEIGHT,Height,155.5,cm,155.5,155.5,cm,,WEEK 8,6,2024-12-29,56
STUDY001,VS,STUDY001-SUBJ0008,27,WEIGHT,Weight,71.5,kg,71.5,71.5,kg,,WEEK 8,6,2024-12-29,56
STUDY001,VS,STUDY001-SUBJ0008,28,TEMP,Temperature,36.6,C,36.6,36.6,C,,WEEK 8,6,2024-12-29,56
STUDY001,VS,STUDY001-SUBJ0008,29,BP,Blood Pressure,133/89,mmHg,133/89,,mmHg,,WEEK 8,6,2024-12-29,56
STUDY001,VS,STUDY001-SUBJ0008,30,HR,Heart Rate,77,beats/min,77,77.0,beats/min,,WEEK 8,6,2024-12-29,56
STUDY001,VS,STUDY001-SUBJ0008,31,HEIGHT,Height,155.4,cm,155.4,155.4,cm,,WEEK 12,7,2025-01-26,84
STUDY001,VS,STUDY001-SUBJ0008,32,WEIGHT,Weight,71.4,kg,71.4,71.4,kg,,WEEK 12,7,2025-01-26,84
STUDY001,VS,STUDY001-SUBJ0008,33,TEMP,Temperature,36.4,C,36.4,36.4,C,,WEEK 12,7,2025-01-26,84
STUDY001,VS,STUDY001-SUBJ0008,34,BP,Blood Pressure,134/88,mmHg,134/88,,mmHg,,WEEK 12,7,2025-01-26,84
STUDY001,VS,STUDY001-SUBJ0008,35,HR,Heart Rate,79,beats/min,79,79.0,beats/min,,WEEK 12,7,2025-01-26,84
STUDY001,VS,STUDY001-SUBJ0008,36,HEIGHT,Height,155.4,cm,155.4,155.4,cm,,WEEK 16,8,2025-02-23,112
STUDY001,VS,STUDY001-SUBJ0008,37,WEIGHT,Weight,72.6,kg,72.6,72.6,kg,,WEEK 16,8,2025-02-23,112
STUDY001,VS,STUDY001-SUBJ0008,38,TEMP,Temperature,36.5,C,36.5,36.5,C,,WEEK 16,8,2025-02-23,112
STUDY001,VS,STUDY001-SUBJ0008,39,BP,Blood Pressure,137/93,mmHg,137/93,,mmHg,,WEEK 16,8,2025-02-23,112
STUDY001,VS,STUDY001-SUBJ0008,40,HR,Heart Rate,72,beats/min,72,72.0,beats/min,,WEEK 16,8,2025-02-23,112
STUDY001,VS,STUDY001-SUBJ0008,41,HEIGHT,Height,155.4,cm,155.4,155.4,cm,,END OF TREATMENT,9,2025-03-23,140
STUDY001,VS,STUDY001-SUBJ0008,42,WEIGHT,Weight,71.3,kg,71.3,71.3,kg,,END OF TREATMENT,9,2025-03-23,140
STUDY001,VS,STUDY001-SUBJ0008,43,TEMP,Temperature,36.5,C,36.5,36.5,C,,END OF TREATMENT,9,2025-03-23,140
STUDY001,VS,STUDY001-SUBJ0008,44,BP,Blood Pressure,140/93,mmHg,140/93,,mmHg,,END OF TREATMENT,9,2025-03-23,140
STUDY001,VS,STUDY001-SUBJ0008,45,HR,Heart Rate,78,beats/min,78,78.0,beats/min,,END OF TREATMENT,9,2025-03-23,140
STUDY001,VS,STUDY001-SUBJ0009,1,HEIGHT,Height,181.6,cm,181.6,181.6,cm,,SCREENING,1,2024-11-06,-14
STUDY001,VS,STUDY001-SUBJ0009,2,WEIGHT,Weight,79.2,kg,79.2,79.2,kg,,SCREENING,1,2024-11-06,-14
STUDY001,VS,STUDY001-SUBJ0009,3,TEMP,Temperature,36.6,C,36.6,36.6,C,,SCREENING,1,2024-11-06,-14
STUDY001,VS,STUDY001-SUBJ0009,4,BP,Blood Pressure,144/74,mmHg,144/74,,mmHg,,SCREENING,1,2024-11-06,-14
STUDY001,VS,STUDY001-SUBJ0009,5,HR,Heart Rate,90,beats/min,90,90.0,beats/min,,SCREENING,1,2024-11-06,-14
STUDY001,VS,STUDY001-SUBJ0009,6,HEIGHT,Height,181.5,cm,181.5,181.5,cm,Y,BASELINE,2,2024-11-20,1
STUDY001,VS,STUDY001-SUBJ0009,7,WEIGHT,Weight,80.4,kg,80.4,80.4,kg,Y,BASELINE,2,2024-11-20,1
STUDY001,VS,STUDY001-SUBJ0009,8,TEMP,Temperature,36.8,C,36.8,36.8,C,Y,BASELINE,2,2024-11-20,1
STUDY001,VS,STUDY001-SUBJ0009,9,BP,Blood Pressure,148/71,mmHg,148/71,,mmHg,Y,BASELINE,2,2024-11-20,1
STUDY001,VS,STUDY001-SUBJ0009,10,HR,Heart Rate,94,beats/min,94,94.0,beats/min,Y,BASELINE,2,2024-11-20,1
STUDY001,VS,STUDY001-SUBJ0009,11,HEIGHT,Height,181.6,cm,181.6,181.6,cm,,WEEK 1,3,2024-11-26,7
STUDY001,VS,STUDY001-SUBJ0009,12,WEIGHT,Weight,79.3,kg,79.3,79.3,kg,,WEEK 1,3,2024-11-26,7
STUDY001,VS,STUDY001-SUBJ0009,13,TEMP,Temperature,36.7,C,36.7,36.7,C,,WEEK 1,3,2024-11-26,7
STUDY001,VS,STUDY001-SUBJ0009,14,BP,Blood Pressure,140/76,mmHg,140/76,,mmHg,,WEEK 1,3,2024-11-26,7
STUDY001,VS,STUDY001-SUBJ0009,15,HR,Heart Rate,86,beats/min,86,86.0,beats/min,,WEEK 1,3,2024-11-26,7
STUDY001,VS,STUDY001-SUBJ0009,16,HEIGHT,Height,181.5,cm,181.5,181.5,cm,,WEEK 2,4,2024-12-03,14
STUDY001,VS,STUDY001-SUBJ0009,17,WEIGHT,Weight,78.8,kg,78.8,78.8,kg,,WEEK 2,4,2024-12-03,14
STUDY001,VS,STUDY001-SUBJ0009,18,TEMP,Temperature,36.9,C,36.9,36.9,C,,WEEK 2,4,2024-12-03,14
STUDY001,VS,STUDY001-SUBJ0009,19,BP,Blood Pressure,142/77,mmHg,142/77,,mmHg,,WEEK 2,4,2024-12-03,14
STUDY001,VS,STUDY001-SUBJ0009,20,HR,Heart Rate,93,beats/min,93,93.0,beats/min,,WEEK 2,4,2024-12-03,14
STUDY001,VS,STUDY001-SUBJ0009,21,HEIGHT,Height,181.7,cm,181.7,181.7,cm,,WEEK 4,5,2024-12-17,28
STUDY001,VS,STUDY001-SUBJ0009,22,WEIGHT,Weight,80.2,kg,80.2,80.2,kg,,WEEK 4,5,2024-12-17,28
STUDY001,VS,STUDY001-SUBJ0009,23,TEMP,Temperature,36.7,C,36.7,36.7,C,,WEEK 4,5,2024-12-17,28
STUDY001,VS,STUDY001-SUBJ0009,24,BP,Blood Pressure,148/67,mmHg,148/67,,mmHg,,WEEK 4,5,2024-12-17,28
STUDY001,VS,STUDY001-SUBJ0009,25,HR,Heart Rate,86,beats/min,86,86.0,beats/min,,WEEK 4,5,2024-12-17,28
STUDY001,VS,STUDY001-SUBJ0009,26,HEIGHT,Height,181.4,cm,181.4,181.4,cm,,WEEK 8,6,2025-01-14,56
STUDY001,VS,STUDY001-SUBJ0009,27,WEIGHT,Weight,78.9,kg,78.9,78.9,kg,,WEEK 8,6,2025-01-14,56
STUDY001,VS,STUDY001-SUBJ0009,28,TEMP,Temperature,37.0,C,37.0,37.0,C,,WEEK 8,6,2025-01-14,56
STUDY001,VS,STUDY001-SUBJ0009,29,BP,Blood Pressure,142/74,mmHg,142/74,,mmHg,,WEEK 8,6,2025-01-14,56
STUDY001,VS,STUDY001-SUBJ0009,30,HR,Heart Rate,86,beats/min,86,86.0,beats/min,,WEEK 8,6,2025-01-14,56
STUDY001,VS,STUDY001-SUBJ0009,31,HEIGHT,Height,181.5,cm,181.5,181.5,cm,,WEEK 12,7,2025-02-11,84
STUDY001,VS,STUDY001-SUBJ0009,32,WEIGHT,Weight,79.3,kg,79.3,79.3,kg,,WEEK 12,7,2025-02-11,84
STUDY001,VS,STUDY001-SUBJ0009,33,TEMP,Temperature,37.0,C,37.0,37.0,C,,WEEK 12,7,2025-02-11,84
STUDY001,VS,STUDY001-SUBJ0009,34,BP,Blood Pressure,147/68,mmHg,147/68,,mmHg,,WEEK 12,7,2025-02-11,84
STUDY001,VS,STUDY001-SUBJ0009,35,HR,Heart Rate,89,beats/min,89,89.0,beats/min,,WEEK 12,7,2025-02-11,84
STUDY001,VS,STUDY001-SUBJ0009,36,HEIGHT,Height,181.5,cm,181.5,181.5,cm,,WEEK 16,8,2025-03-11,112
STUDY001,VS,STUDY001-SUBJ0009,37,WEIGHT,Weight,78.7,kg,78.7,78.7,kg,,WEEK 16,8,2025-03-11,112
STUDY001,VS,STUDY001-SUBJ0009,38,TEMP,Temperature,36.8,C,36.8,36.8,C,,WEEK 16,8,2025-03-11,112
STUDY001,VS,STUDY001-SUBJ0009,39,BP,Blood Pressure,140/67,mmHg,140/67,,mmHg,,WEEK 16,8,2025-03-11,112
STUDY001,VS,STUDY001-SUBJ0009,40,HR,Heart Rate,86,beats/min,86,86.0,beats/min,,WEEK 16,8,2025-03-11,112
STUDY001,VS,STUDY001-SUBJ0009,41,HEIGHT,Height,181.5,cm,181.5,181.5,cm,,END OF TREATMENT,9,2025-04-08,140
STUDY001,VS,STUDY001-SUBJ0009,42,WEIGHT,Weight,79.2,kg,79.2,79.2,kg,,END OF TREATMENT,9,2025-04-08,140
STUDY001,VS,STUDY001-SUBJ0009,43,TEMP,Temperature,36.7,C,36.7,36.7,C,,END OF TREATMENT,9,2025-04-08,140
STUDY001,VS,STUDY001-SUBJ0009,44,BP,Blood Pressure,144/70,mmHg,144/70,,mmHg,,END OF TREATMENT,9,2025-04-08,140
STUDY001,VS,STUDY001-SUBJ0009,45,HR,Heart Rate,89,beats/min,89,89.0,beats/min,,END OF TREATMENT,9,2025-04-08,140
STUDY001,VS,STUDY001-SUBJ0010,1,HEIGHT,Height,170.2,cm,170.2,170.2,cm,,SCREENING,1,2024-11-01,-14
STUDY001,VS,STUDY001-SUBJ0010,2,WEIGHT,Weight,86.2,kg,86.2,86.2,kg,,SCREENING,1,2024-11-01,-14
STUDY001,VS,STUDY001-SUBJ0010,3,TEMP,Temperature,36.7,C,36.7,36.7,C,,SCREENING,1,2024-11-01,-14
STUDY001,VS,STUDY001-SUBJ0010,4,BP,Blood Pressure,122/96,mmHg,122/96,,mmHg,,SCREENING,1,2024-11-01,-14
STUDY001,VS,STUDY001-SUBJ0010,5,HR,Heart Rate,77,beats/min,77,77.0,beats/min,,SCREENING,1,2024-11-01,-14
STUDY001,VS,STUDY001-SUBJ0010,6,HEIGHT,Height,170.3,cm,170.3,170.3,cm,Y,BASELINE,2,2024-11-15,1
STUDY001,VS,STUDY001-SUBJ0010,7,WEIGHT,Weight,84.7,kg,84.7,84.7,kg,Y,BASELINE,2,2024-11-15,1
STUDY001,VS,STUDY001-SUBJ0010,8,TEMP,Temperature,36.8,C,36.8,36.8,C,Y,BASELINE,2,2024-11-15,1
STUDY001,VS,STUDY001-SUBJ0010,9,BP,Blood Pressure,120/92,mmHg,120/92,,mmHg,Y,BASELINE,2,2024-11-15,1
STUDY001,VS,STUDY001-SUBJ0010,10,HR,Heart Rate,83,beats/min,83,83.0,beats/min,Y,BASELINE,2,2024-11-15,1
STUDY001,VS,STUDY001-SUBJ0010,11,HEIGHT,Height,170.1,cm,170.1,170.1,cm,,WEEK 1,3,2024-11-21,7
STUDY001,VS,STUDY001-SUBJ0010,12,WEIGHT,Weight,86.2,kg,86.2,86.2,kg,,WEEK 1,3,2024-11-21,7
STUDY001,VS,STUDY001-SUBJ0010,13,TEMP,Temperature,36.5,C,36.5,36.5,C,,WEEK 1,3,2024-11-21,7
STUDY001,VS,STUDY001-SUBJ0010,14,BP,Blood Pressure,127/88,mmHg,127/88,,mmHg,,WEEK 1,3,2024-11-21,7
STUDY001,VS,STUDY001-SUBJ0010,15,HR,Heart Rate,78,beats/min,78,78.0,beats/min,,WEEK 1,3,2024-11-21,7
STUDY001,VS,STUDY001-SUBJ0010,16,HEIGHT,Height,170.3,cm,170.3,170.3,cm,,WEEK 2,4,2024-11-28,14
STUDY001,VS,STUDY001-SUBJ0010,17,WEIGHT,Weight,86.1,kg,86.1,86.1,kg,,WEEK 2,4,2024-11-28,14
STUDY001,VS,STUDY001-SUBJ0010,18,TEMP,Temperature,36.5,C,36.5,36.5,C,,WEEK 2,4,2024-11-28,14
STUDY001,VS,STUDY001-SUBJ0010,19,BP,Blood Pressure,126/89,mmHg,126/89,,mmHg,,WEEK 2,4,2024-11-28,14
STUDY001,VS,STUDY001-SUBJ0010,20,HR,Heart Rate,83,beats/min,83,83.0,beats/min,,WEEK 2,4,2024-11-28,14
STUDY001,VS,STUDY001-SUBJ0010,21,HEIGHT,Height,170.0,cm,170.0,170.0,cm,,WEEK 4,5,2024-12-12,28
STUDY001,VS,STUDY001-SUBJ0010,22,WEIGHT,Weight,85.0,kg,85.0,85.0,kg,,WEEK 4,5,2024-12-12,28
STUDY001,VS,STUDY001-SUBJ0010,23,TEMP,Temperature,36.8,C,36.8,36.8,C,,WEEK 4,5,2024-12-12,28
STUDY001,VS,STUDY001-SUBJ0010,24,BP,Blood Pressure,125/95,mmHg,125/95,,mmHg,,WEEK 4,5,2024-12-12,28
STUDY001,VS,STUDY001-SUBJ0010,25,HR,Heart Rate,79,beats/min,79,79.0,beats/min,,WEEK 4,5,2024-12-12,28
STUDY001,VS,STUDY001-SUBJ0010,26,HEIGHT,Height,170.1,cm,170.1,170.1,cm,,WEEK 8,6,2025-01-09,56
STUDY001,VS,STUDY001-SUBJ0010,27,WEIGHT,Weight,86.1,kg,86.1,86.1,kg,,WEEK 8,6,2025-01-09,56
STUDY001,VS,STUDY001-SUBJ0010,28,TEMP,Temperature,36.5,C,36.5,36.5,C,,WEEK 8,6,2025-01-09,56
STUDY001,VS,STUDY001-SUBJ0010,29,BP,Blood Pressure,120/96,mmHg,120/96,,mmHg,,WEEK 8,6,2025-01-09,56
STUDY001,VS,STUDY001-SUBJ0010,30,HR,Heart Rate,76,beats/min,76,76.0,beats/min,,WEEK 8,6,2025-01-09,56
STUDY001,VS,STUDY001-SUBJ0010,31,HEIGHT,Height,170.2,cm,170.2,170.2,cm,,WEEK 12,7,2025-02-06,84
STUDY001,VS,STUDY001-SUBJ0010,32,WEIGHT,Weight,84.4,kg,84.4,84.4,kg,,WEEK 12,7,2025-02-06,84
STUDY001,VS,STUDY001-SUBJ0010,33,TEMP,Temperature,37.0,C,37.0,37.0,C,,WEEK 12,7,2025-02-06,84
STUDY001,VS,STUDY001-SUBJ0010,34,BP,Blood Pressure,117/92,mmHg,117/92,,mmHg,,WEEK 12,7,2025-02-06,84
STUDY001,VS,STUDY001-SUBJ0010,35,HR,Heart Rate,82,beats/min,82,82.0,beats/min,,WEEK 12,7,2025-02-06,84
STUDY001,VS,STUDY001-SUBJ0010,36,HEIGHT,Height,170.0,cm,170.0,170.0,cm,,WEEK 16,8,2025-03-06,112
STUDY001,VS,STUDY001-SUBJ0010,37,WEIGHT,Weight,84.6,kg,84.6,84.6,kg,,WEEK 16,8,2025-03-06,112
STUDY001,VS,STUDY001-SUBJ0010,38,TEMP,Temperature,36.8,C,36.8,36.8,C,,WEEK 16,8,2025-03-06,112
STUDY001,VS,STUDY001-SUBJ0010,39,BP,Blood Pressure,119/95,mmHg,119/95,,mmHg,,WEEK 16,8,2025-03-06,112
STUDY001,VS,STUDY001-SUBJ0010,40,HR,Heart Rate,81,beats/min,81,81.0,beats/min,,WEEK 16,8,2025-03-06,112
STUDY001,VS,STUDY001-SUBJ0010,41,HEIGHT,Height,170.3,cm,170.3,170.3,cm,,END OF TREATMENT,9,2025-04-03,140
STUDY001,VS,STUDY001-SUBJ0010,42,WEIGHT,Weight,84.4,kg,84.4,84.4,kg,,END OF TREATMENT,9,2025-04-03,140
STUDY001,VS,STUDY001-SUBJ0010,43,TEMP,Temperature,36.5,C,36.5,36.5,C,,END OF TREATMENT,9,2025-04-03,140
STUDY001,VS,STUDY001-SUBJ0010,44,BP,Blood Pressure,125/95,mmHg,125/95,,mmHg,,END OF TREATMENT,9,2025-04-03,140
STUDY001,VS,STUDY001-SUBJ0010,45,HR,Heart Rate,84,beats/min,84,84.0,beats/min,,END OF TREATMENT,9,2025-04-03,140
