STUDYID,DOMAIN,USUBJID,SUBJID,RFSTDTC,RFENDTC,RFXSTDTC,RFXENDTC,RFICDTC,RFPENDTC,DTHDTC,DTHFL,SITEID,AGE,AGEU,SEX,RACE,ETHNIC,ARMCD,ARM,ACTARMCD,ACTARM,COUNTRY,DMDTC,DMDY
STUDY001,DM,STUDY001-SUBJ0001,SUBJ0001,2024-10-19,2025-07-26,2024-09-30,2025-08-06,2024-09-02,2025-07-26,,,43,66,YEARS,M,ASIAN,NOT HISPANIC OR LATINO,ARM1,Treatment 2,ARM1,Treatment 2,DZ,2025-03-25,23
STUDY001,DM,STUDY001-SUBJ0002,SUBJ0002,2025-04-20,2025-08-10,2025-05-20,2025-08-12,2025-01-14,2025-08-10,,,36,32,YEARS,M,ASIAN,NOT HISPANIC OR LATINO,ARM2,Treatment 2,ARM2,Treatment 2,GQ,2024-10-07,7
STUDY001,DM,STUDY001-SUBJ0003,SUBJ0003,2025-06-20,2025-08-12,2025-05-21,2025-07-24,2024-12-16,2025-08-12,,,18,29,YEARS,M,AMERICAN INDIAN OR ALASKA NATIVE,NOT HISPANIC OR LATINO,ARM3,Treatment 1,ARM3,Treatment 1,US,2025-01-23,22
STUDY001,DM,STUDY001-SUBJ0004,SUBJ0004,2025-06-10,2025-08-17,2025-04-17,2025-07-24,2025-05-21,2025-08-17,,,21,80,YEARS,M,WHITE,NOT HISPANIC OR LATINO,ARM1,Treatment 2,ARM1,Treatment 2,IR,2025-03-14,20
STUDY001,DM,STUDY001-SUBJ0005,SUBJ0005,2024-12-18,2025-08-03,2025-01-31,2025-07-26,2025-05-29,2025-08-03,,,34,62,YEARS,M,AMERICAN INDIAN OR ALASKA NATIVE,NOT HISPANIC OR LATINO,ARM2,Treatment 1,ARM2,Treatment 1,KI,2025-01-22,4
STUDY001,DM,STUDY001-SUBJ0006,SUBJ0006,2024-12-09,2025-08-01,2024-12-26,2025-08-01,2024-10-22,2025-08-01,,,22,27,YEARS,F,AMERICAN INDIAN OR ALASKA NATIVE,HISPANIC OR LATINO,ARM3,Treatment 3,ARM3,Treatment 3,SM,2024-10-28,1
STUDY001,DM,STUDY001-SUBJ0007,SUBJ0007,2025-03-14,2025-07-26,2024-10-10,2025-08-17,2025-03-21,2025-07-26,,,43,74,YEARS,F,OTHER,HISPANIC OR LATINO,ARM1,Treatment 3,ARM1,Treatment 3,GT,2024-11-25,4
STUDY001,DM,STUDY001-SUBJ0008,SUBJ0008,2025-04-09,2025-08-07,2024-10-25,2025-07-31,2024-10-02,2025-08-07,,,25,22,YEARS,F,ASIAN,NOT HISPANIC OR LATINO,ARM2,Treatment 1,ARM2,Treatment 1,UY,2025-06-07,14
STUDY001,DM,STUDY001-SUBJ0009,SUBJ0009,2025-01-14,2025-08-18,2025-03-07,2025-08-11,2024-11-16,2025-08-18,,,23,53,YEARS,F,AMERICAN INDIAN OR ALASKA NATIVE,NOT HISPANIC OR LATINO,ARM3,Treatment 3,ARM3,Treatment 3,KN,2025-05-04,20
STUDY001,DM,STUDY001-SUBJ0010,SUBJ0010,2025-04-04,2025-08-01,2025-06-30,2025-07-24,2025-07-09,2025-08-01,,,43,18,YEARS,F,BLACK OR AFRICAN AMERICAN,NOT HISPANIC OR LATINO,ARM1,Treatment 2,ARM1,Treatment 2,BT,2025-07-18,27
