STUDYID,DOMAIN,USUBJID,VSSEQ,VSTESTCD,VSTEST,VSORRES,VSORRESU,VSSTRESC,VSSTRESN,VSSTRESU,VSBLFL,VISIT,VISITNUM,VSDTC,VSDY
STUDY001,VS,STUDY001-SUBJ0001,1,HEIGHT,Height,161.0,cm,161.0,161.0,cm,,SCREENING,1,2025-04-16,-14
STUDY001,VS,STUDY001-SUBJ0001,2,WEIGHT,Weight,92.5,kg,92.5,92.5,kg,,SCREENING,1,2025-04-16,-14
STUDY001,VS,STUDY001-SUBJ0001,3,TEMP,Temperature,36.3,C,36.3,36.3,C,,SCREENING,1,2025-04-16,-14
STUDY001,VS,STUDY001-SUBJ0001,4,BP,Blood Pressure,147/99,mmHg,147/99,,mmHg,,SCREENING,1,2025-04-16,-14
STUDY001,VS,STUDY001-SUBJ0001,5,HR,Heart Rate,69,beats/min,69,69.0,beats/min,,SCREENING,1,2025-04-16,-14
STUDY001,VS,STUDY001-SUBJ0001,6,HEIGHT,Height,160.8,cm,160.8,160.8,cm,Y,BASELINE,2,2025-04-30,1
STUDY001,VS,STUDY001-SUBJ0001,7,WEIGHT,Weight,92.4,kg,92.4,92.4,kg,Y,BASELINE,2,2025-04-30,1
STUDY001,VS,STUDY001-SUBJ0001,8,TEMP,Temperature,36.0,C,36.0,36.0,C,Y,BASELINE,2,2025-04-30,1
STUDY001,VS,STUDY001-SUBJ0001,9,BP,Blood Pressure,146/90,mmHg,146/90,,mmHg,Y,BASELINE,2,2025-04-30,1
STUDY001,VS,STUDY001-SUBJ0001,10,HR,Heart Rate,61,beats/min,61,61.0,beats/min,Y,BASELINE,2,2025-04-30,1
STUDY001,VS,STUDY001-SUBJ0001,11,HEIGHT,Height,160.9,cm,160.9,160.9,cm,,WEEK 1,3,2025-05-06,7
STUDY001,VS,STUDY001-SUBJ0001,12,WEIGHT,Weight,92.5,kg,92.5,92.5,kg,,WEEK 1,3,2025-05-06,7
STUDY001,VS,STUDY001-SUBJ0001,13,TEMP,Temperature,36.4,C,36.4,36.4,C,,WEEK 1,3,2025-05-06,7
STUDY001,VS,STUDY001-SUBJ0001,14,BP,Blood Pressure,153/97,mmHg,153/97,,mmHg,,WEEK 1,3,2025-05-06,7
STUDY001,VS,STUDY001-SUBJ0001,15,HR,Heart Rate,66,beats/min,66,66.0,beats/min,,WEEK 1,3,2025-05-06,7
STUDY001,VS,STUDY001-SUBJ0001,16,HEIGHT,Height,161.0,cm,161.0,161.0,cm,,WEEK 2,4,2025-05-13,14
STUDY001,VS,STUDY001-SUBJ0001,17,WEIGHT,Weight,92.7,kg,92.7,92.7,kg,,WEEK 2,4,2025-05-13,14
STUDY001,VS,STUDY001-SUBJ0001,18,TEMP,Temperature,36.0,C,36.0,36.0,C,,WEEK 2,4,2025-05-13,14
STUDY001,VS,STUDY001-SUBJ0001,19,BP,Blood Pressure,146/99,mmHg,146/99,,mmHg,,WEEK 2,4,2025-05-13,14
STUDY001,VS,STUDY001-SUBJ0001,20,HR,Heart Rate,65,beats/min,65,65.0,beats/min,,WEEK 2,4,2025-05-13,14
STUDY001,VS,STUDY001-SUBJ0001,21,HEIGHT,Height,160.8,cm,160.8,160.8,cm,,WEEK 4,5,2025-05-27,28
STUDY001,VS,STUDY001-SUBJ0001,22,WEIGHT,Weight,91.4,kg,91.4,91.4,kg,,WEEK 4,5,2025-05-27,28
STUDY001,VS,STUDY001-SUBJ0001,23,TEMP,Temperature,35.9,C,35.9,35.9,C,,WEEK 4,5,2025-05-27,28
STUDY001,VS,STUDY001-SUBJ0001,24,BP,Blood Pressure,149/93,mmHg,149/93,,mmHg,,WEEK 4,5,2025-05-27,28
STUDY001,VS,STUDY001-SUBJ0001,25,HR,Heart Rate,67,beats/min,67,67.0,beats/min,,WEEK 4,5,2025-05-27,28
STUDY001,VS,STUDY001-SUBJ0001,26,HEIGHT,Height,160.8,cm,160.8,160.8,cm,,WEEK 8,6,2025-06-24,56
STUDY001,VS,STUDY001-SUBJ0001,27,WEIGHT,Weight,92.7,kg,92.7,92.7,kg,,WEEK 8,6,2025-06-24,56
STUDY001,VS,STUDY001-SUBJ0001,28,TEMP,Temperature,36.3,C,36.3,36.3,C,,WEEK 8,6,2025-06-24,56
STUDY001,VS,STUDY001-SUBJ0001,29,BP,Blood Pressure,145/94,mmHg,145/94,,mmHg,,WEEK 8,6,2025-06-24,56
STUDY001,VS,STUDY001-SUBJ0001,30,HR,Heart Rate,63,beats/min,63,63.0,beats/min,,WEEK 8,6,2025-06-24,56
STUDY001,VS,STUDY001-SUBJ0001,31,HEIGHT,Height,161.2,cm,161.2,161.2,cm,,WEEK 12,7,2025-07-22,84
STUDY001,VS,STUDY001-SUBJ0001,32,WEIGHT,Weight,92.6,kg,92.6,92.6,kg,,WEEK 12,7,2025-07-22,84
STUDY001,VS,STUDY001-SUBJ0001,33,TEMP,Temperature,36.3,C,36.3,36.3,C,,WEEK 12,7,2025-07-22,84
STUDY001,VS,STUDY001-SUBJ0001,34,BP,Blood Pressure,146/99,mmHg,146/99,,mmHg,,WEEK 12,7,2025-07-22,84
STUDY001,VS,STUDY001-SUBJ0001,35,HR,Heart Rate,67,beats/min,67,67.0,beats/min,,WEEK 12,7,2025-07-22,84
STUDY001,VS,STUDY001-SUBJ0001,36,HEIGHT,Height,161.1,cm,161.1,161.1,cm,,WEEK 16,8,2025-08-19,112
STUDY001,VS,STUDY001-SUBJ0001,37,WEIGHT,Weight,91.9,kg,91.9,91.9,kg,,WEEK 16,8,2025-08-19,112
STUDY001,VS,STUDY001-SUBJ0001,38,TEMP,Temperature,36.1,C,36.1,36.1,C,,WEEK 16,8,2025-08-19,112
STUDY001,VS,STUDY001-SUBJ0001,39,BP,Blood Pressure,151/91,mmHg,151/91,,mmHg,,WEEK 16,8,2025-08-19,112
STUDY001,VS,STUDY001-SUBJ0001,40,HR,Heart Rate,62,beats/min,62,62.0,beats/min,,WEEK 16,8,2025-08-19,112
STUDY001,VS,STUDY001-SUBJ0001,41,HEIGHT,Height,161.1,cm,161.1,161.1,cm,,END OF TREATMENT,9,2025-09-16,140
STUDY001,VS,STUDY001-SUBJ0001,42,WEIGHT,Weight,90.9,kg,90.9,90.9,kg,,END OF TREATMENT,9,2025-09-16,140
STUDY001,VS,STUDY001-SUBJ0001,43,TEMP,Temperature,36.3,C,36.3,36.3,C,,END OF TREATMENT,9,2025-09-16,140
STUDY001,VS,STUDY001-SUBJ0001,44,BP,Blood Pressure,152/97,mmHg,152/97,,mmHg,,END OF TREATMENT,9,2025-09-16,140
STUDY001,VS,STUDY001-SUBJ0001,45,HR,Heart Rate,64,beats/min,64,64.0,beats/min,,END OF TREATMENT,9,2025-09-16,140
STUDY001,VS,STUDY001-SUBJ0002,1,HEIGHT,Height,190.4,cm,190.4,190.4,cm,,SCREENING,1,2024-11-17,-14
STUDY001,VS,STUDY001-SUBJ0002,2,WEIGHT,Weight,116.5,kg,116.5,116.5,kg,,SCREENING,1,2024-11-17,-14
STUDY001,VS,STUDY001-SUBJ0002,3,TEMP,Temperature,37.1,C,37.1,37.1,C,,SCREENING,1,2024-11-17,-14
STUDY001,VS,STUDY001-SUBJ0002,4,BP,Blood Pressure,130/77,mmHg,130/77,,mmHg,,SCREENING,1,2024-11-17,-14
STUDY001,VS,STUDY001-SUBJ0002,5,HR,Heart Rate,70,beats/min,70,70.0,beats/min,,SCREENING,1,2024-11-17,-14
STUDY001,VS,STUDY001-SUBJ0002,6,HEIGHT,Height,190.3,cm,190.3,190.3,cm,Y,BASELINE,2,2024-12-01,1
STUDY001,VS,STUDY001-SUBJ0002,7,WEIGHT,Weight,117.8,kg,117.8,117.8,kg,Y,BASELINE,2,2024-12-01,1
STUDY001,VS,STUDY001-SUBJ0002,8,TEMP,Temperature,36.6,C,36.6,36.6,C,Y,BASELINE,2,2024-12-01,1
STUDY001,VS,STUDY001-SUBJ0002,9,BP,Blood Pressure,137/83,mmHg,137/83,,mmHg,Y,BASELINE,2,2024-12-01,1
STUDY001,VS,STUDY001-SUBJ0002,10,HR,Heart Rate,70,beats/min,70,70.0,beats/min,Y,BASELINE,2,2024-12-01,1
STUDY001,VS,STUDY001-SUBJ0002,11,HEIGHT,Height,190.6,cm,190.6,190.6,cm,,WEEK 1,3,2024-12-07,7
STUDY001,VS,STUDY001-SUBJ0002,12,WEIGHT,Weight,117.7,kg,117.7,117.7,kg,,WEEK 1,3,2024-12-07,7
STUDY001,VS,STUDY001-SUBJ0002,13,TEMP,Temperature,36.8,C,36.8,36.8,C,,WEEK 1,3,2024-12-07,7
STUDY001,VS,STUDY001-SUBJ0002,14,BP,Blood Pressure,137/78,mmHg,137/78,,mmHg,,WEEK 1,3,2024-12-07,7
STUDY001,VS,STUDY001-SUBJ0002,15,HR,Heart Rate,72,beats/min,72,72.0,beats/min,,WEEK 1,3,2024-12-07,7
STUDY001,VS,STUDY001-SUBJ0002,16,HEIGHT,Height,190.3,cm,190.3,190.3,cm,,WEEK 2,4,2024-12-14,14
STUDY001,VS,STUDY001-SUBJ0002,17,WEIGHT,Weight,118.0,kg,118.0,118.0,kg,,WEEK 2,4,2024-12-14,14
STUDY001,VS,STUDY001-SUBJ0002,18,TEMP,Temperature,36.8,C,36.8,36.8,C,,WEEK 2,4,2024-12-14,14
STUDY001,VS,STUDY001-SUBJ0002,19,BP,Blood Pressure,130/78,mmHg,130/78,,mmHg,,WEEK 2,4,2024-12-14,14
STUDY001,VS,STUDY001-SUBJ0002,20,HR,Heart Rate,65,beats/min,65,65.0,beats/min,,WEEK 2,4,2024-12-14,14
STUDY001,VS,STUDY001-SUBJ0002,21,HEIGHT,Height,190.5,cm,190.5,190.5,cm,,WEEK 4,5,2024-12-28,28
STUDY001,VS,STUDY001-SUBJ0002,22,WEIGHT,Weight,116.6,kg,116.6,116.6,kg,,WEEK 4,5,2024-12-28,28
STUDY001,VS,STUDY001-SUBJ0002,23,TEMP,Temperature,37.1,C,37.1,37.1,C,,WEEK 4,5,2024-12-28,28
STUDY001,VS,STUDY001-SUBJ0002,24,BP,Blood Pressure,131/77,mmHg,131/77,,mmHg,,WEEK 4,5,2024-12-28,28
STUDY001,VS,STUDY001-SUBJ0002,25,HR,Heart Rate,71,beats/min,71,71.0,beats/min,,WEEK 4,5,2024-12-28,28
STUDY001,VS,STUDY001-SUBJ0002,26,HEIGHT,Height,190.5,cm,190.5,190.5,cm,,WEEK 8,6,2025-01-25,56
STUDY001,VS,STUDY001-SUBJ0002,27,WEIGHT,Weight,116.9,kg,116.9,116.9,kg,,WEEK 8,6,2025-01-25,56
STUDY001,VS,STUDY001-SUBJ0002,28,TEMP,Temperature,36.8,C,36.8,36.8,C,,WEEK 8,6,2025-01-25,56
STUDY001,VS,STUDY001-SUBJ0002,29,BP,Blood Pressure,132/77,mmHg,132/77,,mmHg,,WEEK 8,6,2025-01-25,56
STUDY001,VS,STUDY001-SUBJ0002,30,HR,Heart Rate,72,beats/min,72,72.0,beats/min,,WEEK 8,6,2025-01-25,56
STUDY001,VS,STUDY001-SUBJ0002,31,HEIGHT,Height,190.6,cm,190.6,190.6,cm,,WEEK 12,7,2025-02-22,84
STUDY001,VS,STUDY001-SUBJ0002,32,WEIGHT,Weight,117.3,kg,117.3,117.3,kg,,WEEK 12,7,2025-02-22,84
STUDY001,VS,STUDY001-SUBJ0002,33,TEMP,Temperature,36.8,C,36.8,36.8,C,,WEEK 12,7,2025-02-22,84
STUDY001,VS,STUDY001-SUBJ0002,34,BP,Blood Pressure,131/79,mmHg,131/79,,mmHg,,WEEK 12,7,2025-02-22,84
STUDY001,VS,STUDY001-SUBJ0002,35,HR,Heart Rate,66,beats/min,66,66.0,beats/min,,WEEK 12,7,2025-02-22,84
STUDY001,VS,STUDY001-SUBJ0002,36,HEIGHT,Height,190.4,cm,190.4,190.4,cm,,WEEK 16,8,2025-03-22,112
STUDY001,VS,STUDY001-SUBJ0002,37,WEIGHT,Weight,116.2,kg,116.2,116.2,kg,,WEEK 16,8,2025-03-22,112
STUDY001,VS,STUDY001-SUBJ0002,38,TEMP,Temperature,36.5,C,36.5,36.5,C,,WEEK 16,8,2025-03-22,112
STUDY001,VS,STUDY001-SUBJ0002,39,BP,Blood Pressure,133/85,mmHg,133/85,,mmHg,,WEEK 16,8,2025-03-22,112
STUDY001,VS,STUDY001-SUBJ0002,40,HR,Heart Rate,70,beats/min,70,70.0,beats/min,,WEEK 16,8,2025-03-22,112
STUDY001,VS,STUDY001-SUBJ0002,41,HEIGHT,Height,190.3,cm,190.3,190.3,cm,,END OF TREATMENT,9,2025-04-19,140
STUDY001,VS,STUDY001-SUBJ0002,42,WEIGHT,Weight,116.2,kg,116.2,116.2,kg,,END OF TREATMENT,9,2025-04-19,140
STUDY001,VS,STUDY001-SUBJ0002,43,TEMP,Temperature,36.6,C,36.6,36.6,C,,END OF TREATMENT,9,2025-04-19,140
STUDY001,VS,STUDY001-SUBJ0002,44,BP,Blood Pressure,136/82,mmHg,136/82,,mmHg,,END OF TREATMENT,9,2025-04-19,140
STUDY001,VS,STUDY001-SUBJ0002,45,HR,Heart Rate,68,beats/min,68,68.0,beats/min,,END OF TREATMENT,9,2025-04-19,140
STUDY001,VS,STUDY001-SUBJ0003,1,HEIGHT,Height,163.8,cm,163.8,163.8,cm,,SCREENING,1,2025-06-11,-14
STUDY001,VS,STUDY001-SUBJ0003,2,WEIGHT,Weight,84.2,kg,84.2,84.2,kg,,SCREENING,1,2025-06-11,-14
STUDY001,VS,STUDY001-SUBJ0003,3,TEMP,Temperature,36.9,C,36.9,36.9,C,,SCREENING,1,2025-06-11,-14
STUDY001,VS,STUDY001-SUBJ0003,4,BP,Blood Pressure,123/91,mmHg,123/91,,mmHg,,SCREENING,1,2025-06-11,-14
STUDY001,VS,STUDY001-SUBJ0003,5,HR,Heart Rate,72,beats/min,72,72.0,beats/min,,SCREENING,1,2025-06-11,-14
STUDY001,VS,STUDY001-SUBJ0003,6,HEIGHT,Height,163.7,cm,163.7,163.7,cm,Y,BASELINE,2,2025-06-25,1
STUDY001,VS,STUDY001-SUBJ0003,7,WEIGHT,Weight,84.6,kg,84.6,84.6,kg,Y,BASELINE,2,2025-06-25,1
STUDY001,VS,STUDY001-SUBJ0003,8,TEMP,Temperature,37.0,C,37.0,37.0,C,Y,BASELINE,2,2025-06-25,1
STUDY001,VS,STUDY001-SUBJ0003,9,BP,Blood Pressure,119/95,mmHg,119/95,,mmHg,Y,BASELINE,2,2025-06-25,1
STUDY001,VS,STUDY001-SUBJ0003,10,HR,Heart Rate,72,beats/min,72,72.0,beats/min,Y,BASELINE,2,2025-06-25,1
STUDY001,VS,STUDY001-SUBJ0003,11,HEIGHT,Height,163.8,cm,163.8,163.8,cm,,WEEK 1,3,2025-07-01,7
STUDY001,VS,STUDY001-SUBJ0003,12,WEIGHT,Weight,84.1,kg,84.1,84.1,kg,,WEEK 1,3,2025-07-01,7
STUDY001,VS,STUDY001-SUBJ0003,13,TEMP,Temperature,36.7,C,36.7,36.7,C,,WEEK 1,3,2025-07-01,7
STUDY001,VS,STUDY001-SUBJ0003,14,BP,Blood Pressure,115/89,mmHg,115/89,,mmHg,,WEEK 1,3,2025-07-01,7
STUDY001,VS,STUDY001-SUBJ0003,15,HR,Heart Rate,73,beats/min,73,73.0,beats/min,,WEEK 1,3,2025-07-01,7
STUDY001,VS,STUDY001-SUBJ0003,16,HEIGHT,Height,163.8,cm,163.8,163.8,cm,,WEEK 2,4,2025-07-08,14
STUDY001,VS,STUDY001-SUBJ0003,17,WEIGHT,Weight,85.0,kg,85.0,85.0,kg,,WEEK 2,4,2025-07-08,14
STUDY001,VS,STUDY001-SUBJ0003,18,TEMP,Temperature,36.7,C,36.7,36.7,C,,WEEK 2,4,2025-07-08,14
STUDY001,VS,STUDY001-SUBJ0003,19,BP,Blood Pressure,122/92,mmHg,122/92,,mmHg,,WEEK 2,4,2025-07-08,14
STUDY001,VS,STUDY001-SUBJ0003,20,HR,Heart Rate,78,beats/min,78,78.0,beats/min,,WEEK 2,4,2025-07-08,14
STUDY001,VS,STUDY001-SUBJ0003,21,HEIGHT,Height,163.6,cm,163.6,163.6,cm,,WEEK 4,5,2025-07-22,28
STUDY001,VS,STUDY001-SUBJ0003,22,WEIGHT,Weight,85.0,kg,85.0,85.0,kg,,WEEK 4,5,2025-07-22,28
STUDY001,VS,STUDY001-SUBJ0003,23,TEMP,Temperature,36.9,C,36.9,36.9,C,,WEEK 4,5,2025-07-22,28
STUDY001,VS,STUDY001-SUBJ0003,24,BP,Blood Pressure,121/91,mmHg,121/91,,mmHg,,WEEK 4,5,2025-07-22,28
STUDY001,VS,STUDY001-SUBJ0003,25,HR,Heart Rate,72,beats/min,72,72.0,beats/min,,WEEK 4,5,2025-07-22,28
STUDY001,VS,STUDY001-SUBJ0003,26,HEIGHT,Height,163.8,cm,163.8,163.8,cm,,WEEK 8,6,2025-08-19,56
STUDY001,VS,STUDY001-SUBJ0003,27,WEIGHT,Weight,84.8,kg,84.8,84.8,kg,,WEEK 8,6,2025-08-19,56
STUDY001,VS,STUDY001-SUBJ0003,28,TEMP,Temperature,37.0,C,37.0,37.0,C,,WEEK 8,6,2025-08-19,56
STUDY001,VS,STUDY001-SUBJ0003,29,BP,Blood Pressure,116/91,mmHg,116/91,,mmHg,,WEEK 8,6,2025-08-19,56
STUDY001,VS,STUDY001-SUBJ0003,30,HR,Heart Rate,71,beats/min,71,71.0,beats/min,,WEEK 8,6,2025-08-19,56
STUDY001,VS,STUDY001-SUBJ0003,31,HEIGHT,Height,163.7,cm,163.7,163.7,cm,,WEEK 12,7,2025-09-16,84
STUDY001,VS,STUDY001-SUBJ0003,32,WEIGHT,Weight,85.2,kg,85.2,85.2,kg,,WEEK 12,7,2025-09-16,84
STUDY001,VS,STUDY001-SUBJ0003,33,TEMP,Temperature,36.5,C,36.5,36.5,C,,WEEK 12,7,2025-09-16,84
STUDY001,VS,STUDY001-SUBJ0003,34,BP,Blood Pressure,117/91,mmHg,117/91,,mmHg,,WEEK 12,7,2025-09-16,84
STUDY001,VS,STUDY001-SUBJ0003,35,HR,Heart Rate,74,beats/min,74,74.0,beats/min,,WEEK 12,7,2025-09-16,84
STUDY001,VS,STUDY001-SUBJ0003,36,HEIGHT,Height,163.8,cm,163.8,163.8,cm,,WEEK 16,8,2025-10-14,112
STUDY001,VS,STUDY001-SUBJ0003,37,WEIGHT,Weight,84.9,kg,84.9,84.9,kg,,WEEK 16,8,2025-10-14,112
STUDY001,VS,STUDY001-SUBJ0003,38,TEMP,Temperature,36.6,C,36.6,36.6,C,,WEEK 16,8,2025-10-14,112
STUDY001,VS,STUDY001-SUBJ0003,39,BP,Blood Pressure,119/95,mmHg,119/95,,mmHg,,WEEK 16,8,2025-10-14,112
STUDY001,VS,STUDY001-SUBJ0003,40,HR,Heart Rate,74,beats/min,74,74.0,beats/min,,WEEK 16,8,2025-10-14,112
STUDY001,VS,STUDY001-SUBJ0003,41,HEIGHT,Height,163.7,cm,163.7,163.7,cm,,END OF TREATMENT,9,2025-11-11,140
STUDY001,VS,STUDY001-SUBJ0003,42,WEIGHT,Weight,84.1,kg,84.1,84.1,kg,,END OF TREATMENT,9,2025-11-11,140
STUDY001,VS,STUDY001-SUBJ0003,43,TEMP,Temperature,36.9,C,36.9,36.9,C,,END OF TREATMENT,9,2025-11-11,140
STUDY001,VS,STUDY001-SUBJ0003,44,BP,Blood Pressure,120/88,mmHg,120/88,,mmHg,,END OF TREATMENT,9,2025-11-11,140
STUDY001,VS,STUDY001-SUBJ0003,45,HR,Heart Rate,72,beats/min,72,72.0,beats/min,,END OF TREATMENT,9,2025-11-11,140
STUDY001,VS,STUDY001-SUBJ0004,1,HEIGHT,Height,197.2,cm,197.2,197.2,cm,,SCREENING,1,2024-09-08,-14
STUDY001,VS,STUDY001-SUBJ0004,2,WEIGHT,Weight,98.2,kg,98.2,98.2,kg,,SCREENING,1,2024-09-08,-14
STUDY001,VS,STUDY001-SUBJ0004,3,TEMP,Temperature,36.8,C,36.8,36.8,C,,SCREENING,1,2024-09-08,-14
STUDY001,VS,STUDY001-SUBJ0004,4,BP,Blood Pressure,147/71,mmHg,147/71,,mmHg,,SCREENING,1,2024-09-08,-14
STUDY001,VS,STUDY001-SUBJ0004,5,HR,Heart Rate,59,beats/min,59,59.0,beats/min,,SCREENING,1,2024-09-08,-14
STUDY001,VS,STUDY001-SUBJ0004,6,HEIGHT,Height,197.1,cm,197.1,197.1,cm,Y,BASELINE,2,2024-09-22,1
STUDY001,VS,STUDY001-SUBJ0004,7,WEIGHT,Weight,99.2,kg,99.2,99.2,kg,Y,BASELINE,2,2024-09-22,1
STUDY001,VS,STUDY001-SUBJ0004,8,TEMP,Temperature,36.8,C,36.8,36.8,C,Y,BASELINE,2,2024-09-22,1
STUDY001,VS,STUDY001-SUBJ0004,9,BP,Blood Pressure,149/74,mmHg,149/74,,mmHg,Y,BASELINE,2,2024-09-22,1
STUDY001,VS,STUDY001-SUBJ0004,10,HR,Heart Rate,58,beats/min,58,58.0,beats/min,Y,BASELINE,2,2024-09-22,1
STUDY001,VS,STUDY001-SUBJ0004,11,HEIGHT,Height,197.2,cm,197.2,197.2,cm,,WEEK 1,3,2024-09-28,7
STUDY001,VS,STUDY001-SUBJ0004,12,WEIGHT,Weight,98.5,kg,98.5,98.5,kg,,WEEK 1,3,2024-09-28,7
STUDY001,VS,STUDY001-SUBJ0004,13,TEMP,Temperature,36.4,C,36.4,36.4,C,,WEEK 1,3,2024-09-28,7
STUDY001,VS,STUDY001-SUBJ0004,14,BP,Blood Pressure,149/78,mmHg,149/78,,mmHg,,WEEK 1,3,2024-09-28,7
STUDY001,VS,STUDY001-SUBJ0004,15,HR,Heart Rate,66,beats/min,66,66.0,beats/min,,WEEK 1,3,2024-09-28,7
STUDY001,VS,STUDY001-SUBJ0004,16,HEIGHT,Height,197.2,cm,197.2,197.2,cm,,WEEK 2,4,2024-10-05,14
STUDY001,VS,STUDY001-SUBJ0004,17,WEIGHT,Weight,99.4,kg,99.4,99.4,kg,,WEEK 2,4,2024-10-05,14
STUDY001,VS,STUDY001-SUBJ0004,18,TEMP,Temperature,36.9,C,36.9,36.9,C,,WEEK 2,4,2024-10-05,14
STUDY001,VS,STUDY001-SUBJ0004,19,BP,Blood Pressure,150/71,mmHg,150/71,,mmHg,,WEEK 2,4,2024-10-05,14
STUDY001,VS,STUDY001-SUBJ0004,20,HR,Heart Rate,63,beats/min,63,63.0,beats/min,,WEEK 2,4,2024-10-05,14
STUDY001,VS,STUDY001-SUBJ0004,21,HEIGHT,Height,197.3,cm,197.3,197.3,cm,,WEEK 4,5,2024-10-19,28
STUDY001,VS,STUDY001-SUBJ0004,22,WEIGHT,Weight,97.8,kg,97.8,97.8,kg,,WEEK 4,5,2024-10-19,28
STUDY001,VS,STUDY001-SUBJ0004,23,TEMP,Temperature,36.7,C,36.7,36.7,C,,WEEK 4,5,2024-10-19,28
STUDY001,VS,STUDY001-SUBJ0004,24,BP,Blood Pressure,143/74,mmHg,143/74,,mmHg,,WEEK 4,5,2024-10-19,28
STUDY001,VS,STUDY001-SUBJ0004,25,HR,Heart Rate,66,beats/min,66,66.0,beats/min,,WEEK 4,5,2024-10-19,28
STUDY001,VS,STUDY001-SUBJ0004,26,HEIGHT,Height,197.1,cm,197.1,197.1,cm,,WEEK 8,6,2024-11-16,56
STUDY001,VS,STUDY001-SUBJ0004,27,WEIGHT,Weight,97.8,kg,97.8,97.8,kg,,WEEK 8,6,2024-11-16,56
STUDY001,VS,STUDY001-SUBJ0004,28,TEMP,Temperature,36.7,C,36.7,36.7,C,,WEEK 8,6,2024-11-16,56
STUDY001,VS,STUDY001-SUBJ0004,29,BP,Blood Pressure,145/75,mmHg,145/75,,mmHg,,WEEK 8,6,2024-11-16,56
STUDY001,VS,STUDY001-SUBJ0004,30,HR,Heart Rate,60,beats/min,60,60.0,beats/min,,WEEK 8,6,2024-11-16,56
STUDY001,VS,STUDY001-SUBJ0004,31,HEIGHT,Height,197.3,cm,197.3,197.3,cm,,WEEK 12,7,2024-12-14,84
STUDY001,VS,STUDY001-SUBJ0004,32,WEIGHT,Weight,99.3,kg,99.3,99.3,kg,,WEEK 12,7,2024-12-14,84
STUDY001,VS,STUDY001-SUBJ0004,33,TEMP,Temperature,36.4,C,36.4,36.4,C,,WEEK 12,7,2024-12-14,84
STUDY001,VS,STUDY001-SUBJ0004,34,BP,Blood Pressure,148/76,mmHg,148/76,,mmHg,,WEEK 12,7,2024-12-14,84
STUDY001,VS,STUDY001-SUBJ0004,35,HR,Heart Rate,57,beats/min,57,57.0,beats/min,,WEEK 12,7,2024-12-14,84
STUDY001,VS,STUDY001-SUBJ0004,36,HEIGHT,Height,197.0,cm,197.0,197.0,cm,,WEEK 16,8,2025-01-11,112
STUDY001,VS,STUDY001-SUBJ0004,37,WEIGHT,Weight,98.2,kg,98.2,98.2,kg,,WEEK 16,8,2025-01-11,112
STUDY001,VS,STUDY001-SUBJ0004,38,TEMP,Temperature,36.7,C,36.7,36.7,C,,WEEK 16,8,2025-01-11,112
STUDY001,VS,STUDY001-SUBJ0004,39,BP,Blood Pressure,141/77,mmHg,141/77,,mmHg,,WEEK 16,8,2025-01-11,112
STUDY001,VS,STUDY001-SUBJ0004,40,HR,Heart Rate,65,beats/min,65,65.0,beats/min,,WEEK 16,8,2025-01-11,112
STUDY001,VS,STUDY001-SUBJ0004,41,HEIGHT,Height,197.0,cm,197.0,197.0,cm,,END OF TREATMENT,9,2025-02-08,140
STUDY001,VS,STUDY001-SUBJ0004,42,WEIGHT,Weight,97.6,kg,97.6,97.6,kg,,END OF TREATMENT,9,2025-02-08,140
STUDY001,VS,STUDY001-SUBJ0004,43,TEMP,Temperature,36.6,C,36.6,36.6,C,,END OF TREATMENT,9,2025-02-08,140
STUDY001,VS,STUDY001-SUBJ0004,44,BP,Blood Pressure,143/75,mmHg,143/75,,mmHg,,END OF TREATMENT,9,2025-02-08,140
STUDY001,VS,STUDY001-SUBJ0004,45,HR,Heart Rate,57,beats/min,57,57.0,beats/min,,END OF TREATMENT,9,2025-02-08,140
STUDY001,VS,STUDY001-SUBJ0005,1,HEIGHT,Height,193.3,cm,193.3,193.3,cm,,SCREENING,1,2025-06-08,-14
STUDY001,VS,STUDY001-SUBJ0005,2,WEIGHT,Weight,97.9,kg,97.9,97.9,kg,,SCREENING,1,2025-06-08,-14
STUDY001,VS,STUDY001-SUBJ0005,3,TEMP,Temperature,36.5,C,36.5,36.5,C,,SCREENING,1,2025-06-08,-14
STUDY001,VS,STUDY001-SUBJ0005,4,BP,Blood Pressure,110/78,mmHg,110/78,,mmHg,,SCREENING,1,2025-06-08,-14
STUDY001,VS,STUDY001-SUBJ0005,5,HR,Heart Rate,63,beats/min,63,63.0,beats/min,,SCREENING,1,2025-06-08,-14
STUDY001,VS,STUDY001-SUBJ0005,6,HEIGHT,Height,193.1,cm,193.1,193.1,cm,Y,BASELINE,2,2025-06-22,1
STUDY001,VS,STUDY001-SUBJ0005,7,WEIGHT,Weight,98.5,kg,98.5,98.5,kg,Y,BASELINE,2,2025-06-22,1
STUDY001,VS,STUDY001-SUBJ0005,8,TEMP,Temperature,36.4,C,36.4,36.4,C,Y,BASELINE,2,2025-06-22,1
STUDY001,VS,STUDY001-SUBJ0005,9,BP,Blood Pressure,105/70,mmHg,105/70,,mmHg,Y,BASELINE,2,2025-06-22,1
STUDY001,VS,STUDY001-SUBJ0005,10,HR,Heart Rate,62,beats/min,62,62.0,beats/min,Y,BASELINE,2,2025-06-22,1
STUDY001,VS,STUDY001-SUBJ0005,11,HEIGHT,Height,193.5,cm,193.5,193.5,cm,,WEEK 1,3,2025-06-28,7
STUDY001,VS,STUDY001-SUBJ0005,12,WEIGHT,Weight,97.4,kg,97.4,97.4,kg,,WEEK 1,3,2025-06-28,7
STUDY001,VS,STUDY001-SUBJ0005,13,TEMP,Temperature,36.6,C,36.6,36.6,C,,WEEK 1,3,2025-06-28,7
STUDY001,VS,STUDY001-SUBJ0005,14,BP,Blood Pressure,107/69,mmHg,107/69,,mmHg,,WEEK 1,3,2025-06-28,7
STUDY001,VS,STUDY001-SUBJ0005,15,HR,Heart Rate,66,beats/min,66,66.0,beats/min,,WEEK 1,3,2025-06-28,7
STUDY001,VS,STUDY001-SUBJ0005,16,HEIGHT,Height,193.1,cm,193.1,193.1,cm,,WEEK 2,4,2025-07-05,14
STUDY001,VS,STUDY001-SUBJ0005,17,WEIGHT,Weight,97.9,kg,97.9,97.9,kg,,WEEK 2,4,2025-07-05,14
STUDY001,VS,STUDY001-SUBJ0005,18,TEMP,Temperature,36.4,C,36.4,36.4,C,,WEEK 2,4,2025-07-05,14
STUDY001,VS,STUDY001-SUBJ0005,19,BP,Blood Pressure,106/71,mmHg,106/71,,mmHg,,WEEK 2,4,2025-07-05,14
STUDY001,VS,STUDY001-SUBJ0005,20,HR,Heart Rate,62,beats/min,62,62.0,beats/min,,WEEK 2,4,2025-07-05,14
STUDY001,VS,STUDY001-SUBJ0005,21,HEIGHT,Height,193.3,cm,193.3,193.3,cm,,WEEK 4,5,2025-07-19,28
STUDY001,VS,STUDY001-SUBJ0005,22,WEIGHT,Weight,98.9,kg,98.9,98.9,kg,,WEEK 4,5,2025-07-19,28
STUDY001,VS,STUDY001-SUBJ0005,23,TEMP,Temperature,36.7,C,36.7,36.7,C,,WEEK 4,5,2025-07-19,28
STUDY001,VS,STUDY001-SUBJ0005,24,BP,Blood Pressure,101/78,mmHg,101/78,,mmHg,,WEEK 4,5,2025-07-19,28
STUDY001,VS,STUDY001-SUBJ0005,25,HR,Heart Rate,66,beats/min,66,66.0,beats/min,,WEEK 4,5,2025-07-19,28
STUDY001,VS,STUDY001-SUBJ0005,26,HEIGHT,Height,193.3,cm,193.3,193.3,cm,,WEEK 8,6,2025-08-16,56
STUDY001,VS,STUDY001-SUBJ0005,27,WEIGHT,Weight,98.3,kg,98.3,98.3,kg,,WEEK 8,6,2025-08-16,56
STUDY001,VS,STUDY001-SUBJ0005,28,TEMP,Temperature,36.8,C,36.8,36.8,C,,WEEK 8,6,2025-08-16,56
STUDY001,VS,STUDY001-SUBJ0005,29,BP,Blood Pressure,103/77,mmHg,103/77,,mmHg,,WEEK 8,6,2025-08-16,56
STUDY001,VS,STUDY001-SUBJ0005,30,HR,Heart Rate,65,beats/min,65,65.0,beats/min,,WEEK 8,6,2025-08-16,56
STUDY001,VS,STUDY001-SUBJ0005,31,HEIGHT,Height,193.2,cm,193.2,193.2,cm,,WEEK 12,7,2025-09-13,84
STUDY001,VS,STUDY001-SUBJ0005,32,WEIGHT,Weight,97.7,kg,97.7,97.7,kg,,WEEK 12,7,2025-09-13,84
STUDY001,VS,STUDY001-SUBJ0005,33,TEMP,Temperature,36.8,C,36.8,36.8,C,,WEEK 12,7,2025-09-13,84
STUDY001,VS,STUDY001-SUBJ0005,34,BP,Blood Pressure,110/70,mmHg,110/70,,mmHg,,WEEK 12,7,2025-09-13,84
STUDY001,VS,STUDY001-SUBJ0005,35,HR,Heart Rate,63,beats/min,63,63.0,beats/min,,WEEK 12,7,2025-09-13,84
STUDY001,VS,STUDY001-SUBJ0005,36,HEIGHT,Height,193.2,cm,193.2,193.2,cm,,WEEK 16,8,2025-10-11,112
STUDY001,VS,STUDY001-SUBJ0005,37,WEIGHT,Weight,96.9,kg,96.9,96.9,kg,,WEEK 16,8,2025-10-11,112
STUDY001,VS,STUDY001-SUBJ0005,38,TEMP,Temperature,36.5,C,36.5,36.5,C,,WEEK 16,8,2025-10-11,112
STUDY001,VS,STUDY001-SUBJ0005,39,BP,Blood Pressure,109/69,mmHg,109/69,,mmHg,,WEEK 16,8,2025-10-11,112
STUDY001,VS,STUDY001-SUBJ0005,40,HR,Heart Rate,61,beats/min,61,61.0,beats/min,,WEEK 16,8,2025-10-11,112
STUDY001,VS,STUDY001-SUBJ0005,41,HEIGHT,Height,193.2,cm,193.2,193.2,cm,,END OF TREATMENT,9,2025-11-08,140
STUDY001,VS,STUDY001-SUBJ0005,42,WEIGHT,Weight,98.7,kg,98.7,98.7,kg,,END OF TREATMENT,9,2025-11-08,140
STUDY001,VS,STUDY001-SUBJ0005,43,TEMP,Temperature,36.8,C,36.8,36.8,C,,END OF TREATMENT,9,2025-11-08,140
STUDY001,VS,STUDY001-SUBJ0005,44,BP,Blood Pressure,103/73,mmHg,103/73,,mmHg,,END OF TREATMENT,9,2025-11-08,140
STUDY001,VS,STUDY001-SUBJ0005,45,HR,Heart Rate,65,beats/min,65,65.0,beats/min,,END OF TREATMENT,9,2025-11-08,140
STUDY001,VS,STUDY001-SUBJ0006,1,HEIGHT,Height,191.0,cm,191.0,191.0,cm,,SCREENING,1,2024-09-23,-14
STUDY001,VS,STUDY001-SUBJ0006,2,WEIGHT,Weight,74.5,kg,74.5,74.5,kg,,SCREENING,1,2024-09-23,-14
STUDY001,VS,STUDY001-SUBJ0006,3,TEMP,Temperature,36.2,C,36.2,36.2,C,,SCREENING,1,2024-09-23,-14
STUDY001,VS,STUDY001-SUBJ0006,4,BP,Blood Pressure,137/79,mmHg,137/79,,mmHg,,SCREENING,1,2024-09-23,-14
STUDY001,VS,STUDY001-SUBJ0006,5,HR,Heart Rate,61,beats/min,61,61.0,beats/min,,SCREENING,1,2024-09-23,-14
STUDY001,VS,STUDY001-SUBJ0006,6,HEIGHT,Height,191.0,cm,191.0,191.0,cm,Y,BASELINE,2,2024-10-07,1
STUDY001,VS,STUDY001-SUBJ0006,7,WEIGHT,Weight,74.0,kg,74.0,74.0,kg,Y,BASELINE,2,2024-10-07,1
STUDY001,VS,STUDY001-SUBJ0006,8,TEMP,Temperature,36.4,C,36.4,36.4,C,Y,BASELINE,2,2024-10-07,1
STUDY001,VS,STUDY001-SUBJ0006,9,BP,Blood Pressure,129/71,mmHg,129/71,,mmHg,Y,BASELINE,2,2024-10-07,1
STUDY001,VS,STUDY001-SUBJ0006,10,HR,Heart Rate,62,beats/min,62,62.0,beats/min,Y,BASELINE,2,2024-10-07,1
STUDY001,VS,STUDY001-SUBJ0006,11,HEIGHT,Height,191.0,cm,191.0,191.0,cm,,WEEK 1,3,2024-10-13,7
STUDY001,VS,STUDY001-SUBJ0006,12,WEIGHT,Weight,73.0,kg,73.0,73.0,kg,,WEEK 1,3,2024-10-13,7
STUDY001,VS,STUDY001-SUBJ0006,13,TEMP,Temperature,36.4,C,36.4,36.4,C,,WEEK 1,3,2024-10-13,7
STUDY001,VS,STUDY001-SUBJ0006,14,BP,Blood Pressure,132/78,mmHg,132/78,,mmHg,,WEEK 1,3,2024-10-13,7
STUDY001,VS,STUDY001-SUBJ0006,15,HR,Heart Rate,62,beats/min,62,62.0,beats/min,,WEEK 1,3,2024-10-13,7
STUDY001,VS,STUDY001-SUBJ0006,16,HEIGHT,Height,191.0,cm,191.0,191.0,cm,,WEEK 2,4,2024-10-20,14
STUDY001,VS,STUDY001-SUBJ0006,17,WEIGHT,Weight,74.3,kg,74.3,74.3,kg,,WEEK 2,4,2024-10-20,14
STUDY001,VS,STUDY001-SUBJ0006,18,TEMP,Temperature,36.4,C,36.4,36.4,C,,WEEK 2,4,2024-10-20,14
STUDY001,VS,STUDY001-SUBJ0006,19,BP,Blood Pressure,130/75,mmHg,130/75,,mmHg,,WEEK 2,4,2024-10-20,14
STUDY001,VS,STUDY001-SUBJ0006,20,HR,Heart Rate,69,beats/min,69,69.0,beats/min,,WEEK 2,4,2024-10-20,14
STUDY001,VS,STUDY001-SUBJ0006,21,HEIGHT,Height,191.2,cm,191.2,191.2,cm,,WEEK 4,5,2024-11-03,28
STUDY001,VS,STUDY001-SUBJ0006,22,WEIGHT,Weight,73.0,kg,73.0,73.0,kg,,WEEK 4,5,2024-11-03,28
STUDY001,VS,STUDY001-SUBJ0006,23,TEMP,Temperature,36.6,C,36.6,36.6,C,,WEEK 4,5,2024-11-03,28
STUDY001,VS,STUDY001-SUBJ0006,24,BP,Blood Pressure,136/76,mmHg,136/76,,mmHg,,WEEK 4,5,2024-11-03,28
STUDY001,VS,STUDY001-SUBJ0006,25,HR,Heart Rate,69,beats/min,69,69.0,beats/min,,WEEK 4,5,2024-11-03,28
STUDY001,VS,STUDY001-SUBJ0006,26,HEIGHT,Height,190.9,cm,190.9,190.9,cm,,WEEK 8,6,2024-12-01,56
STUDY001,VS,STUDY001-SUBJ0006,27,WEIGHT,Weight,73.9,kg,73.9,73.9,kg,,WEEK 8,6,2024-12-01,56
STUDY001,VS,STUDY001-SUBJ0006,28,TEMP,Temperature,36.7,C,36.7,36.7,C,,WEEK 8,6,2024-12-01,56
STUDY001,VS,STUDY001-SUBJ0006,29,BP,Blood Pressure,132/78,mmHg,132/78,,mmHg,,WEEK 8,6,2024-12-01,56
STUDY001,VS,STUDY001-SUBJ0006,30,HR,Heart Rate,65,beats/min,65,65.0,beats/min,,WEEK 8,6,2024-12-01,56
STUDY001,VS,STUDY001-SUBJ0006,31,HEIGHT,Height,191.1,cm,191.1,191.1,cm,,WEEK 12,7,2024-12-29,84
STUDY001,VS,STUDY001-SUBJ0006,32,WEIGHT,Weight,75.0,kg,75.0,75.0,kg,,WEEK 12,7,2024-12-29,84
STUDY001,VS,STUDY001-SUBJ0006,33,TEMP,Temperature,36.5,C,36.5,36.5,C,,WEEK 12,7,2024-12-29,84
STUDY001,VS,STUDY001-SUBJ0006,34,BP,Blood Pressure,137/72,mmHg,137/72,,mmHg,,WEEK 12,7,2024-12-29,84
STUDY001,VS,STUDY001-SUBJ0006,35,HR,Heart Rate,69,beats/min,69,69.0,beats/min,,WEEK 12,7,2024-12-29,84
STUDY001,VS,STUDY001-SUBJ0006,36,HEIGHT,Height,190.8,cm,190.8,190.8,cm,,WEEK 16,8,2025-01-26,112
STUDY001,VS,STUDY001-SUBJ0006,37,WEIGHT,Weight,74.2,kg,74.2,74.2,kg,,WEEK 16,8,2025-01-26,112
STUDY001,VS,STUDY001-SUBJ0006,38,TEMP,Temperature,36.7,C,36.7,36.7,C,,WEEK 16,8,2025-01-26,112
STUDY001,VS,STUDY001-SUBJ0006,39,BP,Blood Pressure,131/69,mmHg,131/69,,mmHg,,WEEK 16,8,2025-01-26,112
STUDY001,VS,STUDY001-SUBJ0006,40,HR,Heart Rate,61,beats/min,61,61.0,beats/min,,WEEK 16,8,2025-01-26,112
STUDY001,VS,STUDY001-SUBJ0006,41,HEIGHT,Height,190.9,cm,190.9,190.9,cm,,END OF TREATMENT,9,2025-02-23,140
STUDY001,VS,STUDY001-SUBJ0006,42,WEIGHT,Weight,73.6,kg,73.6,73.6,kg,,END OF TREATMENT,9,2025-02-23,140
STUDY001,VS,STUDY001-SUBJ0006,43,TEMP,Temperature,36.4,C,36.4,36.4,C,,END OF TREATMENT,9,2025-02-23,140
STUDY001,VS,STUDY001-SUBJ0006,44,BP,Blood Pressure,137/75,mmHg,137/75,,mmHg,,END OF TREATMENT,9,2025-02-23,140
STUDY001,VS,STUDY001-SUBJ0006,45,HR,Heart Rate,62,beats/min,62,62.0,beats/min,,END OF TREATMENT,9,2025-02-23,140
STUDY001,VS,STUDY001-SUBJ0007,1,HEIGHT,Height,198.2,cm,198.2,198.2,cm,,SCREENING,1,2025-03-13,-14
STUDY001,VS,STUDY001-SUBJ0007,2,WEIGHT,Weight,92.7,kg,92.7,92.7,kg,,SCREENING,1,2025-03-13,-14
STUDY001,VS,STUDY001-SUBJ0007,3,TEMP,Temperature,37.2,C,37.2,37.2,C,,SCREENING,1,2025-03-13,-14
STUDY001,VS,STUDY001-SUBJ0007,4,BP,Blood Pressure,99/76,mmHg,99/76,,mmHg,,SCREENING,1,2025-03-13,-14
STUDY001,VS,STUDY001-SUBJ0007,5,HR,Heart Rate,83,beats/min,83,83.0,beats/min,,SCREENING,1,2025-03-13,-14
STUDY001,VS,STUDY001-SUBJ0007,6,HEIGHT,Height,198.1,cm,198.1,198.1,cm,Y,BASELINE,2,2025-03-27,1
STUDY001,VS,STUDY001-SUBJ0007,7,WEIGHT,Weight,90.7,kg,90.7,90.7,kg,Y,BASELINE,2,2025-03-27,1
STUDY001,VS,STUDY001-SUBJ0007,8,TEMP,Temperature,36.8,C,36.8,36.8,C,Y,BASELINE,2,2025-03-27,1
STUDY001,VS,STUDY001-SUBJ0007,9,BP,Blood Pressure,102/77,mmHg,102/77,,mmHg,Y,BASELINE,2,2025-03-27,1
STUDY001,VS,STUDY001-SUBJ0007,10,HR,Heart Rate,85,beats/min,85,85.0,beats/min,Y,BASELINE,2,2025-03-27,1
STUDY001,VS,STUDY001-SUBJ0007,11,HEIGHT,Height,198.0,cm,198.0,198.0,cm,,WEEK 1,3,2025-04-02,7
STUDY001,VS,STUDY001-SUBJ0007,12,WEIGHT,Weight,92.5,kg,92.5,92.5,kg,,WEEK 1,3,2025-04-02,7
STUDY001,VS,STUDY001-SUBJ0007,13,TEMP,Temperature,36.8,C,36.8,36.8,C,,WEEK 1,3,2025-04-02,7
STUDY001,VS,STUDY001-SUBJ0007,14,BP,Blood Pressure,102/76,mmHg,102/76,,mmHg,,WEEK 1,3,2025-04-02,7
STUDY001,VS,STUDY001-SUBJ0007,15,HR,Heart Rate,80,beats/min,80,80.0,beats/min,,WEEK 1,3,2025-04-02,7
STUDY001,VS,STUDY001-SUBJ0007,16,HEIGHT,Height,198.0,cm,198.0,198.0,cm,,WEEK 2,4,2025-04-09,14
STUDY001,VS,STUDY001-SUBJ0007,17,WEIGHT,Weight,91.4,kg,91.4,91.4,kg,,WEEK 2,4,2025-04-09,14
STUDY001,VS,STUDY001-SUBJ0007,18,TEMP,Temperature,36.9,C,36.9,36.9,C,,WEEK 2,4,2025-04-09,14
STUDY001,VS,STUDY001-SUBJ0007,19,BP,Blood Pressure,100/72,mmHg,100/72,,mmHg,,WEEK 2,4,2025-04-09,14
STUDY001,VS,STUDY001-SUBJ0007,20,HR,Heart Rate,84,beats/min,84,84.0,beats/min,,WEEK 2,4,2025-04-09,14
STUDY001,VS,STUDY001-SUBJ0007,21,HEIGHT,Height,198.2,cm,198.2,198.2,cm,,WEEK 4,5,2025-04-23,28
STUDY001,VS,STUDY001-SUBJ0007,22,WEIGHT,Weight,92.3,kg,92.3,92.3,kg,,WEEK 4,5,2025-04-23,28
STUDY001,VS,STUDY001-SUBJ0007,23,TEMP,Temperature,37.3,C,37.3,37.3,C,,WEEK 4,5,2025-04-23,28
STUDY001,VS,STUDY001-SUBJ0007,24,BP,Blood Pressure,103/77,mmHg,103/77,,mmHg,,WEEK 4,5,2025-04-23,28
STUDY001,VS,STUDY001-SUBJ0007,25,HR,Heart Rate,81,beats/min,81,81.0,beats/min,,WEEK 4,5,2025-04-23,28
STUDY001,VS,STUDY001-SUBJ0007,26,HEIGHT,Height,198.1,cm,198.1,198.1,cm,,WEEK 8,6,2025-05-21,56
STUDY001,VS,STUDY001-SUBJ0007,27,WEIGHT,Weight,91.7,kg,91.7,91.7,kg,,WEEK 8,6,2025-05-21,56
STUDY001,VS,STUDY001-SUBJ0007,28,TEMP,Temperature,36.7,C,36.7,36.7,C,,WEEK 8,6,2025-05-21,56
STUDY001,VS,STUDY001-SUBJ0007,29,BP,Blood Pressure,105/73,mmHg,105/73,,mmHg,,WEEK 8,6,2025-05-21,56
STUDY001,VS,STUDY001-SUBJ0007,30,HR,Heart Rate,79,beats/min,79,79.0,beats/min,,WEEK 8,6,2025-05-21,56
STUDY001,VS,STUDY001-SUBJ0007,31,HEIGHT,Height,198.3,cm,198.3,198.3,cm,,WEEK 12,7,2025-06-18,84
STUDY001,VS,STUDY001-SUBJ0007,32,WEIGHT,Weight,92.2,kg,92.2,92.2,kg,,WEEK 12,7,2025-06-18,84
STUDY001,VS,STUDY001-SUBJ0007,33,TEMP,Temperature,36.8,C,36.8,36.8,C,,WEEK 12,7,2025-06-18,84
STUDY001,VS,STUDY001-SUBJ0007,34,BP,Blood Pressure,108/80,mmHg,108/80,,mmHg,,WEEK 12,7,2025-06-18,84
STUDY001,VS,STUDY001-SUBJ0007,35,HR,Heart Rate,82,beats/min,82,82.0,beats/min,,WEEK 12,7,2025-06-18,84
STUDY001,VS,STUDY001-SUBJ0007,36,HEIGHT,Height,198.2,cm,198.2,198.2,cm,,WEEK 16,8,2025-07-16,112
STUDY001,VS,STUDY001-SUBJ0007,37,WEIGHT,Weight,91.8,kg,91.8,91.8,kg,,WEEK 16,8,2025-07-16,112
STUDY001,VS,STUDY001-SUBJ0007,38,TEMP,Temperature,37.3,C,37.3,37.3,C,,WEEK 16,8,2025-07-16,112
STUDY001,VS,STUDY001-SUBJ0007,39,BP,Blood Pressure,108/71,mmHg,108/71,,mmHg,,WEEK 16,8,2025-07-16,112
STUDY001,VS,STUDY001-SUBJ0007,40,HR,Heart Rate,82,beats/min,82,82.0,beats/min,,WEEK 16,8,2025-07-16,112
STUDY001,VS,STUDY001-SUBJ0007,41,HEIGHT,Height,198.2,cm,198.2,198.2,cm,,END OF TREATMENT,9,2025-08-13,140
STUDY001,VS,STUDY001-SUBJ0007,42,WEIGHT,Weight,92.3,kg,92.3,92.3,kg,,END OF TREATMENT,9,2025-08-13,140
STUDY001,VS,STUDY001-SUBJ0007,43,TEMP,Temperature,37.0,C,37.0,37.0,C,,END OF TREATMENT,9,2025-08-13,140
STUDY001,VS,STUDY001-SUBJ0007,44,BP,Blood Pressure,106/75,mmHg,106/75,,mmHg,,END OF TREATMENT,9,2025-08-13,140
STUDY001,VS,STUDY001-SUBJ0007,45,HR,Heart Rate,78,beats/min,78,78.0,beats/min,,END OF TREATMENT,9,2025-08-13,140
STUDY001,VS,STUDY001-SUBJ0008,1,HEIGHT,Height,162.7,cm,162.7,162.7,cm,,SCREENING,1,2025-01-08,-14
STUDY001,VS,STUDY001-SUBJ0008,2,WEIGHT,Weight,110.5,kg,110.5,110.5,kg,,SCREENING,1,2025-01-08,-14
STUDY001,VS,STUDY001-SUBJ0008,3,TEMP,Temperature,36.5,C,36.5,36.5,C,,SCREENING,1,2025-01-08,-14
STUDY001,VS,STUDY001-SUBJ0008,4,BP,Blood Pressure,102/89,mmHg,102/89,,mmHg,,SCREENING,1,2025-01-08,-14
STUDY001,VS,STUDY001-SUBJ0008,5,HR,Heart Rate,75,beats/min,75,75.0,beats/min,,SCREENING,1,2025-01-08,-14
STUDY001,VS,STUDY001-SUBJ0008,6,HEIGHT,Height,162.8,cm,162.8,162.8,cm,Y,BASELINE,2,2025-01-22,1
STUDY001,VS,STUDY001-SUBJ0008,7,WEIGHT,Weight,110.3,kg,110.3,110.3,kg,Y,BASELINE,2,2025-01-22,1
STUDY001,VS,STUDY001-SUBJ0008,8,TEMP,Temperature,36.6,C,36.6,36.6,C,Y,BASELINE,2,2025-01-22,1
STUDY001,VS,STUDY001-SUBJ0008,9,BP,Blood Pressure,106/84,mmHg,106/84,,mmHg,Y,BASELINE,2,2025-01-22,1
STUDY001,VS,STUDY001-SUBJ0008,10,HR,Heart Rate,66,beats/min,66,66.0,beats/min,Y,BASELINE,2,2025-01-22,1
STUDY001,VS,STUDY001-SUBJ0008,11,HEIGHT,Height,162.8,cm,162.8,162.8,cm,,WEEK 1,3,2025-01-28,7
STUDY001,VS,STUDY001-SUBJ0008,12,WEIGHT,Weight,111.4,kg,111.4,111.4,kg,,WEEK 1,3,2025-01-28,7
STUDY001,VS,STUDY001-SUBJ0008,13,TEMP,Temperature,36.4,C,36.4,36.4,C,,WEEK 1,3,2025-01-28,7
STUDY001,VS,STUDY001-SUBJ0008,14,BP,Blood Pressure,105/79,mmHg,105/79,,mmHg,,WEEK 1,3,2025-01-28,7
STUDY001,VS,STUDY001-SUBJ0008,15,HR,Heart Rate,71,beats/min,71,71.0,beats/min,,WEEK 1,3,2025-01-28,7
STUDY001,VS,STUDY001-SUBJ0008,16,HEIGHT,Height,162.9,cm,162.9,162.9,cm,,WEEK 2,4,2025-02-04,14
STUDY001,VS,STUDY001-SUBJ0008,17,WEIGHT,Weight,111.1,kg,111.1,111.1,kg,,WEEK 2,4,2025-02-04,14
STUDY001,VS,STUDY001-SUBJ0008,18,TEMP,Temperature,36.5,C,36.5,36.5,C,,WEEK 2,4,2025-02-04,14
STUDY001,VS,STUDY001-SUBJ0008,19,BP,Blood Pressure,107/85,mmHg,107/85,,mmHg,,WEEK 2,4,2025-02-04,14
STUDY001,VS,STUDY001-SUBJ0008,20,HR,Heart Rate,73,beats/min,73,73.0,beats/min,,WEEK 2,4,2025-02-04,14
STUDY001,VS,STUDY001-SUBJ0008,21,HEIGHT,Height,162.8,cm,162.8,162.8,cm,,WEEK 4,5,2025-02-18,28
STUDY001,VS,STUDY001-SUBJ0008,22,WEIGHT,Weight,110.5,kg,110.5,110.5,kg,,WEEK 4,5,2025-02-18,28
STUDY001,VS,STUDY001-SUBJ0008,23,TEMP,Temperature,36.5,C,36.5,36.5,C,,WEEK 4,5,2025-02-18,28
STUDY001,VS,STUDY001-SUBJ0008,24,BP,Blood Pressure,103/88,mmHg,103/88,,mmHg,,WEEK 4,5,2025-02-18,28
STUDY001,VS,STUDY001-SUBJ0008,25,HR,Heart Rate,70,beats/min,70,70.0,beats/min,,WEEK 4,5,2025-02-18,28
STUDY001,VS,STUDY001-SUBJ0008,26,HEIGHT,Height,162.5,cm,162.5,162.5,cm,,WEEK 8,6,2025-03-18,56
STUDY001,VS,STUDY001-SUBJ0008,27,WEIGHT,Weight,111.5,kg,111.5,111.5,kg,,WEEK 8,6,2025-03-18,56
STUDY001,VS,STUDY001-SUBJ0008,28,TEMP,Temperature,36.4,C,36.4,36.4,C,,WEEK 8,6,2025-03-18,56
STUDY001,VS,STUDY001-SUBJ0008,29,BP,Blood Pressure,101/82,mmHg,101/82,,mmHg,,WEEK 8,6,2025-03-18,56
STUDY001,VS,STUDY001-SUBJ0008,30,HR,Heart Rate,72,beats/min,72,72.0,beats/min,,WEEK 8,6,2025-03-18,56
STUDY001,VS,STUDY001-SUBJ0008,31,HEIGHT,Height,162.8,cm,162.8,162.8,cm,,WEEK 12,7,2025-04-15,84
STUDY001,VS,STUDY001-SUBJ0008,32,WEIGHT,Weight,111.2,kg,111.2,111.2,kg,,WEEK 12,7,2025-04-15,84
STUDY001,VS,STUDY001-SUBJ0008,33,TEMP,Temperature,36.4,C,36.4,36.4,C,,WEEK 12,7,2025-04-15,84
STUDY001,VS,STUDY001-SUBJ0008,34,BP,Blood Pressure,109/81,mmHg,109/81,,mmHg,,WEEK 12,7,2025-04-15,84
STUDY001,VS,STUDY001-SUBJ0008,35,HR,Heart Rate,72,beats/min,72,72.0,beats/min,,WEEK 12,7,2025-04-15,84
STUDY001,VS,STUDY001-SUBJ0008,36,HEIGHT,Height,162.8,cm,162.8,162.8,cm,,WEEK 16,8,2025-05-13,112
STUDY001,VS,STUDY001-SUBJ0008,37,WEIGHT,Weight,110.0,kg,110.0,110.0,kg,,WEEK 16,8,2025-05-13,112
STUDY001,VS,STUDY001-SUBJ0008,38,TEMP,Temperature,36.2,C,36.2,36.2,C,,WEEK 16,8,2025-05-13,112
STUDY001,VS,STUDY001-SUBJ0008,39,BP,Blood Pressure,106/81,mmHg,106/81,,mmHg,,WEEK 16,8,2025-05-13,112
STUDY001,VS,STUDY001-SUBJ0008,40,HR,Heart Rate,74,beats/min,74,74.0,beats/min,,WEEK 16,8,2025-05-13,112
STUDY001,VS,STUDY001-SUBJ0008,41,HEIGHT,Height,162.8,cm,162.8,162.8,cm,,END OF TREATMENT,9,2025-06-10,140
STUDY001,VS,STUDY001-SUBJ0008,42,WEIGHT,Weight,110.0,kg,110.0,110.0,kg,,END OF TREATMENT,9,2025-06-10,140
STUDY001,VS,STUDY001-SUBJ0008,43,TEMP,Temperature,36.2,C,36.2,36.2,C,,END OF TREATMENT,9,2025-06-10,140
STUDY001,VS,STUDY001-SUBJ0008,44,BP,Blood Pressure,105/84,mmHg,105/84,,mmHg,,END OF TREATMENT,9,2025-06-10,140
STUDY001,VS,STUDY001-SUBJ0008,45,HR,Heart Rate,74,beats/min,74,74.0,beats/min,,END OF TREATMENT,9,2025-06-10,140
STUDY001,VS,STUDY001-SUBJ0009,1,HEIGHT,Height,181.2,cm,181.2,181.2,cm,,SCREENING,1,2025-03-02,-14
STUDY001,VS,STUDY001-SUBJ0009,2,WEIGHT,Weight,75.0,kg,75.0,75.0,kg,,SCREENING,1,2025-03-02,-14
STUDY001,VS,STUDY001-SUBJ0009,3,TEMP,Temperature,36.9,C,36.9,36.9,C,,SCREENING,1,2025-03-02,-14
STUDY001,VS,STUDY001-SUBJ0009,4,BP,Blood Pressure,132/89,mmHg,132/89,,mmHg,,SCREENING,1,2025-03-02,-14
STUDY001,VS,STUDY001-SUBJ0009,5,HR,Heart Rate,82,beats/min,82,82.0,beats/min,,SCREENING,1,2025-03-02,-14
STUDY001,VS,STUDY001-SUBJ0009,6,HEIGHT,Height,181.1,cm,181.1,181.1,cm,Y,BASELINE,2,2025-03-16,1
STUDY001,VS,STUDY001-SUBJ0009,7,WEIGHT,Weight,75.8,kg,75.8,75.8,kg,Y,BASELINE,2,2025-03-16,1
STUDY001,VS,STUDY001-SUBJ0009,8,TEMP,Temperature,36.9,C,36.9,36.9,C,Y,BASELINE,2,2025-03-16,1
STUDY001,VS,STUDY001-SUBJ0009,9,BP,Blood Pressure,140/85,mmHg,140/85,,mmHg,Y,BASELINE,2,2025-03-16,1
STUDY001,VS,STUDY001-SUBJ0009,10,HR,Heart Rate,87,beats/min,87,87.0,beats/min,Y,BASELINE,2,2025-03-16,1
STUDY001,VS,STUDY001-SUBJ0009,11,HEIGHT,Height,181.2,cm,181.2,181.2,cm,,WEEK 1,3,2025-03-22,7
STUDY001,VS,STUDY001-SUBJ0009,12,WEIGHT,Weight,74.9,kg,74.9,74.9,kg,,WEEK 1,3,2025-03-22,7
STUDY001,VS,STUDY001-SUBJ0009,13,TEMP,Temperature,36.9,C,36.9,36.9,C,,WEEK 1,3,2025-03-22,7
STUDY001,VS,STUDY001-SUBJ0009,14,BP,Blood Pressure,137/82,mmHg,137/82,,mmHg,,WEEK 1,3,2025-03-22,7
STUDY001,VS,STUDY001-SUBJ0009,15,HR,Heart Rate,79,beats/min,79,79.0,beats/min,,WEEK 1,3,2025-03-22,7
STUDY001,VS,STUDY001-SUBJ0009,16,HEIGHT,Height,181.1,cm,181.1,181.1,cm,,WEEK 2,4,2025-03-29,14
STUDY001,VS,STUDY001-SUBJ0009,17,WEIGHT,Weight,75.6,kg,75.6,75.6,kg,,WEEK 2,4,2025-03-29,14
STUDY001,VS,STUDY001-SUBJ0009,18,TEMP,Temperature,36.6,C,36.6,36.6,C,,WEEK 2,4,2025-03-29,14
STUDY001,VS,STUDY001-SUBJ0009,19,BP,Blood Pressure,133/83,mmHg,133/83,,mmHg,,WEEK 2,4,2025-03-29,14
STUDY001,VS,STUDY001-SUBJ0009,20,HR,Heart Rate,88,beats/min,88,88.0,beats/min,,WEEK 2,4,2025-03-29,14
STUDY001,VS,STUDY001-SUBJ0009,21,HEIGHT,Height,181.1,cm,181.1,181.1,cm,,WEEK 4,5,2025-04-12,28
STUDY001,VS,STUDY001-SUBJ0009,22,WEIGHT,Weight,74.9,kg,74.9,74.9,kg,,WEEK 4,5,2025-04-12,28
STUDY001,VS,STUDY001-SUBJ0009,23,TEMP,Temperature,36.8,C,36.8,36.8,C,,WEEK 4,5,2025-04-12,28
STUDY001,VS,STUDY001-SUBJ0009,24,BP,Blood Pressure,139/87,mmHg,139/87,,mmHg,,WEEK 4,5,2025-04-12,28
STUDY001,VS,STUDY001-SUBJ0009,25,HR,Heart Rate,82,beats/min,82,82.0,beats/min,,WEEK 4,5,2025-04-12,28
STUDY001,VS,STUDY001-SUBJ0009,26,HEIGHT,Height,181.0,cm,181.0,181.0,cm,,WEEK 8,6,2025-05-10,56
STUDY001,VS,STUDY001-SUBJ0009,27,WEIGHT,Weight,75.3,kg,75.3,75.3,kg,,WEEK 8,6,2025-05-10,56
STUDY001,VS,STUDY001-SUBJ0009,28,TEMP,Temperature,37.0,C,37.0,37.0,C,,WEEK 8,6,2025-05-10,56
STUDY001,VS,STUDY001-SUBJ0009,29,BP,Blood Pressure,140/87,mmHg,140/87,,mmHg,,WEEK 8,6,2025-05-10,56
STUDY001,VS,STUDY001-SUBJ0009,30,HR,Heart Rate,88,beats/min,88,88.0,beats/min,,WEEK 8,6,2025-05-10,56
STUDY001,VS,STUDY001-SUBJ0009,31,HEIGHT,Height,181.1,cm,181.1,181.1,cm,,WEEK 12,7,2025-06-07,84
STUDY001,VS,STUDY001-SUBJ0009,32,WEIGHT,Weight,75.8,kg,75.8,75.8,kg,,WEEK 12,7,2025-06-07,84
STUDY001,VS,STUDY001-SUBJ0009,33,TEMP,Temperature,37.1,C,37.1,37.1,C,,WEEK 12,7,2025-06-07,84
STUDY001,VS,STUDY001-SUBJ0009,34,BP,Blood Pressure,139/82,mmHg,139/82,,mmHg,,WEEK 12,7,2025-06-07,84
STUDY001,VS,STUDY001-SUBJ0009,35,HR,Heart Rate,83,beats/min,83,83.0,beats/min,,WEEK 12,7,2025-06-07,84
STUDY001,VS,STUDY001-SUBJ0009,36,HEIGHT,Height,181.4,cm,181.4,181.4,cm,,WEEK 16,8,2025-07-05,112
STUDY001,VS,STUDY001-SUBJ0009,37,WEIGHT,Weight,74.6,kg,74.6,74.6,kg,,WEEK 16,8,2025-07-05,112
STUDY001,VS,STUDY001-SUBJ0009,38,TEMP,Temperature,36.7,C,36.7,36.7,C,,WEEK 16,8,2025-07-05,112
STUDY001,VS,STUDY001-SUBJ0009,39,BP,Blood Pressure,140/88,mmHg,140/88,,mmHg,,WEEK 16,8,2025-07-05,112
STUDY001,VS,STUDY001-SUBJ0009,40,HR,Heart Rate,80,beats/min,80,80.0,beats/min,,WEEK 16,8,2025-07-05,112
STUDY001,VS,STUDY001-SUBJ0009,41,HEIGHT,Height,181.3,cm,181.3,181.3,cm,,END OF TREATMENT,9,2025-08-02,140
STUDY001,VS,STUDY001-SUBJ0009,42,WEIGHT,Weight,74.1,kg,74.1,74.1,kg,,END OF TREATMENT,9,2025-08-02,140
STUDY001,VS,STUDY001-SUBJ0009,43,TEMP,Temperature,37.2,C,37.2,37.2,C,,END OF TREATMENT,9,2025-08-02,140
STUDY001,VS,STUDY001-SUBJ0009,44,BP,Blood Pressure,140/81,mmHg,140/81,,mmHg,,END OF TREATMENT,9,2025-08-02,140
STUDY001,VS,STUDY001-SUBJ0009,45,HR,Heart Rate,79,beats/min,79,79.0,beats/min,,END OF TREATMENT,9,2025-08-02,140
STUDY001,VS,STUDY001-SUBJ0010,1,HEIGHT,Height,152.7,cm,152.7,152.7,cm,,SCREENING,1,2025-04-02,-14
STUDY001,VS,STUDY001-SUBJ0010,2,WEIGHT,Weight,113.4,kg,113.4,113.4,kg,,SCREENING,1,2025-04-02,-14
STUDY001,VS,STUDY001-SUBJ0010,3,TEMP,Temperature,36.5,C,36.5,36.5,C,,SCREENING,1,2025-04-02,-14
STUDY001,VS,STUDY001-SUBJ0010,4,BP,Blood Pressure,131/101,mmHg,131/101,,mmHg,,SCREENING,1,2025-04-02,-14
STUDY001,VS,STUDY001-SUBJ0010,5,HR,Heart Rate,79,beats/min,79,79.0,beats/min,,SCREENING,1,2025-04-02,-14
STUDY001,VS,STUDY001-SUBJ0010,6,HEIGHT,Height,152.9,cm,152.9,152.9,cm,Y,BASELINE,2,2025-04-16,1
STUDY001,VS,STUDY001-SUBJ0010,7,WEIGHT,Weight,112.6,kg,112.6,112.6,kg,Y,BASELINE,2,2025-04-16,1
STUDY001,VS,STUDY001-SUBJ0010,8,TEMP,Temperature,36.8,C,36.8,36.8,C,Y,BASELINE,2,2025-04-16,1
STUDY001,VS,STUDY001-SUBJ0010,9,BP,Blood Pressure,128/97,mmHg,128/97,,mmHg,Y,BASELINE,2,2025-04-16,1
STUDY001,VS,STUDY001-SUBJ0010,10,HR,Heart Rate,80,beats/min,80,80.0,beats/min,Y,BASELINE,2,2025-04-16,1
STUDY001,VS,STUDY001-SUBJ0010,11,HEIGHT,Height,152.6,cm,152.6,152.6,cm,,WEEK 1,3,2025-04-22,7
STUDY001,VS,STUDY001-SUBJ0010,12,WEIGHT,Weight,113.4,kg,113.4,113.4,kg,,WEEK 1,3,2025-04-22,7
STUDY001,VS,STUDY001-SUBJ0010,13,TEMP,Temperature,36.4,C,36.4,36.4,C,,WEEK 1,3,2025-04-22,7
STUDY001,VS,STUDY001-SUBJ0010,14,BP,Blood Pressure,124/100,mmHg,124/100,,mmHg,,WEEK 1,3,2025-04-22,7
STUDY001,VS,STUDY001-SUBJ0010,15,HR,Heart Rate,84,beats/min,84,84.0,beats/min,,WEEK 1,3,2025-04-22,7
STUDY001,VS,STUDY001-SUBJ0010,16,HEIGHT,Height,152.7,cm,152.7,152.7,cm,,WEEK 2,4,2025-04-29,14
STUDY001,VS,STUDY001-SUBJ0010,17,WEIGHT,Weight,112.6,kg,112.6,112.6,kg,,WEEK 2,4,2025-04-29,14
STUDY001,VS,STUDY001-SUBJ0010,18,TEMP,Temperature,36.8,C,36.8,36.8,C,,WEEK 2,4,2025-04-29,14
STUDY001,VS,STUDY001-SUBJ0010,19,BP,Blood Pressure,124/99,mmHg,124/99,,mmHg,,WEEK 2,4,2025-04-29,14
STUDY001,VS,STUDY001-SUBJ0010,20,HR,Heart Rate,75,beats/min,75,75.0,beats/min,,WEEK 2,4,2025-04-29,14
STUDY001,VS,STUDY001-SUBJ0010,21,HEIGHT,Height,152.7,cm,152.7,152.7,cm,,WEEK 4,5,2025-05-13,28
STUDY001,VS,STUDY001-SUBJ0010,22,WEIGHT,Weight,112.2,kg,112.2,112.2,kg,,WEEK 4,5,2025-05-13,28
STUDY001,VS,STUDY001-SUBJ0010,23,TEMP,Temperature,36.5,C,36.5,36.5,C,,WEEK 4,5,2025-05-13,28
STUDY001,VS,STUDY001-SUBJ0010,24,BP,Blood Pressure,131/92,mmHg,131/92,,mmHg,,WEEK 4,5,2025-05-13,28
STUDY001,VS,STUDY001-SUBJ0010,25,HR,Heart Rate,75,beats/min,75,75.0,beats/min,,WEEK 4,5,2025-05-13,28
STUDY001,VS,STUDY001-SUBJ0010,26,HEIGHT,Height,152.5,cm,152.5,152.5,cm,,WEEK 8,6,2025-06-10,56
STUDY001,VS,STUDY001-SUBJ0010,27,WEIGHT,Weight,112.8,kg,112.8,112.8,kg,,WEEK 8,6,2025-06-10,56
STUDY001,VS,STUDY001-SUBJ0010,28,TEMP,Temperature,36.4,C,36.4,36.4,C,,WEEK 8,6,2025-06-10,56
STUDY001,VS,STUDY001-SUBJ0010,29,BP,Blood Pressure,130/95,mmHg,130/95,,mmHg,,WEEK 8,6,2025-06-10,56
STUDY001,VS,STUDY001-SUBJ0010,30,HR,Heart Rate,79,beats/min,79,79.0,beats/min,,WEEK 8,6,2025-06-10,56
STUDY001,VS,STUDY001-SUBJ0010,31,HEIGHT,Height,152.6,cm,152.6,152.6,cm,,WEEK 12,7,2025-07-08,84
STUDY001,VS,STUDY001-SUBJ0010,32,WEIGHT,Weight,112.7,kg,112.7,112.7,kg,,WEEK 12,7,2025-07-08,84
STUDY001,VS,STUDY001-SUBJ0010,33,TEMP,Temperature,36.8,C,36.8,36.8,C,,WEEK 12,7,2025-07-08,84
STUDY001,VS,STUDY001-SUBJ0010,34,BP,Blood Pressure,124/100,mmHg,124/100,,mmHg,,WEEK 12,7,2025-07-08,84
STUDY001,VS,STUDY001-SUBJ0010,35,HR,Heart Rate,77,beats/min,77,77.0,beats/min,,WEEK 12,7,2025-07-08,84
STUDY001,VS,STUDY001-SUBJ0010,36,HEIGHT,Height,152.8,cm,152.8,152.8,cm,,WEEK 16,8,2025-08-05,112
STUDY001,VS,STUDY001-SUBJ0010,37,WEIGHT,Weight,113.4,kg,113.4,113.4,kg,,WEEK 16,8,2025-08-05,112
STUDY001,VS,STUDY001-SUBJ0010,38,TEMP,Temperature,36.6,C,36.6,36.6,C,,WEEK 16,8,2025-08-05,112
STUDY001,VS,STUDY001-SUBJ0010,39,BP,Blood Pressure,125/98,mmHg,125/98,,mmHg,,WEEK 16,8,2025-08-05,112
STUDY001,VS,STUDY001-SUBJ0010,40,HR,Heart Rate,75,beats/min,75,75.0,beats/min,,WEEK 16,8,2025-08-05,112
STUDY001,VS,STUDY001-SUBJ0010,41,HEIGHT,Height,152.7,cm,152.7,152.7,cm,,END OF TREATMENT,9,2025-09-02,140
STUDY001,VS,STUDY001-SUBJ0010,42,WEIGHT,Weight,112.7,kg,112.7,112.7,kg,,END OF TREATMENT,9,2025-09-02,140
STUDY001,VS,STUDY001-SUBJ0010,43,TEMP,Temperature,36.7,C,36.7,36.7,C,,END OF TREATMENT,9,2025-09-02,140
STUDY001,VS,STUDY001-SUBJ0010,44,BP,Blood Pressure,130/93,mmHg,130/93,,mmHg,,END OF TREATMENT,9,2025-09-02,140
STUDY001,VS,STUDY001-SUBJ0010,45,HR,Heart Rate,79,beats/min,79,79.0,beats/min,,END OF TREATMENT,9,2025-09-02,140
