STUDYID,DOMAIN,USUBJID,LBSEQ,LBREFID,LBTESTCD,LBTEST,LBCAT,LBORRES,LBORRESU,LBORNRLO,LBORNRHI,LBSTRESC,LBSTRESN,LBSTRESU,LBSTNRLO,LBSTNRHI,LBNRIND,LBBLFL,VISIT,VISITNUM,LBDTC,LBDY
STUDY001,LB,STUDY001-SUBJ0001,1,L00001,HGB,Hemoglobin,HEMATOLOGY,14.29,g/dL,13.5,17.5,14.29,14.29,g/dL,13.5,17.5,NORMAL,,SCREENING,1,2025-04-29,-14
STUDY001,LB,STUDY001-SUBJ0001,2,L00002,HCT,Hematocrit,HEMATOLOGY,51.52,%,41.0,51.0,51.52,51.52,%,41.0,51.0,HIGH,,SCREENING,1,2025-04-29,-14
STUDY001,LB,STUDY001-SUBJ0001,3,L00003,WBC,White Blood Cell Count,HEMATOLOGY,4.49,10^9/L,4.5,11.0,4.49,4.49,10^9/L,4.5,11.0,LOW,,SCREENING,1,2025-04-29,-14
STUDY001,LB,STUDY001-SUBJ0001,4,L00004,PLT,Platelet Count,HEMATOLOGY,250.0,10^9/L,150.0,450.0,250.0,250.0,10^9/L,150.0,450.0,NORMAL,,SCREENING,1,2025-04-29,-14
STUDY001,LB,STUDY001-SUBJ0001,5,L00005,GLUC,Glucose,CHEMISTRY,87.44,mg/dL,70.0,100.0,87.44,87.44,mg/dL,70.0,100.0,NORMAL,,SCREENING,1,2025-04-29,-14
STUDY001,LB,STUDY001-SUBJ0001,6,L00006,BUN,Blood Urea Nitrogen,CHEMISTRY,17.42,mg/dL,7.0,20.0,17.42,17.42,mg/dL,7.0,20.0,NORMAL,,SCREENING,1,2025-04-29,-14
STUDY001,LB,STUDY001-SUBJ0001,7,L00007,CREAT,Creatinine,CHEMISTRY,0.81,mg/dL,0.6,1.2,0.81,0.81,mg/dL,0.6,1.2,NORMAL,,SCREENING,1,2025-04-29,-14
STUDY001,LB,STUDY001-SUBJ0001,8,L00008,BILI,Total Bilirubin,CHEMISTRY,0.77,mg/dL,0.1,1.2,0.77,0.77,mg/dL,0.1,1.2,NORMAL,,SCREENING,1,2025-04-29,-14
STUDY001,LB,STUDY001-SUBJ0001,9,L00009,ALP,Alkaline Phosphatase,CHEMISTRY,85.13,U/L,44.0,147.0,85.13,85.13,U/L,44.0,147.0,NORMAL,,SCREENING,1,2025-04-29,-14
STUDY001,LB,STUDY001-SUBJ0001,10,L00010,ALT,Alanine Aminotransferase,CHEMISTRY,52.53,U/L,7.0,56.0,52.53,52.53,U/L,7.0,56.0,NORMAL,,SCREENING,1,2025-04-29,-14
STUDY001,LB,STUDY001-SUBJ0001,11,L00011,HGB,Hemoglobin,HEMATOLOGY,14.53,g/dL,13.5,17.5,14.53,14.53,g/dL,13.5,17.5,NORMAL,Y,BASELINE,2,2025-05-13,1
STUDY001,LB,STUDY001-SUBJ0001,12,L00012,HCT,Hematocrit,HEMATOLOGY,51.04,%,41.0,51.0,51.04,51.04,%,41.0,51.0,HIGH,Y,BASELINE,2,2025-05-13,1
STUDY001,LB,STUDY001-SUBJ0001,13,L00013,WBC,White Blood Cell Count,HEMATOLOGY,4.53,10^9/L,4.5,11.0,4.53,4.53,10^9/L,4.5,11.0,NORMAL,Y,BASELINE,2,2025-05-13,1
STUDY001,LB,STUDY001-SUBJ0001,14,L00014,PLT,Platelet Count,HEMATOLOGY,246.41,10^9/L,150.0,450.0,246.41,246.41,10^9/L,150.0,450.0,NORMAL,Y,BASELINE,2,2025-05-13,1
STUDY001,LB,STUDY001-SUBJ0001,15,L00015,GLUC,Glucose,CHEMISTRY,87.28,mg/dL,70.0,100.0,87.28,87.28,mg/dL,70.0,100.0,NORMAL,Y,BASELINE,2,2025-05-13,1
STUDY001,LB,STUDY001-SUBJ0001,16,L00016,BUN,Blood Urea Nitrogen,CHEMISTRY,16.73,mg/dL,7.0,20.0,16.73,16.73,mg/dL,7.0,20.0,NORMAL,Y,BASELINE,2,2025-05-13,1
STUDY001,LB,STUDY001-SUBJ0001,17,L00017,CREAT,Creatinine,CHEMISTRY,0.81,mg/dL,0.6,1.2,0.81,0.81,mg/dL,0.6,1.2,NORMAL,Y,BASELINE,2,2025-05-13,1
STUDY001,LB,STUDY001-SUBJ0001,18,L00018,BILI,Total Bilirubin,CHEMISTRY,0.74,mg/dL,0.1,1.2,0.74,0.74,mg/dL,0.1,1.2,NORMAL,Y,BASELINE,2,2025-05-13,1
STUDY001,LB,STUDY001-SUBJ0001,19,L00019,ALP,Alkaline Phosphatase,CHEMISTRY,85.87,U/L,44.0,147.0,85.87,85.87,U/L,44.0,147.0,NORMAL,Y,BASELINE,2,2025-05-13,1
STUDY001,LB,STUDY001-SUBJ0001,20,L00020,ALT,Alanine Aminotransferase,CHEMISTRY,51.84,U/L,7.0,56.0,51.84,51.84,U/L,7.0,56.0,NORMAL,Y,BASELINE,2,2025-05-13,1
STUDY001,LB,STUDY001-SUBJ0001,21,L00021,HGB,Hemoglobin,HEMATOLOGY,14.3,g/dL,13.5,17.5,14.3,14.3,g/dL,13.5,17.5,NORMAL,,WEEK 1,3,2025-05-19,7
STUDY001,LB,STUDY001-SUBJ0001,22,L00022,HCT,Hematocrit,HEMATOLOGY,51.46,%,41.0,51.0,51.46,51.46,%,41.0,51.0,HIGH,,WEEK 1,3,2025-05-19,7
STUDY001,LB,STUDY001-SUBJ0001,23,L00023,WBC,White Blood Cell Count,HEMATOLOGY,4.47,10^9/L,4.5,11.0,4.47,4.47,10^9/L,4.5,11.0,LOW,,WEEK 1,3,2025-05-19,7
STUDY001,LB,STUDY001-SUBJ0001,24,L00024,PLT,Platelet Count,HEMATOLOGY,250.68,10^9/L,150.0,450.0,250.68,250.68,10^9/L,150.0,450.0,NORMAL,,WEEK 1,3,2025-05-19,7
STUDY001,LB,STUDY001-SUBJ0001,25,L00025,GLUC,Glucose,CHEMISTRY,88.4,mg/dL,70.0,100.0,88.4,88.4,mg/dL,70.0,100.0,NORMAL,,WEEK 1,3,2025-05-19,7
STUDY001,LB,STUDY001-SUBJ0001,26,L00026,BUN,Blood Urea Nitrogen,CHEMISTRY,17.28,mg/dL,7.0,20.0,17.28,17.28,mg/dL,7.0,20.0,NORMAL,,WEEK 1,3,2025-05-19,7
STUDY001,LB,STUDY001-SUBJ0001,27,L00027,CREAT,Creatinine,CHEMISTRY,0.82,mg/dL,0.6,1.2,0.82,0.82,mg/dL,0.6,1.2,NORMAL,,WEEK 1,3,2025-05-19,7
STUDY001,LB,STUDY001-SUBJ0001,28,L00028,BILI,Total Bilirubin,CHEMISTRY,0.81,mg/dL,0.1,1.2,0.81,0.81,mg/dL,0.1,1.2,NORMAL,,WEEK 1,3,2025-05-19,7
STUDY001,LB,STUDY001-SUBJ0001,29,L00029,ALP,Alkaline Phosphatase,CHEMISTRY,82.1,U/L,44.0,147.0,82.1,82.1,U/L,44.0,147.0,NORMAL,,WEEK 1,3,2025-05-19,7
STUDY001,LB,STUDY001-SUBJ0001,30,L00030,ALT,Alanine Aminotransferase,CHEMISTRY,51.74,U/L,7.0,56.0,51.74,51.74,U/L,7.0,56.0,NORMAL,,WEEK 1,3,2025-05-19,7
STUDY001,LB,STUDY001-SUBJ0001,31,L00031,HGB,Hemoglobin,HEMATOLOGY,14.42,g/dL,13.5,17.5,14.42,14.42,g/dL,13.5,17.5,NORMAL,,WEEK 2,4,2025-05-26,14
STUDY001,LB,STUDY001-SUBJ0001,32,L00032,HCT,Hematocrit,HEMATOLOGY,51.47,%,41.0,51.0,51.47,51.47,%,41.0,51.0,HIGH,,WEEK 2,4,2025-05-26,14
STUDY001,LB,STUDY001-SUBJ0001,33,L00033,WBC,White Blood Cell Count,HEMATOLOGY,4.38,10^9/L,4.5,11.0,4.38,4.38,10^9/L,4.5,11.0,LOW,,WEEK 2,4,2025-05-26,14
STUDY001,LB,STUDY001-SUBJ0001,34,L00034,PLT,Platelet Count,HEMATOLOGY,247.38,10^9/L,150.0,450.0,247.38,247.38,10^9/L,150.0,450.0,NORMAL,,WEEK 2,4,2025-05-26,14
STUDY001,LB,STUDY001-SUBJ0001,35,L00035,GLUC,Glucose,CHEMISTRY,87.74,mg/dL,70.0,100.0,87.74,87.74,mg/dL,70.0,100.0,NORMAL,,WEEK 2,4,2025-05-26,14
STUDY001,LB,STUDY001-SUBJ0001,36,L00036,BUN,Blood Urea Nitrogen,CHEMISTRY,17.42,mg/dL,7.0,20.0,17.42,17.42,mg/dL,7.0,20.0,NORMAL,,WEEK 2,4,2025-05-26,14
STUDY001,LB,STUDY001-SUBJ0001,37,L00037,CREAT,Creatinine,CHEMISTRY,0.79,mg/dL,0.6,1.2,0.79,0.79,mg/dL,0.6,1.2,NORMAL,,WEEK 2,4,2025-05-26,14
STUDY001,LB,STUDY001-SUBJ0001,38,L00038,BILI,Total Bilirubin,CHEMISTRY,0.79,mg/dL,0.1,1.2,0.79,0.79,mg/dL,0.1,1.2,NORMAL,,WEEK 2,4,2025-05-26,14
STUDY001,LB,STUDY001-SUBJ0001,39,L00039,ALP,Alkaline Phosphatase,CHEMISTRY,85.61,U/L,44.0,147.0,85.61,85.61,U/L,44.0,147.0,NORMAL,,WEEK 2,4,2025-05-26,14
STUDY001,LB,STUDY001-SUBJ0001,40,L00040,ALT,Alanine Aminotransferase,CHEMISTRY,53.22,U/L,7.0,56.0,53.22,53.22,U/L,7.0,56.0,NORMAL,,WEEK 2,4,2025-05-26,14
STUDY001,LB,STUDY001-SUBJ0001,41,L00041,HGB,Hemoglobin,HEMATOLOGY,14.36,g/dL,13.5,17.5,14.36,14.36,g/dL,13.5,17.5,NORMAL,,WEEK 4,5,2025-06-09,28
STUDY001,LB,STUDY001-SUBJ0001,42,L00042,HCT,Hematocrit,HEMATOLOGY,51.5,%,41.0,51.0,51.5,51.5,%,41.0,51.0,HIGH,,WEEK 4,5,2025-06-09,28
STUDY001,LB,STUDY001-SUBJ0001,43,L00043,WBC,White Blood Cell Count,HEMATOLOGY,4.41,10^9/L,4.5,11.0,4.41,4.41,10^9/L,4.5,11.0,LOW,,WEEK 4,5,2025-06-09,28
STUDY001,LB,STUDY001-SUBJ0001,44,L00044,PLT,Platelet Count,HEMATOLOGY,249.97,10^9/L,150.0,450.0,249.97,249.97,10^9/L,150.0,450.0,NORMAL,,WEEK 4,5,2025-06-09,28
STUDY001,LB,STUDY001-SUBJ0001,45,L00045,GLUC,Glucose,CHEMISTRY,89.05,mg/dL,70.0,100.0,89.05,89.05,mg/dL,70.0,100.0,NORMAL,,WEEK 4,5,2025-06-09,28
STUDY001,LB,STUDY001-SUBJ0001,46,L00046,BUN,Blood Urea Nitrogen,CHEMISTRY,17.05,mg/dL,7.0,20.0,17.05,17.05,mg/dL,7.0,20.0,NORMAL,,WEEK 4,5,2025-06-09,28
STUDY001,LB,STUDY001-SUBJ0001,47,L00047,CREAT,Creatinine,CHEMISTRY,0.81,mg/dL,0.6,1.2,0.81,0.81,mg/dL,0.6,1.2,NORMAL,,WEEK 4,5,2025-06-09,28
STUDY001,LB,STUDY001-SUBJ0001,48,L00048,BILI,Total Bilirubin,CHEMISTRY,0.79,mg/dL,0.1,1.2,0.79,0.79,mg/dL,0.1,1.2,NORMAL,,WEEK 4,5,2025-06-09,28
STUDY001,LB,STUDY001-SUBJ0001,49,L00049,ALP,Alkaline Phosphatase,CHEMISTRY,85.61,U/L,44.0,147.0,85.61,85.61,U/L,44.0,147.0,NORMAL,,WEEK 4,5,2025-06-09,28
STUDY001,LB,STUDY001-SUBJ0001,50,L00050,ALT,Alanine Aminotransferase,CHEMISTRY,52.4,U/L,7.0,56.0,52.4,52.4,U/L,7.0,56.0,NORMAL,,WEEK 4,5,2025-06-09,28
STUDY001,LB,STUDY001-SUBJ0001,51,L00051,HGB,Hemoglobin,HEMATOLOGY,14.63,g/dL,13.5,17.5,14.63,14.63,g/dL,13.5,17.5,NORMAL,,WEEK 8,6,2025-07-07,56
STUDY001,LB,STUDY001-SUBJ0001,52,L00052,HCT,Hematocrit,HEMATOLOGY,51.69,%,41.0,51.0,51.69,51.69,%,41.0,51.0,HIGH,,WEEK 8,6,2025-07-07,56
STUDY001,LB,STUDY001-SUBJ0001,53,L00053,WBC,White Blood Cell Count,HEMATOLOGY,4.8,10^9/L,4.5,11.0,4.8,4.8,10^9/L,4.5,11.0,NORMAL,,WEEK 8,6,2025-07-07,56
STUDY001,LB,STUDY001-SUBJ0001,54,L00054,PLT,Platelet Count,HEMATOLOGY,248.19,10^9/L,150.0,450.0,248.19,248.19,10^9/L,150.0,450.0,NORMAL,,WEEK 8,6,2025-07-07,56
STUDY001,LB,STUDY001-SUBJ0001,55,L00055,GLUC,Glucose,CHEMISTRY,86.78,mg/dL,70.0,100.0,86.78,86.78,mg/dL,70.0,100.0,NORMAL,,WEEK 8,6,2025-07-07,56
STUDY001,LB,STUDY001-SUBJ0001,56,L00056,BUN,Blood Urea Nitrogen,CHEMISTRY,17.62,mg/dL,7.0,20.0,17.62,17.62,mg/dL,7.0,20.0,NORMAL,,WEEK 8,6,2025-07-07,56
STUDY001,LB,STUDY001-SUBJ0001,57,L00057,CREAT,Creatinine,CHEMISTRY,0.81,mg/dL,0.6,1.2,0.81,0.81,mg/dL,0.6,1.2,NORMAL,,WEEK 8,6,2025-07-07,56
STUDY001,LB,STUDY001-SUBJ0001,58,L00058,BILI,Total Bilirubin,CHEMISTRY,0.79,mg/dL,0.1,1.2,0.79,0.79,mg/dL,0.1,1.2,NORMAL,,WEEK 8,6,2025-07-07,56
STUDY001,LB,STUDY001-SUBJ0001,59,L00059,ALP,Alkaline Phosphatase,CHEMISTRY,85.74,U/L,44.0,147.0,85.74,85.74,U/L,44.0,147.0,NORMAL,,WEEK 8,6,2025-07-07,56
STUDY001,LB,STUDY001-SUBJ0001,60,L00060,ALT,Alanine Aminotransferase,CHEMISTRY,52.8,U/L,7.0,56.0,52.8,52.8,U/L,7.0,56.0,NORMAL,,WEEK 8,6,2025-07-07,56
STUDY001,LB,STUDY001-SUBJ0001,61,L00061,HGB,Hemoglobin,HEMATOLOGY,14.28,g/dL,13.5,17.5,14.28,14.28,g/dL,13.5,17.5,NORMAL,,WEEK 12,7,2025-08-04,84
STUDY001,LB,STUDY001-SUBJ0001,62,L00062,HCT,Hematocrit,HEMATOLOGY,51.17,%,41.0,51.0,51.17,51.17,%,41.0,51.0,HIGH,,WEEK 12,7,2025-08-04,84
STUDY001,LB,STUDY001-SUBJ0001,63,L00063,WBC,White Blood Cell Count,HEMATOLOGY,4.6,10^9/L,4.5,11.0,4.6,4.6,10^9/L,4.5,11.0,NORMAL,,WEEK 12,7,2025-08-04,84
STUDY001,LB,STUDY001-SUBJ0001,64,L00064,PLT,Platelet Count,HEMATOLOGY,256.47,10^9/L,150.0,450.0,256.47,256.47,10^9/L,150.0,450.0,NORMAL,,WEEK 12,7,2025-08-04,84
STUDY001,LB,STUDY001-SUBJ0001,65,L00065,GLUC,Glucose,CHEMISTRY,88.17,mg/dL,70.0,100.0,88.17,88.17,mg/dL,70.0,100.0,NORMAL,,WEEK 12,7,2025-08-04,84
STUDY001,LB,STUDY001-SUBJ0001,66,L00066,BUN,Blood Urea Nitrogen,CHEMISTRY,17.18,mg/dL,7.0,20.0,17.18,17.18,mg/dL,7.0,20.0,NORMAL,,WEEK 12,7,2025-08-04,84
STUDY001,LB,STUDY001-SUBJ0001,67,L00067,CREAT,Creatinine,CHEMISTRY,0.82,mg/dL,0.6,1.2,0.82,0.82,mg/dL,0.6,1.2,NORMAL,,WEEK 12,7,2025-08-04,84
STUDY001,LB,STUDY001-SUBJ0001,68,L00068,BILI,Total Bilirubin,CHEMISTRY,0.8,mg/dL,0.1,1.2,0.8,0.8,mg/dL,0.1,1.2,NORMAL,,WEEK 12,7,2025-08-04,84
STUDY001,LB,STUDY001-SUBJ0001,69,L00069,ALP,Alkaline Phosphatase,CHEMISTRY,85.55,U/L,44.0,147.0,85.55,85.55,U/L,44.0,147.0,NORMAL,,WEEK 12,7,2025-08-04,84
STUDY001,LB,STUDY001-SUBJ0001,70,L00070,ALT,Alanine Aminotransferase,CHEMISTRY,52.12,U/L,7.0,56.0,52.12,52.12,U/L,7.0,56.0,NORMAL,,WEEK 12,7,2025-08-04,84
STUDY001,LB,STUDY001-SUBJ0001,71,L00071,HGB,Hemoglobin,HEMATOLOGY,14.44,g/dL,13.5,17.5,14.44,14.44,g/dL,13.5,17.5,NORMAL,,WEEK 16,8,2025-09-01,112
STUDY001,LB,STUDY001-SUBJ0001,72,L00072,HCT,Hematocrit,HEMATOLOGY,51.81,%,41.0,51.0,51.81,51.81,%,41.0,51.0,HIGH,,WEEK 16,8,2025-09-01,112
STUDY001,LB,STUDY001-SUBJ0001,73,L00073,WBC,White Blood Cell Count,HEMATOLOGY,4.56,10^9/L,4.5,11.0,4.56,4.56,10^9/L,4.5,11.0,NORMAL,,WEEK 16,8,2025-09-01,112
STUDY001,LB,STUDY001-SUBJ0001,74,L00074,PLT,Platelet Count,HEMATOLOGY,246.04,10^9/L,150.0,450.0,246.04,246.04,10^9/L,150.0,450.0,NORMAL,,WEEK 16,8,2025-09-01,112
STUDY001,LB,STUDY001-SUBJ0001,75,L00075,GLUC,Glucose,CHEMISTRY,86.39,mg/dL,70.0,100.0,86.39,86.39,mg/dL,70.0,100.0,NORMAL,,WEEK 16,8,2025-09-01,112
STUDY001,LB,STUDY001-SUBJ0001,76,L00076,BUN,Blood Urea Nitrogen,CHEMISTRY,17.35,mg/dL,7.0,20.0,17.35,17.35,mg/dL,7.0,20.0,NORMAL,,WEEK 16,8,2025-09-01,112
STUDY001,LB,STUDY001-SUBJ0001,77,L00077,CREAT,Creatinine,CHEMISTRY,0.82,mg/dL,0.6,1.2,0.82,0.82,mg/dL,0.6,1.2,NORMAL,,WEEK 16,8,2025-09-01,112
STUDY001,LB,STUDY001-SUBJ0001,78,L00078,BILI,Total Bilirubin,CHEMISTRY,0.8,mg/dL,0.1,1.2,0.8,0.8,mg/dL,0.1,1.2,NORMAL,,WEEK 16,8,2025-09-01,112
STUDY001,LB,STUDY001-SUBJ0001,79,L00079,ALP,Alkaline Phosphatase,CHEMISTRY,83.7,U/L,44.0,147.0,83.7,83.7,U/L,44.0,147.0,NORMAL,,WEEK 16,8,2025-09-01,112
STUDY001,LB,STUDY001-SUBJ0001,80,L00080,ALT,Alanine Aminotransferase,CHEMISTRY,51.31,U/L,7.0,56.0,51.31,51.31,U/L,7.0,56.0,NORMAL,,WEEK 16,8,2025-09-01,112
STUDY001,LB,STUDY001-SUBJ0001,81,L00081,HGB,Hemoglobin,HEMATOLOGY,14.17,g/dL,13.5,17.5,14.17,14.17,g/dL,13.5,17.5,NORMAL,,END OF TREATMENT,9,2025-09-29,140
STUDY001,LB,STUDY001-SUBJ0001,82,L00082,HCT,Hematocrit,HEMATOLOGY,51.14,%,41.0,51.0,51.14,51.14,%,41.0,51.0,HIGH,,END OF TREATMENT,9,2025-09-29,140
STUDY001,LB,STUDY001-SUBJ0001,83,L00083,WBC,White Blood Cell Count,HEMATOLOGY,4.52,10^9/L,4.5,11.0,4.52,4.52,10^9/L,4.5,11.0,NORMAL,,END OF TREATMENT,9,2025-09-29,140
STUDY001,LB,STUDY001-SUBJ0001,84,L00084,PLT,Platelet Count,HEMATOLOGY,248.86,10^9/L,150.0,450.0,248.86,248.86,10^9/L,150.0,450.0,NORMAL,,END OF TREATMENT,9,2025-09-29,140
STUDY001,LB,STUDY001-SUBJ0001,85,L00085,GLUC,Glucose,CHEMISTRY,87.28,mg/dL,70.0,100.0,87.28,87.28,mg/dL,70.0,100.0,NORMAL,,END OF TREATMENT,9,2025-09-29,140
STUDY001,LB,STUDY001-SUBJ0001,86,L00086,BUN,Blood Urea Nitrogen,CHEMISTRY,17.2,mg/dL,7.0,20.0,17.2,17.2,mg/dL,7.0,20.0,NORMAL,,END OF TREATMENT,9,2025-09-29,140
STUDY001,LB,STUDY001-SUBJ0001,87,L00087,CREAT,Creatinine,CHEMISTRY,0.82,mg/dL,0.6,1.2,0.82,0.82,mg/dL,0.6,1.2,NORMAL,,END OF TREATMENT,9,2025-09-29,140
STUDY001,LB,STUDY001-SUBJ0001,88,L00088,BILI,Total Bilirubin,CHEMISTRY,0.79,mg/dL,0.1,1.2,0.79,0.79,mg/dL,0.1,1.2,NORMAL,,END OF TREATMENT,9,2025-09-29,140
STUDY001,LB,STUDY001-SUBJ0001,89,L00089,ALP,Alkaline Phosphatase,CHEMISTRY,88.76,U/L,44.0,147.0,88.76,88.76,U/L,44.0,147.0,NORMAL,,END OF TREATMENT,9,2025-09-29,140
STUDY001,LB,STUDY001-SUBJ0001,90,L00090,ALT,Alanine Aminotransferase,CHEMISTRY,52.51,U/L,7.0,56.0,52.51,52.51,U/L,7.0,56.0,NORMAL,,END OF TREATMENT,9,2025-09-29,140
STUDY001,LB,STUDY001-SUBJ0002,1,L00001,HGB,Hemoglobin,HEMATOLOGY,14.65,g/dL,13.5,17.5,14.65,14.65,g/dL,13.5,17.5,NORMAL,,SCREENING,1,2025-03-22,-14
STUDY001,LB,STUDY001-SUBJ0002,2,L00002,HCT,Hematocrit,HEMATOLOGY,45.78,%,41.0,51.0,45.78,45.78,%,41.0,51.0,NORMAL,,SCREENING,1,2025-03-22,-14
STUDY001,LB,STUDY001-SUBJ0002,3,L00003,WBC,White Blood Cell Count,HEMATOLOGY,6.0,10^9/L,4.5,11.0,6.0,6.0,10^9/L,4.5,11.0,NORMAL,,SCREENING,1,2025-03-22,-14
STUDY001,LB,STUDY001-SUBJ0002,4,L00004,PLT,Platelet Count,HEMATOLOGY,221.26,10^9/L,150.0,450.0,221.26,221.26,10^9/L,150.0,450.0,NORMAL,,SCREENING,1,2025-03-22,-14
STUDY001,LB,STUDY001-SUBJ0002,5,L00005,GLUC,Glucose,CHEMISTRY,81.47,mg/dL,70.0,100.0,81.47,81.47,mg/dL,70.0,100.0,NORMAL,,SCREENING,1,2025-03-22,-14
STUDY001,LB,STUDY001-SUBJ0002,6,L00006,BUN,Blood Urea Nitrogen,CHEMISTRY,11.05,mg/dL,7.0,20.0,11.05,11.05,mg/dL,7.0,20.0,NORMAL,,SCREENING,1,2025-03-22,-14
STUDY001,LB,STUDY001-SUBJ0002,7,L00007,CREAT,Creatinine,CHEMISTRY,0.68,mg/dL,0.6,1.2,0.68,0.68,mg/dL,0.6,1.2,NORMAL,,SCREENING,1,2025-03-22,-14
STUDY001,LB,STUDY001-SUBJ0002,8,L00008,BILI,Total Bilirubin,CHEMISTRY,0.73,mg/dL,0.1,1.2,0.73,0.73,mg/dL,0.1,1.2,NORMAL,,SCREENING,1,2025-03-22,-14
STUDY001,LB,STUDY001-SUBJ0002,9,L00009,ALP,Alkaline Phosphatase,CHEMISTRY,89.24,U/L,44.0,147.0,89.24,89.24,U/L,44.0,147.0,NORMAL,,SCREENING,1,2025-03-22,-14
STUDY001,LB,STUDY001-SUBJ0002,10,L00010,ALT,Alanine Aminotransferase,CHEMISTRY,30.4,U/L,7.0,56.0,30.4,30.4,U/L,7.0,56.0,NORMAL,,SCREENING,1,2025-03-22,-14
STUDY001,LB,STUDY001-SUBJ0002,11,L00011,HGB,Hemoglobin,HEMATOLOGY,14.76,g/dL,13.5,17.5,14.76,14.76,g/dL,13.5,17.5,NORMAL,Y,BASELINE,2,2025-04-05,1
STUDY001,LB,STUDY001-SUBJ0002,12,L00012,HCT,Hematocrit,HEMATOLOGY,46.03,%,41.0,51.0,46.03,46.03,%,41.0,51.0,NORMAL,Y,BASELINE,2,2025-04-05,1
STUDY001,LB,STUDY001-SUBJ0002,13,L00013,WBC,White Blood Cell Count,HEMATOLOGY,6.12,10^9/L,4.5,11.0,6.12,6.12,10^9/L,4.5,11.0,NORMAL,Y,BASELINE,2,2025-04-05,1
STUDY001,LB,STUDY001-SUBJ0002,14,L00014,PLT,Platelet Count,HEMATOLOGY,230.16,10^9/L,150.0,450.0,230.16,230.16,10^9/L,150.0,450.0,NORMAL,Y,BASELINE,2,2025-04-05,1
STUDY001,LB,STUDY001-SUBJ0002,15,L00015,GLUC,Glucose,CHEMISTRY,82.65,mg/dL,70.0,100.0,82.65,82.65,mg/dL,70.0,100.0,NORMAL,Y,BASELINE,2,2025-04-05,1
STUDY001,LB,STUDY001-SUBJ0002,16,L00016,BUN,Blood Urea Nitrogen,CHEMISTRY,10.95,mg/dL,7.0,20.0,10.95,10.95,mg/dL,7.0,20.0,NORMAL,Y,BASELINE,2,2025-04-05,1
STUDY001,LB,STUDY001-SUBJ0002,17,L00017,CREAT,Creatinine,CHEMISTRY,0.67,mg/dL,0.6,1.2,0.67,0.67,mg/dL,0.6,1.2,NORMAL,Y,BASELINE,2,2025-04-05,1
STUDY001,LB,STUDY001-SUBJ0002,18,L00018,BILI,Total Bilirubin,CHEMISTRY,0.78,mg/dL,0.1,1.2,0.78,0.78,mg/dL,0.1,1.2,NORMAL,Y,BASELINE,2,2025-04-05,1
STUDY001,LB,STUDY001-SUBJ0002,19,L00019,ALP,Alkaline Phosphatase,CHEMISTRY,84.32,U/L,44.0,147.0,84.32,84.32,U/L,44.0,147.0,NORMAL,Y,BASELINE,2,2025-04-05,1
STUDY001,LB,STUDY001-SUBJ0002,20,L00020,ALT,Alanine Aminotransferase,CHEMISTRY,32.35,U/L,7.0,56.0,32.35,32.35,U/L,7.0,56.0,NORMAL,Y,BASELINE,2,2025-04-05,1
STUDY001,LB,STUDY001-SUBJ0002,21,L00021,HGB,Hemoglobin,HEMATOLOGY,14.81,g/dL,13.5,17.5,14.81,14.81,g/dL,13.5,17.5,NORMAL,,WEEK 1,3,2025-04-11,7
STUDY001,LB,STUDY001-SUBJ0002,22,L00022,HCT,Hematocrit,HEMATOLOGY,46.1,%,41.0,51.0,46.1,46.1,%,41.0,51.0,NORMAL,,WEEK 1,3,2025-04-11,7
STUDY001,LB,STUDY001-SUBJ0002,23,L00023,WBC,White Blood Cell Count,HEMATOLOGY,5.81,10^9/L,4.5,11.0,5.81,5.81,10^9/L,4.5,11.0,NORMAL,,WEEK 1,3,2025-04-11,7
STUDY001,LB,STUDY001-SUBJ0002,24,L00024,PLT,Platelet Count,HEMATOLOGY,231.57,10^9/L,150.0,450.0,231.57,231.57,10^9/L,150.0,450.0,NORMAL,,WEEK 1,3,2025-04-11,7
STUDY001,LB,STUDY001-SUBJ0002,25,L00025,GLUC,Glucose,CHEMISTRY,79.84,mg/dL,70.0,100.0,79.84,79.84,mg/dL,70.0,100.0,NORMAL,,WEEK 1,3,2025-04-11,7
STUDY001,LB,STUDY001-SUBJ0002,26,L00026,BUN,Blood Urea Nitrogen,CHEMISTRY,11.34,mg/dL,7.0,20.0,11.34,11.34,mg/dL,7.0,20.0,NORMAL,,WEEK 1,3,2025-04-11,7
STUDY001,LB,STUDY001-SUBJ0002,27,L00027,CREAT,Creatinine,CHEMISTRY,0.69,mg/dL,0.6,1.2,0.69,0.69,mg/dL,0.6,1.2,NORMAL,,WEEK 1,3,2025-04-11,7
STUDY001,LB,STUDY001-SUBJ0002,28,L00028,BILI,Total Bilirubin,CHEMISTRY,0.76,mg/dL,0.1,1.2,0.76,0.76,mg/dL,0.1,1.2,NORMAL,,WEEK 1,3,2025-04-11,7
STUDY001,LB,STUDY001-SUBJ0002,29,L00029,ALP,Alkaline Phosphatase,CHEMISTRY,88.88,U/L,44.0,147.0,88.88,88.88,U/L,44.0,147.0,NORMAL,,WEEK 1,3,2025-04-11,7
STUDY001,LB,STUDY001-SUBJ0002,30,L00030,ALT,Alanine Aminotransferase,CHEMISTRY,31.08,U/L,7.0,56.0,31.08,31.08,U/L,7.0,56.0,NORMAL,,WEEK 1,3,2025-04-11,7
STUDY001,LB,STUDY001-SUBJ0002,31,L00031,HGB,Hemoglobin,HEMATOLOGY,14.71,g/dL,13.5,17.5,14.71,14.71,g/dL,13.5,17.5,NORMAL,,WEEK 2,4,2025-04-18,14
STUDY001,LB,STUDY001-SUBJ0002,32,L00032,HCT,Hematocrit,HEMATOLOGY,46.62,%,41.0,51.0,46.62,46.62,%,41.0,51.0,NORMAL,,WEEK 2,4,2025-04-18,14
STUDY001,LB,STUDY001-SUBJ0002,33,L00033,WBC,White Blood Cell Count,HEMATOLOGY,5.88,10^9/L,4.5,11.0,5.88,5.88,10^9/L,4.5,11.0,NORMAL,,WEEK 2,4,2025-04-18,14
STUDY001,LB,STUDY001-SUBJ0002,34,L00034,PLT,Platelet Count,HEMATOLOGY,224.93,10^9/L,150.0,450.0,224.93,224.93,10^9/L,150.0,450.0,NORMAL,,WEEK 2,4,2025-04-18,14
STUDY001,LB,STUDY001-SUBJ0002,35,L00035,GLUC,Glucose,CHEMISTRY,80.89,mg/dL,70.0,100.0,80.89,80.89,mg/dL,70.0,100.0,NORMAL,,WEEK 2,4,2025-04-18,14
STUDY001,LB,STUDY001-SUBJ0002,36,L00036,BUN,Blood Urea Nitrogen,CHEMISTRY,10.7,mg/dL,7.0,20.0,10.7,10.7,mg/dL,7.0,20.0,NORMAL,,WEEK 2,4,2025-04-18,14
STUDY001,LB,STUDY001-SUBJ0002,37,L00037,CREAT,Creatinine,CHEMISTRY,0.7,mg/dL,0.6,1.2,0.7,0.7,mg/dL,0.6,1.2,NORMAL,,WEEK 2,4,2025-04-18,14
STUDY001,LB,STUDY001-SUBJ0002,38,L00038,BILI,Total Bilirubin,CHEMISTRY,0.76,mg/dL,0.1,1.2,0.76,0.76,mg/dL,0.1,1.2,NORMAL,,WEEK 2,4,2025-04-18,14
STUDY001,LB,STUDY001-SUBJ0002,39,L00039,ALP,Alkaline Phosphatase,CHEMISTRY,84.73,U/L,44.0,147.0,84.73,84.73,U/L,44.0,147.0,NORMAL,,WEEK 2,4,2025-04-18,14
STUDY001,LB,STUDY001-SUBJ0002,40,L00040,ALT,Alanine Aminotransferase,CHEMISTRY,29.99,U/L,7.0,56.0,29.99,29.99,U/L,7.0,56.0,NORMAL,,WEEK 2,4,2025-04-18,14
STUDY001,LB,STUDY001-SUBJ0002,41,L00041,HGB,Hemoglobin,HEMATOLOGY,14.45,g/dL,13.5,17.5,14.45,14.45,g/dL,13.5,17.5,NORMAL,,WEEK 4,5,2025-05-02,28
STUDY001,LB,STUDY001-SUBJ0002,42,L00042,HCT,Hematocrit,HEMATOLOGY,46.25,%,41.0,51.0,46.25,46.25,%,41.0,51.0,NORMAL,,WEEK 4,5,2025-05-02,28
STUDY001,LB,STUDY001-SUBJ0002,43,L00043,WBC,White Blood Cell Count,HEMATOLOGY,6.16,10^9/L,4.5,11.0,6.16,6.16,10^9/L,4.5,11.0,NORMAL,,WEEK 4,5,2025-05-02,28
STUDY001,LB,STUDY001-SUBJ0002,44,L00044,PLT,Platelet Count,HEMATOLOGY,222.14,10^9/L,150.0,450.0,222.14,222.14,10^9/L,150.0,450.0,NORMAL,,WEEK 4,5,2025-05-02,28
STUDY001,LB,STUDY001-SUBJ0002,45,L00045,GLUC,Glucose,CHEMISTRY,80.05,mg/dL,70.0,100.0,80.05,80.05,mg/dL,70.0,100.0,NORMAL,,WEEK 4,5,2025-05-02,28
STUDY001,LB,STUDY001-SUBJ0002,46,L00046,BUN,Blood Urea Nitrogen,CHEMISTRY,10.92,mg/dL,7.0,20.0,10.92,10.92,mg/dL,7.0,20.0,NORMAL,,WEEK 4,5,2025-05-02,28
STUDY001,LB,STUDY001-SUBJ0002,47,L00047,CREAT,Creatinine,CHEMISTRY,0.7,mg/dL,0.6,1.2,0.7,0.7,mg/dL,0.6,1.2,NORMAL,,WEEK 4,5,2025-05-02,28
STUDY001,LB,STUDY001-SUBJ0002,48,L00048,BILI,Total Bilirubin,CHEMISTRY,0.7,mg/dL,0.1,1.2,0.7,0.7,mg/dL,0.1,1.2,NORMAL,,WEEK 4,5,2025-05-02,28
STUDY001,LB,STUDY001-SUBJ0002,49,L00049,ALP,Alkaline Phosphatase,CHEMISTRY,87.99,U/L,44.0,147.0,87.99,87.99,U/L,44.0,147.0,NORMAL,,WEEK 4,5,2025-05-02,28
STUDY001,LB,STUDY001-SUBJ0002,50,L00050,ALT,Alanine Aminotransferase,CHEMISTRY,31.08,U/L,7.0,56.0,31.08,31.08,U/L,7.0,56.0,NORMAL,,WEEK 4,5,2025-05-02,28
STUDY001,LB,STUDY001-SUBJ0002,51,L00051,HGB,Hemoglobin,HEMATOLOGY,14.88,g/dL,13.5,17.5,14.88,14.88,g/dL,13.5,17.5,NORMAL,,WEEK 8,6,2025-05-30,56
STUDY001,LB,STUDY001-SUBJ0002,52,L00052,HCT,Hematocrit,HEMATOLOGY,46.07,%,41.0,51.0,46.07,46.07,%,41.0,51.0,NORMAL,,WEEK 8,6,2025-05-30,56
STUDY001,LB,STUDY001-SUBJ0002,53,L00053,WBC,White Blood Cell Count,HEMATOLOGY,6.08,10^9/L,4.5,11.0,6.08,6.08,10^9/L,4.5,11.0,NORMAL,,WEEK 8,6,2025-05-30,56
STUDY001,LB,STUDY001-SUBJ0002,54,L00054,PLT,Platelet Count,HEMATOLOGY,220.43,10^9/L,150.0,450.0,220.43,220.43,10^9/L,150.0,450.0,NORMAL,,WEEK 8,6,2025-05-30,56
STUDY001,LB,STUDY001-SUBJ0002,55,L00055,GLUC,Glucose,CHEMISTRY,82.96,mg/dL,70.0,100.0,82.96,82.96,mg/dL,70.0,100.0,NORMAL,,WEEK 8,6,2025-05-30,56
STUDY001,LB,STUDY001-SUBJ0002,56,L00056,BUN,Blood Urea Nitrogen,CHEMISTRY,11.1,mg/dL,7.0,20.0,11.1,11.1,mg/dL,7.0,20.0,NORMAL,,WEEK 8,6,2025-05-30,56
STUDY001,LB,STUDY001-SUBJ0002,57,L00057,CREAT,Creatinine,CHEMISTRY,0.7,mg/dL,0.6,1.2,0.7,0.7,mg/dL,0.6,1.2,NORMAL,,WEEK 8,6,2025-05-30,56
STUDY001,LB,STUDY001-SUBJ0002,58,L00058,BILI,Total Bilirubin,CHEMISTRY,0.77,mg/dL,0.1,1.2,0.77,0.77,mg/dL,0.1,1.2,NORMAL,,WEEK 8,6,2025-05-30,56
STUDY001,LB,STUDY001-SUBJ0002,59,L00059,ALP,Alkaline Phosphatase,CHEMISTRY,85.36,U/L,44.0,147.0,85.36,85.36,U/L,44.0,147.0,NORMAL,,WEEK 8,6,2025-05-30,56
STUDY001,LB,STUDY001-SUBJ0002,60,L00060,ALT,Alanine Aminotransferase,CHEMISTRY,30.96,U/L,7.0,56.0,30.96,30.96,U/L,7.0,56.0,NORMAL,,WEEK 8,6,2025-05-30,56
STUDY001,LB,STUDY001-SUBJ0002,61,L00061,HGB,Hemoglobin,HEMATOLOGY,14.75,g/dL,13.5,17.5,14.75,14.75,g/dL,13.5,17.5,NORMAL,,WEEK 12,7,2025-06-27,84
STUDY001,LB,STUDY001-SUBJ0002,62,L00062,HCT,Hematocrit,HEMATOLOGY,45.77,%,41.0,51.0,45.77,45.77,%,41.0,51.0,NORMAL,,WEEK 12,7,2025-06-27,84
STUDY001,LB,STUDY001-SUBJ0002,63,L00063,WBC,White Blood Cell Count,HEMATOLOGY,5.97,10^9/L,4.5,11.0,5.97,5.97,10^9/L,4.5,11.0,NORMAL,,WEEK 12,7,2025-06-27,84
STUDY001,LB,STUDY001-SUBJ0002,64,L00064,PLT,Platelet Count,HEMATOLOGY,222.04,10^9/L,150.0,450.0,222.04,222.04,10^9/L,150.0,450.0,NORMAL,,WEEK 12,7,2025-06-27,84
STUDY001,LB,STUDY001-SUBJ0002,65,L00065,GLUC,Glucose,CHEMISTRY,82.1,mg/dL,70.0,100.0,82.1,82.1,mg/dL,70.0,100.0,NORMAL,,WEEK 12,7,2025-06-27,84
STUDY001,LB,STUDY001-SUBJ0002,66,L00066,BUN,Blood Urea Nitrogen,CHEMISTRY,10.72,mg/dL,7.0,20.0,10.72,10.72,mg/dL,7.0,20.0,NORMAL,,WEEK 12,7,2025-06-27,84
STUDY001,LB,STUDY001-SUBJ0002,67,L00067,CREAT,Creatinine,CHEMISTRY,0.71,mg/dL,0.6,1.2,0.71,0.71,mg/dL,0.6,1.2,NORMAL,,WEEK 12,7,2025-06-27,84
STUDY001,LB,STUDY001-SUBJ0002,68,L00068,BILI,Total Bilirubin,CHEMISTRY,0.75,mg/dL,0.1,1.2,0.75,0.75,mg/dL,0.1,1.2,NORMAL,,WEEK 12,7,2025-06-27,84
STUDY001,LB,STUDY001-SUBJ0002,69,L00069,ALP,Alkaline Phosphatase,CHEMISTRY,85.85,U/L,44.0,147.0,85.85,85.85,U/L,44.0,147.0,NORMAL,,WEEK 12,7,2025-06-27,84
STUDY001,LB,STUDY001-SUBJ0002,70,L00070,ALT,Alanine Aminotransferase,CHEMISTRY,31.04,U/L,7.0,56.0,31.04,31.04,U/L,7.0,56.0,NORMAL,,WEEK 12,7,2025-06-27,84
STUDY001,LB,STUDY001-SUBJ0002,71,L00071,HGB,Hemoglobin,HEMATOLOGY,14.82,g/dL,13.5,17.5,14.82,14.82,g/dL,13.5,17.5,NORMAL,,WEEK 16,8,2025-07-25,112
STUDY001,LB,STUDY001-SUBJ0002,72,L00072,HCT,Hematocrit,HEMATOLOGY,46.16,%,41.0,51.0,46.16,46.16,%,41.0,51.0,NORMAL,,WEEK 16,8,2025-07-25,112
STUDY001,LB,STUDY001-SUBJ0002,73,L00073,WBC,White Blood Cell Count,HEMATOLOGY,6.07,10^9/L,4.5,11.0,6.07,6.07,10^9/L,4.5,11.0,NORMAL,,WEEK 16,8,2025-07-25,112
STUDY001,LB,STUDY001-SUBJ0002,74,L00074,PLT,Platelet Count,HEMATOLOGY,219.97,10^9/L,150.0,450.0,219.97,219.97,10^9/L,150.0,450.0,NORMAL,,WEEK 16,8,2025-07-25,112
STUDY001,LB,STUDY001-SUBJ0002,75,L00075,GLUC,Glucose,CHEMISTRY,81.31,mg/dL,70.0,100.0,81.31,81.31,mg/dL,70.0,100.0,NORMAL,,WEEK 16,8,2025-07-25,112
STUDY001,LB,STUDY001-SUBJ0002,76,L00076,BUN,Blood Urea Nitrogen,CHEMISTRY,10.28,mg/dL,7.0,20.0,10.28,10.28,mg/dL,7.0,20.0,NORMAL,,WEEK 16,8,2025-07-25,112
STUDY001,LB,STUDY001-SUBJ0002,77,L00077,CREAT,Creatinine,CHEMISTRY,0.71,mg/dL,0.6,1.2,0.71,0.71,mg/dL,0.6,1.2,NORMAL,,WEEK 16,8,2025-07-25,112
STUDY001,LB,STUDY001-SUBJ0002,78,L00078,BILI,Total Bilirubin,CHEMISTRY,0.69,mg/dL,0.1,1.2,0.69,0.69,mg/dL,0.1,1.2,NORMAL,,WEEK 16,8,2025-07-25,112
STUDY001,LB,STUDY001-SUBJ0002,79,L00079,ALP,Alkaline Phosphatase,CHEMISTRY,83.93,U/L,44.0,147.0,83.93,83.93,U/L,44.0,147.0,NORMAL,,WEEK 16,8,2025-07-25,112
STUDY001,LB,STUDY001-SUBJ0002,80,L00080,ALT,Alanine Aminotransferase,CHEMISTRY,32.28,U/L,7.0,56.0,32.28,32.28,U/L,7.0,56.0,NORMAL,,WEEK 16,8,2025-07-25,112
STUDY001,LB,STUDY001-SUBJ0002,81,L00081,HGB,Hemoglobin,HEMATOLOGY,14.64,g/dL,13.5,17.5,14.64,14.64,g/dL,13.5,17.5,NORMAL,,END OF TREATMENT,9,2025-08-22,140
STUDY001,LB,STUDY001-SUBJ0002,82,L00082,HCT,Hematocrit,HEMATOLOGY,46.39,%,41.0,51.0,46.39,46.39,%,41.0,51.0,NORMAL,,END OF TREATMENT,9,2025-08-22,140
STUDY001,LB,STUDY001-SUBJ0002,83,L00083,WBC,White Blood Cell Count,HEMATOLOGY,5.76,10^9/L,4.5,11.0,5.76,5.76,10^9/L,4.5,11.0,NORMAL,,END OF TREATMENT,9,2025-08-22,140
STUDY001,LB,STUDY001-SUBJ0002,84,L00084,PLT,Platelet Count,HEMATOLOGY,228.72,10^9/L,150.0,450.0,228.72,228.72,10^9/L,150.0,450.0,NORMAL,,END OF TREATMENT,9,2025-08-22,140
STUDY001,LB,STUDY001-SUBJ0002,85,L00085,GLUC,Glucose,CHEMISTRY,81.84,mg/dL,70.0,100.0,81.84,81.84,mg/dL,70.0,100.0,NORMAL,,END OF TREATMENT,9,2025-08-22,140
STUDY001,LB,STUDY001-SUBJ0002,86,L00086,BUN,Blood Urea Nitrogen,CHEMISTRY,10.7,mg/dL,7.0,20.0,10.7,10.7,mg/dL,7.0,20.0,NORMAL,,END OF TREATMENT,9,2025-08-22,140
STUDY001,LB,STUDY001-SUBJ0002,87,L00087,CREAT,Creatinine,CHEMISTRY,0.71,mg/dL,0.6,1.2,0.71,0.71,mg/dL,0.6,1.2,NORMAL,,END OF TREATMENT,9,2025-08-22,140
STUDY001,LB,STUDY001-SUBJ0002,88,L00088,BILI,Total Bilirubin,CHEMISTRY,0.72,mg/dL,0.1,1.2,0.72,0.72,mg/dL,0.1,1.2,NORMAL,,END OF TREATMENT,9,2025-08-22,140
STUDY001,LB,STUDY001-SUBJ0002,89,L00089,ALP,Alkaline Phosphatase,CHEMISTRY,86.8,U/L,44.0,147.0,86.8,86.8,U/L,44.0,147.0,NORMAL,,END OF TREATMENT,9,2025-08-22,140
STUDY001,LB,STUDY001-SUBJ0002,90,L00090,ALT,Alanine Aminotransferase,CHEMISTRY,31.06,U/L,7.0,56.0,31.06,31.06,U/L,7.0,56.0,NORMAL,,END OF TREATMENT,9,2025-08-22,140
STUDY001,LB,STUDY001-SUBJ0003,1,L00001,HGB,Hemoglobin,HEMATOLOGY,17.24,g/dL,13.5,17.5,17.24,17.24,g/dL,13.5,17.5,NORMAL,,SCREENING,1,2025-04-03,-14
STUDY001,LB,STUDY001-SUBJ0003,2,L00002,HCT,Hematocrit,HEMATOLOGY,45.21,%,41.0,51.0,45.21,45.21,%,41.0,51.0,NORMAL,,SCREENING,1,2025-04-03,-14
STUDY001,LB,STUDY001-SUBJ0003,3,L00003,WBC,White Blood Cell Count,HEMATOLOGY,6.54,10^9/L,4.5,11.0,6.54,6.54,10^9/L,4.5,11.0,NORMAL,,SCREENING,1,2025-04-03,-14
STUDY001,LB,STUDY001-SUBJ0003,4,L00004,PLT,Platelet Count,HEMATOLOGY,341.11,10^9/L,150.0,450.0,341.11,341.11,10^9/L,150.0,450.0,NORMAL,,SCREENING,1,2025-04-03,-14
STUDY001,LB,STUDY001-SUBJ0003,5,L00005,GLUC,Glucose,CHEMISTRY,93.14,mg/dL,70.0,100.0,93.14,93.14,mg/dL,70.0,100.0,NORMAL,,SCREENING,1,2025-04-03,-14
STUDY001,LB,STUDY001-SUBJ0003,6,L00006,BUN,Blood Urea Nitrogen,CHEMISTRY,14.46,mg/dL,7.0,20.0,14.46,14.46,mg/dL,7.0,20.0,NORMAL,,SCREENING,1,2025-04-03,-14
STUDY001,LB,STUDY001-SUBJ0003,7,L00007,CREAT,Creatinine,CHEMISTRY,0.47,mg/dL,0.6,1.2,0.47,0.47,mg/dL,0.6,1.2,LOW,,SCREENING,1,2025-04-03,-14
STUDY001,LB,STUDY001-SUBJ0003,8,L00008,BILI,Total Bilirubin,CHEMISTRY,0.69,mg/dL,0.1,1.2,0.69,0.69,mg/dL,0.1,1.2,NORMAL,,SCREENING,1,2025-04-03,-14
STUDY001,LB,STUDY001-SUBJ0003,9,L00009,ALP,Alkaline Phosphatase,CHEMISTRY,137.05,U/L,44.0,147.0,137.05,137.05,U/L,44.0,147.0,NORMAL,,SCREENING,1,2025-04-03,-14
STUDY001,LB,STUDY001-SUBJ0003,10,L00010,ALT,Alanine Aminotransferase,CHEMISTRY,39.76,U/L,7.0,56.0,39.76,39.76,U/L,7.0,56.0,NORMAL,,SCREENING,1,2025-04-03,-14
STUDY001,LB,STUDY001-SUBJ0003,11,L00011,HGB,Hemoglobin,HEMATOLOGY,17.11,g/dL,13.5,17.5,17.11,17.11,g/dL,13.5,17.5,NORMAL,Y,BASELINE,2,2025-04-17,1
STUDY001,LB,STUDY001-SUBJ0003,12,L00012,HCT,Hematocrit,HEMATOLOGY,45.72,%,41.0,51.0,45.72,45.72,%,41.0,51.0,NORMAL,Y,BASELINE,2,2025-04-17,1
STUDY001,LB,STUDY001-SUBJ0003,13,L00013,WBC,White Blood Cell Count,HEMATOLOGY,6.48,10^9/L,4.5,11.0,6.48,6.48,10^9/L,4.5,11.0,NORMAL,Y,BASELINE,2,2025-04-17,1
STUDY001,LB,STUDY001-SUBJ0003,14,L00014,PLT,Platelet Count,HEMATOLOGY,346.73,10^9/L,150.0,450.0,346.73,346.73,10^9/L,150.0,450.0,NORMAL,Y,BASELINE,2,2025-04-17,1
STUDY001,LB,STUDY001-SUBJ0003,15,L00015,GLUC,Glucose,CHEMISTRY,92.07,mg/dL,70.0,100.0,92.07,92.07,mg/dL,70.0,100.0,NORMAL,Y,BASELINE,2,2025-04-17,1
STUDY001,LB,STUDY001-SUBJ0003,16,L00016,BUN,Blood Urea Nitrogen,CHEMISTRY,14.51,mg/dL,7.0,20.0,14.51,14.51,mg/dL,7.0,20.0,NORMAL,Y,BASELINE,2,2025-04-17,1
STUDY001,LB,STUDY001-SUBJ0003,17,L00017,CREAT,Creatinine,CHEMISTRY,0.47,mg/dL,0.6,1.2,0.47,0.47,mg/dL,0.6,1.2,LOW,Y,BASELINE,2,2025-04-17,1
STUDY001,LB,STUDY001-SUBJ0003,18,L00018,BILI,Total Bilirubin,CHEMISTRY,0.71,mg/dL,0.1,1.2,0.71,0.71,mg/dL,0.1,1.2,NORMAL,Y,BASELINE,2,2025-04-17,1
STUDY001,LB,STUDY001-SUBJ0003,19,L00019,ALP,Alkaline Phosphatase,CHEMISTRY,135.85,U/L,44.0,147.0,135.85,135.85,U/L,44.0,147.0,NORMAL,Y,BASELINE,2,2025-04-17,1
STUDY001,LB,STUDY001-SUBJ0003,20,L00020,ALT,Alanine Aminotransferase,CHEMISTRY,38.93,U/L,7.0,56.0,38.93,38.93,U/L,7.0,56.0,NORMAL,Y,BASELINE,2,2025-04-17,1
STUDY001,LB,STUDY001-SUBJ0003,21,L00021,HGB,Hemoglobin,HEMATOLOGY,17.18,g/dL,13.5,17.5,17.18,17.18,g/dL,13.5,17.5,NORMAL,,WEEK 1,3,2025-04-23,7
STUDY001,LB,STUDY001-SUBJ0003,22,L00022,HCT,Hematocrit,HEMATOLOGY,45.66,%,41.0,51.0,45.66,45.66,%,41.0,51.0,NORMAL,,WEEK 1,3,2025-04-23,7
STUDY001,LB,STUDY001-SUBJ0003,23,L00023,WBC,White Blood Cell Count,HEMATOLOGY,6.75,10^9/L,4.5,11.0,6.75,6.75,10^9/L,4.5,11.0,NORMAL,,WEEK 1,3,2025-04-23,7
STUDY001,LB,STUDY001-SUBJ0003,24,L00024,PLT,Platelet Count,HEMATOLOGY,347.38,10^9/L,150.0,450.0,347.38,347.38,10^9/L,150.0,450.0,NORMAL,,WEEK 1,3,2025-04-23,7
STUDY001,LB,STUDY001-SUBJ0003,25,L00025,GLUC,Glucose,CHEMISTRY,91.7,mg/dL,70.0,100.0,91.7,91.7,mg/dL,70.0,100.0,NORMAL,,WEEK 1,3,2025-04-23,7
STUDY001,LB,STUDY001-SUBJ0003,26,L00026,BUN,Blood Urea Nitrogen,CHEMISTRY,14.28,mg/dL,7.0,20.0,14.28,14.28,mg/dL,7.0,20.0,NORMAL,,WEEK 1,3,2025-04-23,7
STUDY001,LB,STUDY001-SUBJ0003,27,L00027,CREAT,Creatinine,CHEMISTRY,0.48,mg/dL,0.6,1.2,0.48,0.48,mg/dL,0.6,1.2,LOW,,WEEK 1,3,2025-04-23,7
STUDY001,LB,STUDY001-SUBJ0003,28,L00028,BILI,Total Bilirubin,CHEMISTRY,0.68,mg/dL,0.1,1.2,0.68,0.68,mg/dL,0.1,1.2,NORMAL,,WEEK 1,3,2025-04-23,7
STUDY001,LB,STUDY001-SUBJ0003,29,L00029,ALP,Alkaline Phosphatase,CHEMISTRY,134.05,U/L,44.0,147.0,134.05,134.05,U/L,44.0,147.0,NORMAL,,WEEK 1,3,2025-04-23,7
STUDY001,LB,STUDY001-SUBJ0003,30,L00030,ALT,Alanine Aminotransferase,CHEMISTRY,40.76,U/L,7.0,56.0,40.76,40.76,U/L,7.0,56.0,NORMAL,,WEEK 1,3,2025-04-23,7
STUDY001,LB,STUDY001-SUBJ0003,31,L00031,HGB,Hemoglobin,HEMATOLOGY,17.14,g/dL,13.5,17.5,17.14,17.14,g/dL,13.5,17.5,NORMAL,,WEEK 2,4,2025-04-30,14
STUDY001,LB,STUDY001-SUBJ0003,32,L00032,HCT,Hematocrit,HEMATOLOGY,45.06,%,41.0,51.0,45.06,45.06,%,41.0,51.0,NORMAL,,WEEK 2,4,2025-04-30,14
STUDY001,LB,STUDY001-SUBJ0003,33,L00033,WBC,White Blood Cell Count,HEMATOLOGY,6.49,10^9/L,4.5,11.0,6.49,6.49,10^9/L,4.5,11.0,NORMAL,,WEEK 2,4,2025-04-30,14
STUDY001,LB,STUDY001-SUBJ0003,34,L00034,PLT,Platelet Count,HEMATOLOGY,343.89,10^9/L,150.0,450.0,343.89,343.89,10^9/L,150.0,450.0,NORMAL,,WEEK 2,4,2025-04-30,14
STUDY001,LB,STUDY001-SUBJ0003,35,L00035,GLUC,Glucose,CHEMISTRY,91.29,mg/dL,70.0,100.0,91.29,91.29,mg/dL,70.0,100.0,NORMAL,,WEEK 2,4,2025-04-30,14
STUDY001,LB,STUDY001-SUBJ0003,36,L00036,BUN,Blood Urea Nitrogen,CHEMISTRY,14.09,mg/dL,7.0,20.0,14.09,14.09,mg/dL,7.0,20.0,NORMAL,,WEEK 2,4,2025-04-30,14
STUDY001,LB,STUDY001-SUBJ0003,37,L00037,CREAT,Creatinine,CHEMISTRY,0.46,mg/dL,0.6,1.2,0.46,0.46,mg/dL,0.6,1.2,LOW,,WEEK 2,4,2025-04-30,14
STUDY001,LB,STUDY001-SUBJ0003,38,L00038,BILI,Total Bilirubin,CHEMISTRY,0.67,mg/dL,0.1,1.2,0.67,0.67,mg/dL,0.1,1.2,NORMAL,,WEEK 2,4,2025-04-30,14
STUDY001,LB,STUDY001-SUBJ0003,39,L00039,ALP,Alkaline Phosphatase,CHEMISTRY,134.07,U/L,44.0,147.0,134.07,134.07,U/L,44.0,147.0,NORMAL,,WEEK 2,4,2025-04-30,14
STUDY001,LB,STUDY001-SUBJ0003,40,L00040,ALT,Alanine Aminotransferase,CHEMISTRY,41.07,U/L,7.0,56.0,41.07,41.07,U/L,7.0,56.0,NORMAL,,WEEK 2,4,2025-04-30,14
STUDY001,LB,STUDY001-SUBJ0003,41,L00041,HGB,Hemoglobin,HEMATOLOGY,17.25,g/dL,13.5,17.5,17.25,17.25,g/dL,13.5,17.5,NORMAL,,WEEK 4,5,2025-05-14,28
STUDY001,LB,STUDY001-SUBJ0003,42,L00042,HCT,Hematocrit,HEMATOLOGY,45.51,%,41.0,51.0,45.51,45.51,%,41.0,51.0,NORMAL,,WEEK 4,5,2025-05-14,28
STUDY001,LB,STUDY001-SUBJ0003,43,L00043,WBC,White Blood Cell Count,HEMATOLOGY,6.57,10^9/L,4.5,11.0,6.57,6.57,10^9/L,4.5,11.0,NORMAL,,WEEK 4,5,2025-05-14,28
STUDY001,LB,STUDY001-SUBJ0003,44,L00044,PLT,Platelet Count,HEMATOLOGY,342.3,10^9/L,150.0,450.0,342.3,342.3,10^9/L,150.0,450.0,NORMAL,,WEEK 4,5,2025-05-14,28
STUDY001,LB,STUDY001-SUBJ0003,45,L00045,GLUC,Glucose,CHEMISTRY,93.91,mg/dL,70.0,100.0,93.91,93.91,mg/dL,70.0,100.0,NORMAL,,WEEK 4,5,2025-05-14,28
STUDY001,LB,STUDY001-SUBJ0003,46,L00046,BUN,Blood Urea Nitrogen,CHEMISTRY,13.81,mg/dL,7.0,20.0,13.81,13.81,mg/dL,7.0,20.0,NORMAL,,WEEK 4,5,2025-05-14,28
STUDY001,LB,STUDY001-SUBJ0003,47,L00047,CREAT,Creatinine,CHEMISTRY,0.48,mg/dL,0.6,1.2,0.48,0.48,mg/dL,0.6,1.2,LOW,,WEEK 4,5,2025-05-14,28
STUDY001,LB,STUDY001-SUBJ0003,48,L00048,BILI,Total Bilirubin,CHEMISTRY,0.72,mg/dL,0.1,1.2,0.72,0.72,mg/dL,0.1,1.2,NORMAL,,WEEK 4,5,2025-05-14,28
STUDY001,LB,STUDY001-SUBJ0003,49,L00049,ALP,Alkaline Phosphatase,CHEMISTRY,134.22,U/L,44.0,147.0,134.22,134.22,U/L,44.0,147.0,NORMAL,,WEEK 4,5,2025-05-14,28
STUDY001,LB,STUDY001-SUBJ0003,50,L00050,ALT,Alanine Aminotransferase,CHEMISTRY,41.52,U/L,7.0,56.0,41.52,41.52,U/L,7.0,56.0,NORMAL,,WEEK 4,5,2025-05-14,28
STUDY001,LB,STUDY001-SUBJ0003,51,L00051,HGB,Hemoglobin,HEMATOLOGY,17.33,g/dL,13.5,17.5,17.33,17.33,g/dL,13.5,17.5,NORMAL,,WEEK 8,6,2025-06-11,56
STUDY001,LB,STUDY001-SUBJ0003,52,L00052,HCT,Hematocrit,HEMATOLOGY,45.61,%,41.0,51.0,45.61,45.61,%,41.0,51.0,NORMAL,,WEEK 8,6,2025-06-11,56
STUDY001,LB,STUDY001-SUBJ0003,53,L00053,WBC,White Blood Cell Count,HEMATOLOGY,6.51,10^9/L,4.5,11.0,6.51,6.51,10^9/L,4.5,11.0,NORMAL,,WEEK 8,6,2025-06-11,56
STUDY001,LB,STUDY001-SUBJ0003,54,L00054,PLT,Platelet Count,HEMATOLOGY,349.03,10^9/L,150.0,450.0,349.03,349.03,10^9/L,150.0,450.0,NORMAL,,WEEK 8,6,2025-06-11,56
STUDY001,LB,STUDY001-SUBJ0003,55,L00055,GLUC,Glucose,CHEMISTRY,93.19,mg/dL,70.0,100.0,93.19,93.19,mg/dL,70.0,100.0,NORMAL,,WEEK 8,6,2025-06-11,56
STUDY001,LB,STUDY001-SUBJ0003,56,L00056,BUN,Blood Urea Nitrogen,CHEMISTRY,13.91,mg/dL,7.0,20.0,13.91,13.91,mg/dL,7.0,20.0,NORMAL,,WEEK 8,6,2025-06-11,56
STUDY001,LB,STUDY001-SUBJ0003,57,L00057,CREAT,Creatinine,CHEMISTRY,0.48,mg/dL,0.6,1.2,0.48,0.48,mg/dL,0.6,1.2,LOW,,WEEK 8,6,2025-06-11,56
STUDY001,LB,STUDY001-SUBJ0003,58,L00058,BILI,Total Bilirubin,CHEMISTRY,0.68,mg/dL,0.1,1.2,0.68,0.68,mg/dL,0.1,1.2,NORMAL,,WEEK 8,6,2025-06-11,56
STUDY001,LB,STUDY001-SUBJ0003,59,L00059,ALP,Alkaline Phosphatase,CHEMISTRY,131.11,U/L,44.0,147.0,131.11,131.11,U/L,44.0,147.0,NORMAL,,WEEK 8,6,2025-06-11,56
STUDY001,LB,STUDY001-SUBJ0003,60,L00060,ALT,Alanine Aminotransferase,CHEMISTRY,40.92,U/L,7.0,56.0,40.92,40.92,U/L,7.0,56.0,NORMAL,,WEEK 8,6,2025-06-11,56
STUDY001,LB,STUDY001-SUBJ0003,61,L00061,HGB,Hemoglobin,HEMATOLOGY,17.07,g/dL,13.5,17.5,17.07,17.07,g/dL,13.5,17.5,NORMAL,,WEEK 12,7,2025-07-09,84
STUDY001,LB,STUDY001-SUBJ0003,62,L00062,HCT,Hematocrit,HEMATOLOGY,45.52,%,41.0,51.0,45.52,45.52,%,41.0,51.0,NORMAL,,WEEK 12,7,2025-07-09,84
STUDY001,LB,STUDY001-SUBJ0003,63,L00063,WBC,White Blood Cell Count,HEMATOLOGY,6.61,10^9/L,4.5,11.0,6.61,6.61,10^9/L,4.5,11.0,NORMAL,,WEEK 12,7,2025-07-09,84
STUDY001,LB,STUDY001-SUBJ0003,64,L00064,PLT,Platelet Count,HEMATOLOGY,339.46,10^9/L,150.0,450.0,339.46,339.46,10^9/L,150.0,450.0,NORMAL,,WEEK 12,7,2025-07-09,84
STUDY001,LB,STUDY001-SUBJ0003,65,L00065,GLUC,Glucose,CHEMISTRY,91.46,mg/dL,70.0,100.0,91.46,91.46,mg/dL,70.0,100.0,NORMAL,,WEEK 12,7,2025-07-09,84
STUDY001,LB,STUDY001-SUBJ0003,66,L00066,BUN,Blood Urea Nitrogen,CHEMISTRY,14.56,mg/dL,7.0,20.0,14.56,14.56,mg/dL,7.0,20.0,NORMAL,,WEEK 12,7,2025-07-09,84
STUDY001,LB,STUDY001-SUBJ0003,67,L00067,CREAT,Creatinine,CHEMISTRY,0.48,mg/dL,0.6,1.2,0.48,0.48,mg/dL,0.6,1.2,LOW,,WEEK 12,7,2025-07-09,84
STUDY001,LB,STUDY001-SUBJ0003,68,L00068,BILI,Total Bilirubin,CHEMISTRY,0.67,mg/dL,0.1,1.2,0.67,0.67,mg/dL,0.1,1.2,NORMAL,,WEEK 12,7,2025-07-09,84
STUDY001,LB,STUDY001-SUBJ0003,69,L00069,ALP,Alkaline Phosphatase,CHEMISTRY,136.55,U/L,44.0,147.0,136.55,136.55,U/L,44.0,147.0,NORMAL,,WEEK 12,7,2025-07-09,84
STUDY001,LB,STUDY001-SUBJ0003,70,L00070,ALT,Alanine Aminotransferase,CHEMISTRY,42.34,U/L,7.0,56.0,42.34,42.34,U/L,7.0,56.0,NORMAL,,WEEK 12,7,2025-07-09,84
STUDY001,LB,STUDY001-SUBJ0003,71,L00071,HGB,Hemoglobin,HEMATOLOGY,17.32,g/dL,13.5,17.5,17.32,17.32,g/dL,13.5,17.5,NORMAL,,WEEK 16,8,2025-08-06,112
STUDY001,LB,STUDY001-SUBJ0003,72,L00072,HCT,Hematocrit,HEMATOLOGY,45.28,%,41.0,51.0,45.28,45.28,%,41.0,51.0,NORMAL,,WEEK 16,8,2025-08-06,112
STUDY001,LB,STUDY001-SUBJ0003,73,L00073,WBC,White Blood Cell Count,HEMATOLOGY,6.44,10^9/L,4.5,11.0,6.44,6.44,10^9/L,4.5,11.0,NORMAL,,WEEK 16,8,2025-08-06,112
STUDY001,LB,STUDY001-SUBJ0003,74,L00074,PLT,Platelet Count,HEMATOLOGY,335.44,10^9/L,150.0,450.0,335.44,335.44,10^9/L,150.0,450.0,NORMAL,,WEEK 16,8,2025-08-06,112
STUDY001,LB,STUDY001-SUBJ0003,75,L00075,GLUC,Glucose,CHEMISTRY,92.17,mg/dL,70.0,100.0,92.17,92.17,mg/dL,70.0,100.0,NORMAL,,WEEK 16,8,2025-08-06,112
STUDY001,LB,STUDY001-SUBJ0003,76,L00076,BUN,Blood Urea Nitrogen,CHEMISTRY,14.31,mg/dL,7.0,20.0,14.31,14.31,mg/dL,7.0,20.0,NORMAL,,WEEK 16,8,2025-08-06,112
STUDY001,LB,STUDY001-SUBJ0003,77,L00077,CREAT,Creatinine,CHEMISTRY,0.47,mg/dL,0.6,1.2,0.47,0.47,mg/dL,0.6,1.2,LOW,,WEEK 16,8,2025-08-06,112
STUDY001,LB,STUDY001-SUBJ0003,78,L00078,BILI,Total Bilirubin,CHEMISTRY,0.68,mg/dL,0.1,1.2,0.68,0.68,mg/dL,0.1,1.2,NORMAL,,WEEK 16,8,2025-08-06,112
STUDY001,LB,STUDY001-SUBJ0003,79,L00079,ALP,Alkaline Phosphatase,CHEMISTRY,134.47,U/L,44.0,147.0,134.47,134.47,U/L,44.0,147.0,NORMAL,,WEEK 16,8,2025-08-06,112
STUDY001,LB,STUDY001-SUBJ0003,80,L00080,ALT,Alanine Aminotransferase,CHEMISTRY,40.11,U/L,7.0,56.0,40.11,40.11,U/L,7.0,56.0,NORMAL,,WEEK 16,8,2025-08-06,112
STUDY001,LB,STUDY001-SUBJ0003,81,L00081,HGB,Hemoglobin,HEMATOLOGY,17.21,g/dL,13.5,17.5,17.21,17.21,g/dL,13.5,17.5,NORMAL,,END OF TREATMENT,9,2025-09-03,140
STUDY001,LB,STUDY001-SUBJ0003,82,L00082,HCT,Hematocrit,HEMATOLOGY,45.34,%,41.0,51.0,45.34,45.34,%,41.0,51.0,NORMAL,,END OF TREATMENT,9,2025-09-03,140
STUDY001,LB,STUDY001-SUBJ0003,83,L00083,WBC,White Blood Cell Count,HEMATOLOGY,6.66,10^9/L,4.5,11.0,6.66,6.66,10^9/L,4.5,11.0,NORMAL,,END OF TREATMENT,9,2025-09-03,140
STUDY001,LB,STUDY001-SUBJ0003,84,L00084,PLT,Platelet Count,HEMATOLOGY,338.44,10^9/L,150.0,450.0,338.44,338.44,10^9/L,150.0,450.0,NORMAL,,END OF TREATMENT,9,2025-09-03,140
STUDY001,LB,STUDY001-SUBJ0003,85,L00085,GLUC,Glucose,CHEMISTRY,90.91,mg/dL,70.0,100.0,90.91,90.91,mg/dL,70.0,100.0,NORMAL,,END OF TREATMENT,9,2025-09-03,140
STUDY001,LB,STUDY001-SUBJ0003,86,L00086,BUN,Blood Urea Nitrogen,CHEMISTRY,13.89,mg/dL,7.0,20.0,13.89,13.89,mg/dL,7.0,20.0,NORMAL,,END OF TREATMENT,9,2025-09-03,140
STUDY001,LB,STUDY001-SUBJ0003,87,L00087,CREAT,Creatinine,CHEMISTRY,0.46,mg/dL,0.6,1.2,0.46,0.46,mg/dL,0.6,1.2,LOW,,END OF TREATMENT,9,2025-09-03,140
STUDY001,LB,STUDY001-SUBJ0003,88,L00088,BILI,Total Bilirubin,CHEMISTRY,0.71,mg/dL,0.1,1.2,0.71,0.71,mg/dL,0.1,1.2,NORMAL,,END OF TREATMENT,9,2025-09-03,140
STUDY001,LB,STUDY001-SUBJ0003,89,L00089,ALP,Alkaline Phosphatase,CHEMISTRY,132.2,U/L,44.0,147.0,132.2,132.2,U/L,44.0,147.0,NORMAL,,END OF TREATMENT,9,2025-09-03,140
STUDY001,LB,STUDY001-SUBJ0003,90,L00090,ALT,Alanine Aminotransferase,CHEMISTRY,39.97,U/L,7.0,56.0,39.97,39.97,U/L,7.0,56.0,NORMAL,,END OF TREATMENT,9,2025-09-03,140
STUDY001,LB,STUDY001-SUBJ0004,1,L00001,HGB,Hemoglobin,HEMATOLOGY,13.82,g/dL,13.5,17.5,13.82,13.82,g/dL,13.5,17.5,NORMAL,,SCREENING,1,2025-04-23,-14
STUDY001,LB,STUDY001-SUBJ0004,2,L00002,HCT,Hematocrit,HEMATOLOGY,42.77,%,41.0,51.0,42.77,42.77,%,41.0,51.0,NORMAL,,SCREENING,1,2025-04-23,-14
STUDY001,LB,STUDY001-SUBJ0004,3,L00003,WBC,White Blood Cell Count,HEMATOLOGY,8.08,10^9/L,4.5,11.0,8.08,8.08,10^9/L,4.5,11.0,NORMAL,,SCREENING,1,2025-04-23,-14
STUDY001,LB,STUDY001-SUBJ0004,4,L00004,PLT,Platelet Count,HEMATOLOGY,326.32,10^9/L,150.0,450.0,326.32,326.32,10^9/L,150.0,450.0,NORMAL,,SCREENING,1,2025-04-23,-14
STUDY001,LB,STUDY001-SUBJ0004,5,L00005,GLUC,Glucose,CHEMISTRY,81.72,mg/dL,70.0,100.0,81.72,81.72,mg/dL,70.0,100.0,NORMAL,,SCREENING,1,2025-04-23,-14
STUDY001,LB,STUDY001-SUBJ0004,6,L00006,BUN,Blood Urea Nitrogen,CHEMISTRY,14.57,mg/dL,7.0,20.0,14.57,14.57,mg/dL,7.0,20.0,NORMAL,,SCREENING,1,2025-04-23,-14
STUDY001,LB,STUDY001-SUBJ0004,7,L00007,CREAT,Creatinine,CHEMISTRY,1.06,mg/dL,0.6,1.2,1.06,1.06,mg/dL,0.6,1.2,NORMAL,,SCREENING,1,2025-04-23,-14
STUDY001,LB,STUDY001-SUBJ0004,8,L00008,BILI,Total Bilirubin,CHEMISTRY,0.6,mg/dL,0.1,1.2,0.6,0.6,mg/dL,0.1,1.2,NORMAL,,SCREENING,1,2025-04-23,-14
STUDY001,LB,STUDY001-SUBJ0004,9,L00009,ALP,Alkaline Phosphatase,CHEMISTRY,123.81,U/L,44.0,147.0,123.81,123.81,U/L,44.0,147.0,NORMAL,,SCREENING,1,2025-04-23,-14
STUDY001,LB,STUDY001-SUBJ0004,10,L00010,ALT,Alanine Aminotransferase,CHEMISTRY,25.64,U/L,7.0,56.0,25.64,25.64,U/L,7.0,56.0,NORMAL,,SCREENING,1,2025-04-23,-14
STUDY001,LB,STUDY001-SUBJ0004,11,L00011,HGB,Hemoglobin,HEMATOLOGY,13.98,g/dL,13.5,17.5,13.98,13.98,g/dL,13.5,17.5,NORMAL,Y,BASELINE,2,2025-05-07,1
STUDY001,LB,STUDY001-SUBJ0004,12,L00012,HCT,Hematocrit,HEMATOLOGY,43.05,%,41.0,51.0,43.05,43.05,%,41.0,51.0,NORMAL,Y,BASELINE,2,2025-05-07,1
STUDY001,LB,STUDY001-SUBJ0004,13,L00013,WBC,White Blood Cell Count,HEMATOLOGY,7.87,10^9/L,4.5,11.0,7.87,7.87,10^9/L,4.5,11.0,NORMAL,Y,BASELINE,2,2025-05-07,1
STUDY001,LB,STUDY001-SUBJ0004,14,L00014,PLT,Platelet Count,HEMATOLOGY,325.49,10^9/L,150.0,450.0,325.49,325.49,10^9/L,150.0,450.0,NORMAL,Y,BASELINE,2,2025-05-07,1
STUDY001,LB,STUDY001-SUBJ0004,15,L00015,GLUC,Glucose,CHEMISTRY,81.83,mg/dL,70.0,100.0,81.83,81.83,mg/dL,70.0,100.0,NORMAL,Y,BASELINE,2,2025-05-07,1
STUDY001,LB,STUDY001-SUBJ0004,16,L00016,BUN,Blood Urea Nitrogen,CHEMISTRY,15.25,mg/dL,7.0,20.0,15.25,15.25,mg/dL,7.0,20.0,NORMAL,Y,BASELINE,2,2025-05-07,1
STUDY001,LB,STUDY001-SUBJ0004,17,L00017,CREAT,Creatinine,CHEMISTRY,1.04,mg/dL,0.6,1.2,1.04,1.04,mg/dL,0.6,1.2,NORMAL,Y,BASELINE,2,2025-05-07,1
STUDY001,LB,STUDY001-SUBJ0004,18,L00018,BILI,Total Bilirubin,CHEMISTRY,0.65,mg/dL,0.1,1.2,0.65,0.65,mg/dL,0.1,1.2,NORMAL,Y,BASELINE,2,2025-05-07,1
STUDY001,LB,STUDY001-SUBJ0004,19,L00019,ALP,Alkaline Phosphatase,CHEMISTRY,125.17,U/L,44.0,147.0,125.17,125.17,U/L,44.0,147.0,NORMAL,Y,BASELINE,2,2025-05-07,1
STUDY001,LB,STUDY001-SUBJ0004,20,L00020,ALT,Alanine Aminotransferase,CHEMISTRY,24.48,U/L,7.0,56.0,24.48,24.48,U/L,7.0,56.0,NORMAL,Y,BASELINE,2,2025-05-07,1
STUDY001,LB,STUDY001-SUBJ0004,21,L00021,HGB,Hemoglobin,HEMATOLOGY,14.02,g/dL,13.5,17.5,14.02,14.02,g/dL,13.5,17.5,NORMAL,,WEEK 1,3,2025-05-13,7
STUDY001,LB,STUDY001-SUBJ0004,22,L00022,HCT,Hematocrit,HEMATOLOGY,43.21,%,41.0,51.0,43.21,43.21,%,41.0,51.0,NORMAL,,WEEK 1,3,2025-05-13,7
STUDY001,LB,STUDY001-SUBJ0004,23,L00023,WBC,White Blood Cell Count,HEMATOLOGY,8.04,10^9/L,4.5,11.0,8.04,8.04,10^9/L,4.5,11.0,NORMAL,,WEEK 1,3,2025-05-13,7
STUDY001,LB,STUDY001-SUBJ0004,24,L00024,PLT,Platelet Count,HEMATOLOGY,318.56,10^9/L,150.0,450.0,318.56,318.56,10^9/L,150.0,450.0,NORMAL,,WEEK 1,3,2025-05-13,7
STUDY001,LB,STUDY001-SUBJ0004,25,L00025,GLUC,Glucose,CHEMISTRY,82.91,mg/dL,70.0,100.0,82.91,82.91,mg/dL,70.0,100.0,NORMAL,,WEEK 1,3,2025-05-13,7
STUDY001,LB,STUDY001-SUBJ0004,26,L00026,BUN,Blood Urea Nitrogen,CHEMISTRY,15.44,mg/dL,7.0,20.0,15.44,15.44,mg/dL,7.0,20.0,NORMAL,,WEEK 1,3,2025-05-13,7
STUDY001,LB,STUDY001-SUBJ0004,27,L00027,CREAT,Creatinine,CHEMISTRY,1.04,mg/dL,0.6,1.2,1.04,1.04,mg/dL,0.6,1.2,NORMAL,,WEEK 1,3,2025-05-13,7
STUDY001,LB,STUDY001-SUBJ0004,28,L00028,BILI,Total Bilirubin,CHEMISTRY,0.65,mg/dL,0.1,1.2,0.65,0.65,mg/dL,0.1,1.2,NORMAL,,WEEK 1,3,2025-05-13,7
STUDY001,LB,STUDY001-SUBJ0004,29,L00029,ALP,Alkaline Phosphatase,CHEMISTRY,121.38,U/L,44.0,147.0,121.38,121.38,U/L,44.0,147.0,NORMAL,,WEEK 1,3,2025-05-13,7
STUDY001,LB,STUDY001-SUBJ0004,30,L00030,ALT,Alanine Aminotransferase,CHEMISTRY,26.14,U/L,7.0,56.0,26.14,26.14,U/L,7.0,56.0,NORMAL,,WEEK 1,3,2025-05-13,7
STUDY001,LB,STUDY001-SUBJ0004,31,L00031,HGB,Hemoglobin,HEMATOLOGY,13.97,g/dL,13.5,17.5,13.97,13.97,g/dL,13.5,17.5,NORMAL,,WEEK 2,4,2025-05-20,14
STUDY001,LB,STUDY001-SUBJ0004,32,L00032,HCT,Hematocrit,HEMATOLOGY,43.12,%,41.0,51.0,43.12,43.12,%,41.0,51.0,NORMAL,,WEEK 2,4,2025-05-20,14
STUDY001,LB,STUDY001-SUBJ0004,33,L00033,WBC,White Blood Cell Count,HEMATOLOGY,8.07,10^9/L,4.5,11.0,8.07,8.07,10^9/L,4.5,11.0,NORMAL,,WEEK 2,4,2025-05-20,14
STUDY001,LB,STUDY001-SUBJ0004,34,L00034,PLT,Platelet Count,HEMATOLOGY,335.52,10^9/L,150.0,450.0,335.52,335.52,10^9/L,150.0,450.0,NORMAL,,WEEK 2,4,2025-05-20,14
STUDY001,LB,STUDY001-SUBJ0004,35,L00035,GLUC,Glucose,CHEMISTRY,82.59,mg/dL,70.0,100.0,82.59,82.59,mg/dL,70.0,100.0,NORMAL,,WEEK 2,4,2025-05-20,14
STUDY001,LB,STUDY001-SUBJ0004,36,L00036,BUN,Blood Urea Nitrogen,CHEMISTRY,14.99,mg/dL,7.0,20.0,14.99,14.99,mg/dL,7.0,20.0,NORMAL,,WEEK 2,4,2025-05-20,14
STUDY001,LB,STUDY001-SUBJ0004,37,L00037,CREAT,Creatinine,CHEMISTRY,1.04,mg/dL,0.6,1.2,1.04,1.04,mg/dL,0.6,1.2,NORMAL,,WEEK 2,4,2025-05-20,14
STUDY001,LB,STUDY001-SUBJ0004,38,L00038,BILI,Total Bilirubin,CHEMISTRY,0.59,mg/dL,0.1,1.2,0.59,0.59,mg/dL,0.1,1.2,NORMAL,,WEEK 2,4,2025-05-20,14
STUDY001,LB,STUDY001-SUBJ0004,39,L00039,ALP,Alkaline Phosphatase,CHEMISTRY,122.79,U/L,44.0,147.0,122.79,122.79,U/L,44.0,147.0,NORMAL,,WEEK 2,4,2025-05-20,14
STUDY001,LB,STUDY001-SUBJ0004,40,L00040,ALT,Alanine Aminotransferase,CHEMISTRY,24.21,U/L,7.0,56.0,24.21,24.21,U/L,7.0,56.0,NORMAL,,WEEK 2,4,2025-05-20,14
STUDY001,LB,STUDY001-SUBJ0004,41,L00041,HGB,Hemoglobin,HEMATOLOGY,14.02,g/dL,13.5,17.5,14.02,14.02,g/dL,13.5,17.5,NORMAL,,WEEK 4,5,2025-06-03,28
STUDY001,LB,STUDY001-SUBJ0004,42,L00042,HCT,Hematocrit,HEMATOLOGY,43.22,%,41.0,51.0,43.22,43.22,%,41.0,51.0,NORMAL,,WEEK 4,5,2025-06-03,28
STUDY001,LB,STUDY001-SUBJ0004,43,L00043,WBC,White Blood Cell Count,HEMATOLOGY,8.09,10^9/L,4.5,11.0,8.09,8.09,10^9/L,4.5,11.0,NORMAL,,WEEK 4,5,2025-06-03,28
STUDY001,LB,STUDY001-SUBJ0004,44,L00044,PLT,Platelet Count,HEMATOLOGY,326.63,10^9/L,150.0,450.0,326.63,326.63,10^9/L,150.0,450.0,NORMAL,,WEEK 4,5,2025-06-03,28
STUDY001,LB,STUDY001-SUBJ0004,45,L00045,GLUC,Glucose,CHEMISTRY,80.77,mg/dL,70.0,100.0,80.77,80.77,mg/dL,70.0,100.0,NORMAL,,WEEK 4,5,2025-06-03,28
STUDY001,LB,STUDY001-SUBJ0004,46,L00046,BUN,Blood Urea Nitrogen,CHEMISTRY,15.0,mg/dL,7.0,20.0,15.0,15.0,mg/dL,7.0,20.0,NORMAL,,WEEK 4,5,2025-06-03,28
STUDY001,LB,STUDY001-SUBJ0004,47,L00047,CREAT,Creatinine,CHEMISTRY,1.06,mg/dL,0.6,1.2,1.06,1.06,mg/dL,0.6,1.2,NORMAL,,WEEK 4,5,2025-06-03,28
STUDY001,LB,STUDY001-SUBJ0004,48,L00048,BILI,Total Bilirubin,CHEMISTRY,0.61,mg/dL,0.1,1.2,0.61,0.61,mg/dL,0.1,1.2,NORMAL,,WEEK 4,5,2025-06-03,28
STUDY001,LB,STUDY001-SUBJ0004,49,L00049,ALP,Alkaline Phosphatase,CHEMISTRY,126.28,U/L,44.0,147.0,126.28,126.28,U/L,44.0,147.0,NORMAL,,WEEK 4,5,2025-06-03,28
STUDY001,LB,STUDY001-SUBJ0004,50,L00050,ALT,Alanine Aminotransferase,CHEMISTRY,25.31,U/L,7.0,56.0,25.31,25.31,U/L,7.0,56.0,NORMAL,,WEEK 4,5,2025-06-03,28
STUDY001,LB,STUDY001-SUBJ0004,51,L00051,HGB,Hemoglobin,HEMATOLOGY,13.97,g/dL,13.5,17.5,13.97,13.97,g/dL,13.5,17.5,NORMAL,,WEEK 8,6,2025-07-01,56
STUDY001,LB,STUDY001-SUBJ0004,52,L00052,HCT,Hematocrit,HEMATOLOGY,43.25,%,41.0,51.0,43.25,43.25,%,41.0,51.0,NORMAL,,WEEK 8,6,2025-07-01,56
STUDY001,LB,STUDY001-SUBJ0004,53,L00053,WBC,White Blood Cell Count,HEMATOLOGY,8.03,10^9/L,4.5,11.0,8.03,8.03,10^9/L,4.5,11.0,NORMAL,,WEEK 8,6,2025-07-01,56
STUDY001,LB,STUDY001-SUBJ0004,54,L00054,PLT,Platelet Count,HEMATOLOGY,324.44,10^9/L,150.0,450.0,324.44,324.44,10^9/L,150.0,450.0,NORMAL,,WEEK 8,6,2025-07-01,56
STUDY001,LB,STUDY001-SUBJ0004,55,L00055,GLUC,Glucose,CHEMISTRY,82.87,mg/dL,70.0,100.0,82.87,82.87,mg/dL,70.0,100.0,NORMAL,,WEEK 8,6,2025-07-01,56
STUDY001,LB,STUDY001-SUBJ0004,56,L00056,BUN,Blood Urea Nitrogen,CHEMISTRY,15.21,mg/dL,7.0,20.0,15.21,15.21,mg/dL,7.0,20.0,NORMAL,,WEEK 8,6,2025-07-01,56
STUDY001,LB,STUDY001-SUBJ0004,57,L00057,CREAT,Creatinine,CHEMISTRY,1.06,mg/dL,0.6,1.2,1.06,1.06,mg/dL,0.6,1.2,NORMAL,,WEEK 8,6,2025-07-01,56
STUDY001,LB,STUDY001-SUBJ0004,58,L00058,BILI,Total Bilirubin,CHEMISTRY,0.63,mg/dL,0.1,1.2,0.63,0.63,mg/dL,0.1,1.2,NORMAL,,WEEK 8,6,2025-07-01,56
STUDY001,LB,STUDY001-SUBJ0004,59,L00059,ALP,Alkaline Phosphatase,CHEMISTRY,120.51,U/L,44.0,147.0,120.51,120.51,U/L,44.0,147.0,NORMAL,,WEEK 8,6,2025-07-01,56
STUDY001,LB,STUDY001-SUBJ0004,60,L00060,ALT,Alanine Aminotransferase,CHEMISTRY,24.75,U/L,7.0,56.0,24.75,24.75,U/L,7.0,56.0,NORMAL,,WEEK 8,6,2025-07-01,56
STUDY001,LB,STUDY001-SUBJ0004,61,L00061,HGB,Hemoglobin,HEMATOLOGY,13.95,g/dL,13.5,17.5,13.95,13.95,g/dL,13.5,17.5,NORMAL,,WEEK 12,7,2025-07-29,84
STUDY001,LB,STUDY001-SUBJ0004,62,L00062,HCT,Hematocrit,HEMATOLOGY,42.71,%,41.0,51.0,42.71,42.71,%,41.0,51.0,NORMAL,,WEEK 12,7,2025-07-29,84
STUDY001,LB,STUDY001-SUBJ0004,63,L00063,WBC,White Blood Cell Count,HEMATOLOGY,7.96,10^9/L,4.5,11.0,7.96,7.96,10^9/L,4.5,11.0,NORMAL,,WEEK 12,7,2025-07-29,84
STUDY001,LB,STUDY001-SUBJ0004,64,L00064,PLT,Platelet Count,HEMATOLOGY,329.57,10^9/L,150.0,450.0,329.57,329.57,10^9/L,150.0,450.0,NORMAL,,WEEK 12,7,2025-07-29,84
STUDY001,LB,STUDY001-SUBJ0004,65,L00065,GLUC,Glucose,CHEMISTRY,83.45,mg/dL,70.0,100.0,83.45,83.45,mg/dL,70.0,100.0,NORMAL,,WEEK 12,7,2025-07-29,84
STUDY001,LB,STUDY001-SUBJ0004,66,L00066,BUN,Blood Urea Nitrogen,CHEMISTRY,15.19,mg/dL,7.0,20.0,15.19,15.19,mg/dL,7.0,20.0,NORMAL,,WEEK 12,7,2025-07-29,84
STUDY001,LB,STUDY001-SUBJ0004,67,L00067,CREAT,Creatinine,CHEMISTRY,1.04,mg/dL,0.6,1.2,1.04,1.04,mg/dL,0.6,1.2,NORMAL,,WEEK 12,7,2025-07-29,84
STUDY001,LB,STUDY001-SUBJ0004,68,L00068,BILI,Total Bilirubin,CHEMISTRY,0.62,mg/dL,0.1,1.2,0.62,0.62,mg/dL,0.1,1.2,NORMAL,,WEEK 12,7,2025-07-29,84
STUDY001,LB,STUDY001-SUBJ0004,69,L00069,ALP,Alkaline Phosphatase,CHEMISTRY,121.94,U/L,44.0,147.0,121.94,121.94,U/L,44.0,147.0,NORMAL,,WEEK 12,7,2025-07-29,84
STUDY001,LB,STUDY001-SUBJ0004,70,L00070,ALT,Alanine Aminotransferase,CHEMISTRY,26.29,U/L,7.0,56.0,26.29,26.29,U/L,7.0,56.0,NORMAL,,WEEK 12,7,2025-07-29,84
STUDY001,LB,STUDY001-SUBJ0004,71,L00071,HGB,Hemoglobin,HEMATOLOGY,14.05,g/dL,13.5,17.5,14.05,14.05,g/dL,13.5,17.5,NORMAL,,WEEK 16,8,2025-08-26,112
STUDY001,LB,STUDY001-SUBJ0004,72,L00072,HCT,Hematocrit,HEMATOLOGY,42.84,%,41.0,51.0,42.84,42.84,%,41.0,51.0,NORMAL,,WEEK 16,8,2025-08-26,112
STUDY001,LB,STUDY001-SUBJ0004,73,L00073,WBC,White Blood Cell Count,HEMATOLOGY,8.09,10^9/L,4.5,11.0,8.09,8.09,10^9/L,4.5,11.0,NORMAL,,WEEK 16,8,2025-08-26,112
STUDY001,LB,STUDY001-SUBJ0004,74,L00074,PLT,Platelet Count,HEMATOLOGY,320.61,10^9/L,150.0,450.0,320.61,320.61,10^9/L,150.0,450.0,NORMAL,,WEEK 16,8,2025-08-26,112
STUDY001,LB,STUDY001-SUBJ0004,75,L00075,GLUC,Glucose,CHEMISTRY,80.57,mg/dL,70.0,100.0,80.57,80.57,mg/dL,70.0,100.0,NORMAL,,WEEK 16,8,2025-08-26,112
STUDY001,LB,STUDY001-SUBJ0004,76,L00076,BUN,Blood Urea Nitrogen,CHEMISTRY,14.78,mg/dL,7.0,20.0,14.78,14.78,mg/dL,7.0,20.0,NORMAL,,WEEK 16,8,2025-08-26,112
STUDY001,LB,STUDY001-SUBJ0004,77,L00077,CREAT,Creatinine,CHEMISTRY,1.06,mg/dL,0.6,1.2,1.06,1.06,mg/dL,0.6,1.2,NORMAL,,WEEK 16,8,2025-08-26,112
STUDY001,LB,STUDY001-SUBJ0004,78,L00078,BILI,Total Bilirubin,CHEMISTRY,0.59,mg/dL,0.1,1.2,0.59,0.59,mg/dL,0.1,1.2,NORMAL,,WEEK 16,8,2025-08-26,112
STUDY001,LB,STUDY001-SUBJ0004,79,L00079,ALP,Alkaline Phosphatase,CHEMISTRY,124.62,U/L,44.0,147.0,124.62,124.62,U/L,44.0,147.0,NORMAL,,WEEK 16,8,2025-08-26,112
STUDY001,LB,STUDY001-SUBJ0004,80,L00080,ALT,Alanine Aminotransferase,CHEMISTRY,25.38,U/L,7.0,56.0,25.38,25.38,U/L,7.0,56.0,NORMAL,,WEEK 16,8,2025-08-26,112
STUDY001,LB,STUDY001-SUBJ0004,81,L00081,HGB,Hemoglobin,HEMATOLOGY,14.07,g/dL,13.5,17.5,14.07,14.07,g/dL,13.5,17.5,NORMAL,,END OF TREATMENT,9,2025-09-23,140
STUDY001,LB,STUDY001-SUBJ0004,82,L00082,HCT,Hematocrit,HEMATOLOGY,43.03,%,41.0,51.0,43.03,43.03,%,41.0,51.0,NORMAL,,END OF TREATMENT,9,2025-09-23,140
STUDY001,LB,STUDY001-SUBJ0004,83,L00083,WBC,White Blood Cell Count,HEMATOLOGY,7.71,10^9/L,4.5,11.0,7.71,7.71,10^9/L,4.5,11.0,NORMAL,,END OF TREATMENT,9,2025-09-23,140
STUDY001,LB,STUDY001-SUBJ0004,84,L00084,PLT,Platelet Count,HEMATOLOGY,321.45,10^9/L,150.0,450.0,321.45,321.45,10^9/L,150.0,450.0,NORMAL,,END OF TREATMENT,9,2025-09-23,140
STUDY001,LB,STUDY001-SUBJ0004,85,L00085,GLUC,Glucose,CHEMISTRY,82.91,mg/dL,70.0,100.0,82.91,82.91,mg/dL,70.0,100.0,NORMAL,,END OF TREATMENT,9,2025-09-23,140
STUDY001,LB,STUDY001-SUBJ0004,86,L00086,BUN,Blood Urea Nitrogen,CHEMISTRY,14.5,mg/dL,7.0,20.0,14.5,14.5,mg/dL,7.0,20.0,NORMAL,,END OF TREATMENT,9,2025-09-23,140
STUDY001,LB,STUDY001-SUBJ0004,87,L00087,CREAT,Creatinine,CHEMISTRY,1.06,mg/dL,0.6,1.2,1.06,1.06,mg/dL,0.6,1.2,NORMAL,,END OF TREATMENT,9,2025-09-23,140
STUDY001,LB,STUDY001-SUBJ0004,88,L00088,BILI,Total Bilirubin,CHEMISTRY,0.65,mg/dL,0.1,1.2,0.65,0.65,mg/dL,0.1,1.2,NORMAL,,END OF TREATMENT,9,2025-09-23,140
STUDY001,LB,STUDY001-SUBJ0004,89,L00089,ALP,Alkaline Phosphatase,CHEMISTRY,121.95,U/L,44.0,147.0,121.95,121.95,U/L,44.0,147.0,NORMAL,,END OF TREATMENT,9,2025-09-23,140
STUDY001,LB,STUDY001-SUBJ0004,90,L00090,ALT,Alanine Aminotransferase,CHEMISTRY,24.39,U/L,7.0,56.0,24.39,24.39,U/L,7.0,56.0,NORMAL,,END OF TREATMENT,9,2025-09-23,140
STUDY001,LB,STUDY001-SUBJ0005,1,L00001,HGB,Hemoglobin,HEMATOLOGY,14.58,g/dL,13.5,17.5,14.58,14.58,g/dL,13.5,17.5,NORMAL,,SCREENING,1,2024-11-29,-14
STUDY001,LB,STUDY001-SUBJ0005,2,L00002,HCT,Hematocrit,HEMATOLOGY,48.08,%,41.0,51.0,48.08,48.08,%,41.0,51.0,NORMAL,,SCREENING,1,2024-11-29,-14
STUDY001,LB,STUDY001-SUBJ0005,3,L00003,WBC,White Blood Cell Count,HEMATOLOGY,6.61,10^9/L,4.5,11.0,6.61,6.61,10^9/L,4.5,11.0,NORMAL,,SCREENING,1,2024-11-29,-14
STUDY001,LB,STUDY001-SUBJ0005,4,L00004,PLT,Platelet Count,HEMATOLOGY,230.26,10^9/L,150.0,450.0,230.26,230.26,10^9/L,150.0,450.0,NORMAL,,SCREENING,1,2024-11-29,-14
STUDY001,LB,STUDY001-SUBJ0005,5,L00005,GLUC,Glucose,CHEMISTRY,80.91,mg/dL,70.0,100.0,80.91,80.91,mg/dL,70.0,100.0,NORMAL,,SCREENING,1,2024-11-29,-14
STUDY001,LB,STUDY001-SUBJ0005,6,L00006,BUN,Blood Urea Nitrogen,CHEMISTRY,12.54,mg/dL,7.0,20.0,12.54,12.54,mg/dL,7.0,20.0,NORMAL,,SCREENING,1,2024-11-29,-14
STUDY001,LB,STUDY001-SUBJ0005,7,L00007,CREAT,Creatinine,CHEMISTRY,0.69,mg/dL,0.6,1.2,0.69,0.69,mg/dL,0.6,1.2,NORMAL,,SCREENING,1,2024-11-29,-14
STUDY001,LB,STUDY001-SUBJ0005,8,L00008,BILI,Total Bilirubin,CHEMISTRY,0.97,mg/dL,0.1,1.2,0.97,0.97,mg/dL,0.1,1.2,NORMAL,,SCREENING,1,2024-11-29,-14
STUDY001,LB,STUDY001-SUBJ0005,9,L00009,ALP,Alkaline Phosphatase,CHEMISTRY,111.87,U/L,44.0,147.0,111.87,111.87,U/L,44.0,147.0,NORMAL,,SCREENING,1,2024-11-29,-14
STUDY001,LB,STUDY001-SUBJ0005,10,L00010,ALT,Alanine Aminotransferase,CHEMISTRY,26.42,U/L,7.0,56.0,26.42,26.42,U/L,7.0,56.0,NORMAL,,SCREENING,1,2024-11-29,-14
STUDY001,LB,STUDY001-SUBJ0005,11,L00011,HGB,Hemoglobin,HEMATOLOGY,14.59,g/dL,13.5,17.5,14.59,14.59,g/dL,13.5,17.5,NORMAL,Y,BASELINE,2,2024-12-13,1
STUDY001,LB,STUDY001-SUBJ0005,12,L00012,HCT,Hematocrit,HEMATOLOGY,47.96,%,41.0,51.0,47.96,47.96,%,41.0,51.0,NORMAL,Y,BASELINE,2,2024-12-13,1
STUDY001,LB,STUDY001-SUBJ0005,13,L00013,WBC,White Blood Cell Count,HEMATOLOGY,6.42,10^9/L,4.5,11.0,6.42,6.42,10^9/L,4.5,11.0,NORMAL,Y,BASELINE,2,2024-12-13,1
STUDY001,LB,STUDY001-SUBJ0005,14,L00014,PLT,Platelet Count,HEMATOLOGY,234.33,10^9/L,150.0,450.0,234.33,234.33,10^9/L,150.0,450.0,NORMAL,Y,BASELINE,2,2024-12-13,1
STUDY001,LB,STUDY001-SUBJ0005,15,L00015,GLUC,Glucose,CHEMISTRY,82.43,mg/dL,70.0,100.0,82.43,82.43,mg/dL,70.0,100.0,NORMAL,Y,BASELINE,2,2024-12-13,1
STUDY001,LB,STUDY001-SUBJ0005,16,L00016,BUN,Blood Urea Nitrogen,CHEMISTRY,12.42,mg/dL,7.0,20.0,12.42,12.42,mg/dL,7.0,20.0,NORMAL,Y,BASELINE,2,2024-12-13,1
STUDY001,LB,STUDY001-SUBJ0005,17,L00017,CREAT,Creatinine,CHEMISTRY,0.68,mg/dL,0.6,1.2,0.68,0.68,mg/dL,0.6,1.2,NORMAL,Y,BASELINE,2,2024-12-13,1
STUDY001,LB,STUDY001-SUBJ0005,18,L00018,BILI,Total Bilirubin,CHEMISTRY,0.96,mg/dL,0.1,1.2,0.96,0.96,mg/dL,0.1,1.2,NORMAL,Y,BASELINE,2,2024-12-13,1
STUDY001,LB,STUDY001-SUBJ0005,19,L00019,ALP,Alkaline Phosphatase,CHEMISTRY,111.51,U/L,44.0,147.0,111.51,111.51,U/L,44.0,147.0,NORMAL,Y,BASELINE,2,2024-12-13,1
STUDY001,LB,STUDY001-SUBJ0005,20,L00020,ALT,Alanine Aminotransferase,CHEMISTRY,28.02,U/L,7.0,56.0,28.02,28.02,U/L,7.0,56.0,NORMAL,Y,BASELINE,2,2024-12-13,1
STUDY001,LB,STUDY001-SUBJ0005,21,L00021,HGB,Hemoglobin,HEMATOLOGY,14.47,g/dL,13.5,17.5,14.47,14.47,g/dL,13.5,17.5,NORMAL,,WEEK 1,3,2024-12-19,7
STUDY001,LB,STUDY001-SUBJ0005,22,L00022,HCT,Hematocrit,HEMATOLOGY,48.17,%,41.0,51.0,48.17,48.17,%,41.0,51.0,NORMAL,,WEEK 1,3,2024-12-19,7
STUDY001,LB,STUDY001-SUBJ0005,23,L00023,WBC,White Blood Cell Count,HEMATOLOGY,6.58,10^9/L,4.5,11.0,6.58,6.58,10^9/L,4.5,11.0,NORMAL,,WEEK 1,3,2024-12-19,7
STUDY001,LB,STUDY001-SUBJ0005,24,L00024,PLT,Platelet Count,HEMATOLOGY,230.57,10^9/L,150.0,450.0,230.57,230.57,10^9/L,150.0,450.0,NORMAL,,WEEK 1,3,2024-12-19,7
STUDY001,LB,STUDY001-SUBJ0005,25,L00025,GLUC,Glucose,CHEMISTRY,81.88,mg/dL,70.0,100.0,81.88,81.88,mg/dL,70.0,100.0,NORMAL,,WEEK 1,3,2024-12-19,7
STUDY001,LB,STUDY001-SUBJ0005,26,L00026,BUN,Blood Urea Nitrogen,CHEMISTRY,12.16,mg/dL,7.0,20.0,12.16,12.16,mg/dL,7.0,20.0,NORMAL,,WEEK 1,3,2024-12-19,7
STUDY001,LB,STUDY001-SUBJ0005,27,L00027,CREAT,Creatinine,CHEMISTRY,0.68,mg/dL,0.6,1.2,0.68,0.68,mg/dL,0.6,1.2,NORMAL,,WEEK 1,3,2024-12-19,7
STUDY001,LB,STUDY001-SUBJ0005,28,L00028,BILI,Total Bilirubin,CHEMISTRY,0.98,mg/dL,0.1,1.2,0.98,0.98,mg/dL,0.1,1.2,NORMAL,,WEEK 1,3,2024-12-19,7
STUDY001,LB,STUDY001-SUBJ0005,29,L00029,ALP,Alkaline Phosphatase,CHEMISTRY,112.85,U/L,44.0,147.0,112.85,112.85,U/L,44.0,147.0,NORMAL,,WEEK 1,3,2024-12-19,7
STUDY001,LB,STUDY001-SUBJ0005,30,L00030,ALT,Alanine Aminotransferase,CHEMISTRY,26.3,U/L,7.0,56.0,26.3,26.3,U/L,7.0,56.0,NORMAL,,WEEK 1,3,2024-12-19,7
STUDY001,LB,STUDY001-SUBJ0005,31,L00031,HGB,Hemoglobin,HEMATOLOGY,14.18,g/dL,13.5,17.5,14.18,14.18,g/dL,13.5,17.5,NORMAL,,WEEK 2,4,2024-12-26,14
STUDY001,LB,STUDY001-SUBJ0005,32,L00032,HCT,Hematocrit,HEMATOLOGY,47.82,%,41.0,51.0,47.82,47.82,%,41.0,51.0,NORMAL,,WEEK 2,4,2024-12-26,14
STUDY001,LB,STUDY001-SUBJ0005,33,L00033,WBC,White Blood Cell Count,HEMATOLOGY,6.71,10^9/L,4.5,11.0,6.71,6.71,10^9/L,4.5,11.0,NORMAL,,WEEK 2,4,2024-12-26,14
STUDY001,LB,STUDY001-SUBJ0005,34,L00034,PLT,Platelet Count,HEMATOLOGY,234.6,10^9/L,150.0,450.0,234.6,234.6,10^9/L,150.0,450.0,NORMAL,,WEEK 2,4,2024-12-26,14
STUDY001,LB,STUDY001-SUBJ0005,35,L00035,GLUC,Glucose,CHEMISTRY,82.21,mg/dL,70.0,100.0,82.21,82.21,mg/dL,70.0,100.0,NORMAL,,WEEK 2,4,2024-12-26,14
STUDY001,LB,STUDY001-SUBJ0005,36,L00036,BUN,Blood Urea Nitrogen,CHEMISTRY,12.66,mg/dL,7.0,20.0,12.66,12.66,mg/dL,7.0,20.0,NORMAL,,WEEK 2,4,2024-12-26,14
STUDY001,LB,STUDY001-SUBJ0005,37,L00037,CREAT,Creatinine,CHEMISTRY,0.68,mg/dL,0.6,1.2,0.68,0.68,mg/dL,0.6,1.2,NORMAL,,WEEK 2,4,2024-12-26,14
STUDY001,LB,STUDY001-SUBJ0005,38,L00038,BILI,Total Bilirubin,CHEMISTRY,0.97,mg/dL,0.1,1.2,0.97,0.97,mg/dL,0.1,1.2,NORMAL,,WEEK 2,4,2024-12-26,14
STUDY001,LB,STUDY001-SUBJ0005,39,L00039,ALP,Alkaline Phosphatase,CHEMISTRY,108.27,U/L,44.0,147.0,108.27,108.27,U/L,44.0,147.0,NORMAL,,WEEK 2,4,2024-12-26,14
STUDY001,LB,STUDY001-SUBJ0005,40,L00040,ALT,Alanine Aminotransferase,CHEMISTRY,23.19,U/L,7.0,56.0,23.19,23.19,U/L,7.0,56.0,NORMAL,,WEEK 2,4,2024-12-26,14
STUDY001,LB,STUDY001-SUBJ0005,41,L00041,HGB,Hemoglobin,HEMATOLOGY,14.43,g/dL,13.5,17.5,14.43,14.43,g/dL,13.5,17.5,NORMAL,,WEEK 4,5,2025-01-09,28
STUDY001,LB,STUDY001-SUBJ0005,42,L00042,HCT,Hematocrit,HEMATOLOGY,48.16,%,41.0,51.0,48.16,48.16,%,41.0,51.0,NORMAL,,WEEK 4,5,2025-01-09,28
STUDY001,LB,STUDY001-SUBJ0005,43,L00043,WBC,White Blood Cell Count,HEMATOLOGY,6.3,10^9/L,4.5,11.0,6.3,6.3,10^9/L,4.5,11.0,NORMAL,,WEEK 4,5,2025-01-09,28
STUDY001,LB,STUDY001-SUBJ0005,44,L00044,PLT,Platelet Count,HEMATOLOGY,232.95,10^9/L,150.0,450.0,232.95,232.95,10^9/L,150.0,450.0,NORMAL,,WEEK 4,5,2025-01-09,28
STUDY001,LB,STUDY001-SUBJ0005,45,L00045,GLUC,Glucose,CHEMISTRY,82.95,mg/dL,70.0,100.0,82.95,82.95,mg/dL,70.0,100.0,NORMAL,,WEEK 4,5,2025-01-09,28
STUDY001,LB,STUDY001-SUBJ0005,46,L00046,BUN,Blood Urea Nitrogen,CHEMISTRY,12.96,mg/dL,7.0,20.0,12.96,12.96,mg/dL,7.0,20.0,NORMAL,,WEEK 4,5,2025-01-09,28
STUDY001,LB,STUDY001-SUBJ0005,47,L00047,CREAT,Creatinine,CHEMISTRY,0.7,mg/dL,0.6,1.2,0.7,0.7,mg/dL,0.6,1.2,NORMAL,,WEEK 4,5,2025-01-09,28
STUDY001,LB,STUDY001-SUBJ0005,48,L00048,BILI,Total Bilirubin,CHEMISTRY,0.95,mg/dL,0.1,1.2,0.95,0.95,mg/dL,0.1,1.2,NORMAL,,WEEK 4,5,2025-01-09,28
STUDY001,LB,STUDY001-SUBJ0005,49,L00049,ALP,Alkaline Phosphatase,CHEMISTRY,108.75,U/L,44.0,147.0,108.75,108.75,U/L,44.0,147.0,NORMAL,,WEEK 4,5,2025-01-09,28
STUDY001,LB,STUDY001-SUBJ0005,50,L00050,ALT,Alanine Aminotransferase,CHEMISTRY,27.27,U/L,7.0,56.0,27.27,27.27,U/L,7.0,56.0,NORMAL,,WEEK 4,5,2025-01-09,28
STUDY001,LB,STUDY001-SUBJ0005,51,L00051,HGB,Hemoglobin,HEMATOLOGY,14.52,g/dL,13.5,17.5,14.52,14.52,g/dL,13.5,17.5,NORMAL,,WEEK 8,6,2025-02-06,56
STUDY001,LB,STUDY001-SUBJ0005,52,L00052,HCT,Hematocrit,HEMATOLOGY,47.76,%,41.0,51.0,47.76,47.76,%,41.0,51.0,NORMAL,,WEEK 8,6,2025-02-06,56
STUDY001,LB,STUDY001-SUBJ0005,53,L00053,WBC,White Blood Cell Count,HEMATOLOGY,6.62,10^9/L,4.5,11.0,6.62,6.62,10^9/L,4.5,11.0,NORMAL,,WEEK 8,6,2025-02-06,56
STUDY001,LB,STUDY001-SUBJ0005,54,L00054,PLT,Platelet Count,HEMATOLOGY,239.3,10^9/L,150.0,450.0,239.3,239.3,10^9/L,150.0,450.0,NORMAL,,WEEK 8,6,2025-02-06,56
STUDY001,LB,STUDY001-SUBJ0005,55,L00055,GLUC,Glucose,CHEMISTRY,82.18,mg/dL,70.0,100.0,82.18,82.18,mg/dL,70.0,100.0,NORMAL,,WEEK 8,6,2025-02-06,56
STUDY001,LB,STUDY001-SUBJ0005,56,L00056,BUN,Blood Urea Nitrogen,CHEMISTRY,12.31,mg/dL,7.0,20.0,12.31,12.31,mg/dL,7.0,20.0,NORMAL,,WEEK 8,6,2025-02-06,56
STUDY001,LB,STUDY001-SUBJ0005,57,L00057,CREAT,Creatinine,CHEMISTRY,0.68,mg/dL,0.6,1.2,0.68,0.68,mg/dL,0.6,1.2,NORMAL,,WEEK 8,6,2025-02-06,56
STUDY001,LB,STUDY001-SUBJ0005,58,L00058,BILI,Total Bilirubin,CHEMISTRY,0.97,mg/dL,0.1,1.2,0.97,0.97,mg/dL,0.1,1.2,NORMAL,,WEEK 8,6,2025-02-06,56
STUDY001,LB,STUDY001-SUBJ0005,59,L00059,ALP,Alkaline Phosphatase,CHEMISTRY,113.97,U/L,44.0,147.0,113.97,113.97,U/L,44.0,147.0,NORMAL,,WEEK 8,6,2025-02-06,56
STUDY001,LB,STUDY001-SUBJ0005,60,L00060,ALT,Alanine Aminotransferase,CHEMISTRY,25.9,U/L,7.0,56.0,25.9,25.9,U/L,7.0,56.0,NORMAL,,WEEK 8,6,2025-02-06,56
STUDY001,LB,STUDY001-SUBJ0005,61,L00061,HGB,Hemoglobin,HEMATOLOGY,14.34,g/dL,13.5,17.5,14.34,14.34,g/dL,13.5,17.5,NORMAL,,WEEK 12,7,2025-03-06,84
STUDY001,LB,STUDY001-SUBJ0005,62,L00062,HCT,Hematocrit,HEMATOLOGY,48.03,%,41.0,51.0,48.03,48.03,%,41.0,51.0,NORMAL,,WEEK 12,7,2025-03-06,84
STUDY001,LB,STUDY001-SUBJ0005,63,L00063,WBC,White Blood Cell Count,HEMATOLOGY,6.64,10^9/L,4.5,11.0,6.64,6.64,10^9/L,4.5,11.0,NORMAL,,WEEK 12,7,2025-03-06,84
STUDY001,LB,STUDY001-SUBJ0005,64,L00064,PLT,Platelet Count,HEMATOLOGY,232.75,10^9/L,150.0,450.0,232.75,232.75,10^9/L,150.0,450.0,NORMAL,,WEEK 12,7,2025-03-06,84
STUDY001,LB,STUDY001-SUBJ0005,65,L00065,GLUC,Glucose,CHEMISTRY,81.3,mg/dL,70.0,100.0,81.3,81.3,mg/dL,70.0,100.0,NORMAL,,WEEK 12,7,2025-03-06,84
STUDY001,LB,STUDY001-SUBJ0005,66,L00066,BUN,Blood Urea Nitrogen,CHEMISTRY,12.5,mg/dL,7.0,20.0,12.5,12.5,mg/dL,7.0,20.0,NORMAL,,WEEK 12,7,2025-03-06,84
STUDY001,LB,STUDY001-SUBJ0005,67,L00067,CREAT,Creatinine,CHEMISTRY,0.66,mg/dL,0.6,1.2,0.66,0.66,mg/dL,0.6,1.2,NORMAL,,WEEK 12,7,2025-03-06,84
STUDY001,LB,STUDY001-SUBJ0005,68,L00068,BILI,Total Bilirubin,CHEMISTRY,0.96,mg/dL,0.1,1.2,0.96,0.96,mg/dL,0.1,1.2,NORMAL,,WEEK 12,7,2025-03-06,84
STUDY001,LB,STUDY001-SUBJ0005,69,L00069,ALP,Alkaline Phosphatase,CHEMISTRY,110.39,U/L,44.0,147.0,110.39,110.39,U/L,44.0,147.0,NORMAL,,WEEK 12,7,2025-03-06,84
STUDY001,LB,STUDY001-SUBJ0005,70,L00070,ALT,Alanine Aminotransferase,CHEMISTRY,27.72,U/L,7.0,56.0,27.72,27.72,U/L,7.0,56.0,NORMAL,,WEEK 12,7,2025-03-06,84
STUDY001,LB,STUDY001-SUBJ0005,71,L00071,HGB,Hemoglobin,HEMATOLOGY,14.41,g/dL,13.5,17.5,14.41,14.41,g/dL,13.5,17.5,NORMAL,,WEEK 16,8,2025-04-03,112
STUDY001,LB,STUDY001-SUBJ0005,72,L00072,HCT,Hematocrit,HEMATOLOGY,47.9,%,41.0,51.0,47.9,47.9,%,41.0,51.0,NORMAL,,WEEK 16,8,2025-04-03,112
STUDY001,LB,STUDY001-SUBJ0005,73,L00073,WBC,White Blood Cell Count,HEMATOLOGY,6.4,10^9/L,4.5,11.0,6.4,6.4,10^9/L,4.5,11.0,NORMAL,,WEEK 16,8,2025-04-03,112
STUDY001,LB,STUDY001-SUBJ0005,74,L00074,PLT,Platelet Count,HEMATOLOGY,223.57,10^9/L,150.0,450.0,223.57,223.57,10^9/L,150.0,450.0,NORMAL,,WEEK 16,8,2025-04-03,112
STUDY001,LB,STUDY001-SUBJ0005,75,L00075,GLUC,Glucose,CHEMISTRY,82.62,mg/dL,70.0,100.0,82.62,82.62,mg/dL,70.0,100.0,NORMAL,,WEEK 16,8,2025-04-03,112
STUDY001,LB,STUDY001-SUBJ0005,76,L00076,BUN,Blood Urea Nitrogen,CHEMISTRY,12.59,mg/dL,7.0,20.0,12.59,12.59,mg/dL,7.0,20.0,NORMAL,,WEEK 16,8,2025-04-03,112
STUDY001,LB,STUDY001-SUBJ0005,77,L00077,CREAT,Creatinine,CHEMISTRY,0.69,mg/dL,0.6,1.2,0.69,0.69,mg/dL,0.6,1.2,NORMAL,,WEEK 16,8,2025-04-03,112
STUDY001,LB,STUDY001-SUBJ0005,78,L00078,BILI,Total Bilirubin,CHEMISTRY,0.94,mg/dL,0.1,1.2,0.94,0.94,mg/dL,0.1,1.2,NORMAL,,WEEK 16,8,2025-04-03,112
STUDY001,LB,STUDY001-SUBJ0005,79,L00079,ALP,Alkaline Phosphatase,CHEMISTRY,111.73,U/L,44.0,147.0,111.73,111.73,U/L,44.0,147.0,NORMAL,,WEEK 16,8,2025-04-03,112
STUDY001,LB,STUDY001-SUBJ0005,80,L00080,ALT,Alanine Aminotransferase,CHEMISTRY,26.28,U/L,7.0,56.0,26.28,26.28,U/L,7.0,56.0,NORMAL,,WEEK 16,8,2025-04-03,112
STUDY001,LB,STUDY001-SUBJ0005,81,L00081,HGB,Hemoglobin,HEMATOLOGY,14.69,g/dL,13.5,17.5,14.69,14.69,g/dL,13.5,17.5,NORMAL,,END OF TREATMENT,9,2025-05-01,140
STUDY001,LB,STUDY001-SUBJ0005,82,L00082,HCT,Hematocrit,HEMATOLOGY,48.12,%,41.0,51.0,48.12,48.12,%,41.0,51.0,NORMAL,,END OF TREATMENT,9,2025-05-01,140
STUDY001,LB,STUDY001-SUBJ0005,83,L00083,WBC,White Blood Cell Count,HEMATOLOGY,6.68,10^9/L,4.5,11.0,6.68,6.68,10^9/L,4.5,11.0,NORMAL,,END OF TREATMENT,9,2025-05-01,140
STUDY001,LB,STUDY001-SUBJ0005,84,L00084,PLT,Platelet Count,HEMATOLOGY,227.73,10^9/L,150.0,450.0,227.73,227.73,10^9/L,150.0,450.0,NORMAL,,END OF TREATMENT,9,2025-05-01,140
STUDY001,LB,STUDY001-SUBJ0005,85,L00085,GLUC,Glucose,CHEMISTRY,80.45,mg/dL,70.0,100.0,80.45,80.45,mg/dL,70.0,100.0,NORMAL,,END OF TREATMENT,9,2025-05-01,140
STUDY001,LB,STUDY001-SUBJ0005,86,L00086,BUN,Blood Urea Nitrogen,CHEMISTRY,11.99,mg/dL,7.0,20.0,11.99,11.99,mg/dL,7.0,20.0,NORMAL,,END OF TREATMENT,9,2025-05-01,140
STUDY001,LB,STUDY001-SUBJ0005,87,L00087,CREAT,Creatinine,CHEMISTRY,0.69,mg/dL,0.6,1.2,0.69,0.69,mg/dL,0.6,1.2,NORMAL,,END OF TREATMENT,9,2025-05-01,140
STUDY001,LB,STUDY001-SUBJ0005,88,L00088,BILI,Total Bilirubin,CHEMISTRY,0.99,mg/dL,0.1,1.2,0.99,0.99,mg/dL,0.1,1.2,NORMAL,,END OF TREATMENT,9,2025-05-01,140
STUDY001,LB,STUDY001-SUBJ0005,89,L00089,ALP,Alkaline Phosphatase,CHEMISTRY,112.97,U/L,44.0,147.0,112.97,112.97,U/L,44.0,147.0,NORMAL,,END OF TREATMENT,9,2025-05-01,140
STUDY001,LB,STUDY001-SUBJ0005,90,L00090,ALT,Alanine Aminotransferase,CHEMISTRY,27.06,U/L,7.0,56.0,27.06,27.06,U/L,7.0,56.0,NORMAL,,END OF TREATMENT,9,2025-05-01,140
STUDY001,LB,STUDY001-SUBJ0006,1,L00001,HGB,Hemoglobin,HEMATOLOGY,15.67,g/dL,13.5,17.5,15.67,15.67,g/dL,13.5,17.5,NORMAL,,SCREENING,1,2025-02-02,-14
STUDY001,LB,STUDY001-SUBJ0006,2,L00002,HCT,Hematocrit,HEMATOLOGY,48.2,%,41.0,51.0,48.2,48.2,%,41.0,51.0,NORMAL,,SCREENING,1,2025-02-02,-14
STUDY001,LB,STUDY001-SUBJ0006,3,L00003,WBC,White Blood Cell Count,HEMATOLOGY,5.95,10^9/L,4.5,11.0,5.95,5.95,10^9/L,4.5,11.0,NORMAL,,SCREENING,1,2025-02-02,-14
STUDY001,LB,STUDY001-SUBJ0006,4,L00004,PLT,Platelet Count,HEMATOLOGY,271.49,10^9/L,150.0,450.0,271.49,271.49,10^9/L,150.0,450.0,NORMAL,,SCREENING,1,2025-02-02,-14
STUDY001,LB,STUDY001-SUBJ0006,5,L00005,GLUC,Glucose,CHEMISTRY,88.37,mg/dL,70.0,100.0,88.37,88.37,mg/dL,70.0,100.0,NORMAL,,SCREENING,1,2025-02-02,-14
STUDY001,LB,STUDY001-SUBJ0006,6,L00006,BUN,Blood Urea Nitrogen,CHEMISTRY,14.04,mg/dL,7.0,20.0,14.04,14.04,mg/dL,7.0,20.0,NORMAL,,SCREENING,1,2025-02-02,-14
STUDY001,LB,STUDY001-SUBJ0006,7,L00007,CREAT,Creatinine,CHEMISTRY,0.98,mg/dL,0.6,1.2,0.98,0.98,mg/dL,0.6,1.2,NORMAL,,SCREENING,1,2025-02-02,-14
STUDY001,LB,STUDY001-SUBJ0006,8,L00008,BILI,Total Bilirubin,CHEMISTRY,0.79,mg/dL,0.1,1.2,0.79,0.79,mg/dL,0.1,1.2,NORMAL,,SCREENING,1,2025-02-02,-14
STUDY001,LB,STUDY001-SUBJ0006,9,L00009,ALP,Alkaline Phosphatase,CHEMISTRY,70.75,U/L,44.0,147.0,70.75,70.75,U/L,44.0,147.0,NORMAL,,SCREENING,1,2025-02-02,-14
STUDY001,LB,STUDY001-SUBJ0006,10,L00010,ALT,Alanine Aminotransferase,CHEMISTRY,49.14,U/L,7.0,56.0,49.14,49.14,U/L,7.0,56.0,NORMAL,,SCREENING,1,2025-02-02,-14
STUDY001,LB,STUDY001-SUBJ0006,11,L00011,HGB,Hemoglobin,HEMATOLOGY,15.64,g/dL,13.5,17.5,15.64,15.64,g/dL,13.5,17.5,NORMAL,Y,BASELINE,2,2025-02-16,1
STUDY001,LB,STUDY001-SUBJ0006,12,L00012,HCT,Hematocrit,HEMATOLOGY,48.63,%,41.0,51.0,48.63,48.63,%,41.0,51.0,NORMAL,Y,BASELINE,2,2025-02-16,1
STUDY001,LB,STUDY001-SUBJ0006,13,L00013,WBC,White Blood Cell Count,HEMATOLOGY,6.16,10^9/L,4.5,11.0,6.16,6.16,10^9/L,4.5,11.0,NORMAL,Y,BASELINE,2,2025-02-16,1
STUDY001,LB,STUDY001-SUBJ0006,14,L00014,PLT,Platelet Count,HEMATOLOGY,278.07,10^9/L,150.0,450.0,278.07,278.07,10^9/L,150.0,450.0,NORMAL,Y,BASELINE,2,2025-02-16,1
STUDY001,LB,STUDY001-SUBJ0006,15,L00015,GLUC,Glucose,CHEMISTRY,88.81,mg/dL,70.0,100.0,88.81,88.81,mg/dL,70.0,100.0,NORMAL,Y,BASELINE,2,2025-02-16,1
STUDY001,LB,STUDY001-SUBJ0006,16,L00016,BUN,Blood Urea Nitrogen,CHEMISTRY,14.04,mg/dL,7.0,20.0,14.04,14.04,mg/dL,7.0,20.0,NORMAL,Y,BASELINE,2,2025-02-16,1
STUDY001,LB,STUDY001-SUBJ0006,17,L00017,CREAT,Creatinine,CHEMISTRY,0.98,mg/dL,0.6,1.2,0.98,0.98,mg/dL,0.6,1.2,NORMAL,Y,BASELINE,2,2025-02-16,1
STUDY001,LB,STUDY001-SUBJ0006,18,L00018,BILI,Total Bilirubin,CHEMISTRY,0.78,mg/dL,0.1,1.2,0.78,0.78,mg/dL,0.1,1.2,NORMAL,Y,BASELINE,2,2025-02-16,1
STUDY001,LB,STUDY001-SUBJ0006,19,L00019,ALP,Alkaline Phosphatase,CHEMISTRY,72.2,U/L,44.0,147.0,72.2,72.2,U/L,44.0,147.0,NORMAL,Y,BASELINE,2,2025-02-16,1
STUDY001,LB,STUDY001-SUBJ0006,20,L00020,ALT,Alanine Aminotransferase,CHEMISTRY,50.53,U/L,7.0,56.0,50.53,50.53,U/L,7.0,56.0,NORMAL,Y,BASELINE,2,2025-02-16,1
STUDY001,LB,STUDY001-SUBJ0006,21,L00021,HGB,Hemoglobin,HEMATOLOGY,15.68,g/dL,13.5,17.5,15.68,15.68,g/dL,13.5,17.5,NORMAL,,WEEK 1,3,2025-02-22,7
STUDY001,LB,STUDY001-SUBJ0006,22,L00022,HCT,Hematocrit,HEMATOLOGY,48.62,%,41.0,51.0,48.62,48.62,%,41.0,51.0,NORMAL,,WEEK 1,3,2025-02-22,7
STUDY001,LB,STUDY001-SUBJ0006,23,L00023,WBC,White Blood Cell Count,HEMATOLOGY,6.1,10^9/L,4.5,11.0,6.1,6.1,10^9/L,4.5,11.0,NORMAL,,WEEK 1,3,2025-02-22,7
STUDY001,LB,STUDY001-SUBJ0006,24,L00024,PLT,Platelet Count,HEMATOLOGY,270.9,10^9/L,150.0,450.0,270.9,270.9,10^9/L,150.0,450.0,NORMAL,,WEEK 1,3,2025-02-22,7
STUDY001,LB,STUDY001-SUBJ0006,25,L00025,GLUC,Glucose,CHEMISTRY,87.98,mg/dL,70.0,100.0,87.98,87.98,mg/dL,70.0,100.0,NORMAL,,WEEK 1,3,2025-02-22,7
STUDY001,LB,STUDY001-SUBJ0006,26,L00026,BUN,Blood Urea Nitrogen,CHEMISTRY,13.96,mg/dL,7.0,20.0,13.96,13.96,mg/dL,7.0,20.0,NORMAL,,WEEK 1,3,2025-02-22,7
STUDY001,LB,STUDY001-SUBJ0006,27,L00027,CREAT,Creatinine,CHEMISTRY,0.96,mg/dL,0.6,1.2,0.96,0.96,mg/dL,0.6,1.2,NORMAL,,WEEK 1,3,2025-02-22,7
STUDY001,LB,STUDY001-SUBJ0006,28,L00028,BILI,Total Bilirubin,CHEMISTRY,0.79,mg/dL,0.1,1.2,0.79,0.79,mg/dL,0.1,1.2,NORMAL,,WEEK 1,3,2025-02-22,7
STUDY001,LB,STUDY001-SUBJ0006,29,L00029,ALP,Alkaline Phosphatase,CHEMISTRY,71.6,U/L,44.0,147.0,71.6,71.6,U/L,44.0,147.0,NORMAL,,WEEK 1,3,2025-02-22,7
STUDY001,LB,STUDY001-SUBJ0006,30,L00030,ALT,Alanine Aminotransferase,CHEMISTRY,49.15,U/L,7.0,56.0,49.15,49.15,U/L,7.0,56.0,NORMAL,,WEEK 1,3,2025-02-22,7
STUDY001,LB,STUDY001-SUBJ0006,31,L00031,HGB,Hemoglobin,HEMATOLOGY,15.68,g/dL,13.5,17.5,15.68,15.68,g/dL,13.5,17.5,NORMAL,,WEEK 2,4,2025-03-01,14
STUDY001,LB,STUDY001-SUBJ0006,32,L00032,HCT,Hematocrit,HEMATOLOGY,48.41,%,41.0,51.0,48.41,48.41,%,41.0,51.0,NORMAL,,WEEK 2,4,2025-03-01,14
STUDY001,LB,STUDY001-SUBJ0006,33,L00033,WBC,White Blood Cell Count,HEMATOLOGY,5.88,10^9/L,4.5,11.0,5.88,5.88,10^9/L,4.5,11.0,NORMAL,,WEEK 2,4,2025-03-01,14
STUDY001,LB,STUDY001-SUBJ0006,34,L00034,PLT,Platelet Count,HEMATOLOGY,280.13,10^9/L,150.0,450.0,280.13,280.13,10^9/L,150.0,450.0,NORMAL,,WEEK 2,4,2025-03-01,14
STUDY001,LB,STUDY001-SUBJ0006,35,L00035,GLUC,Glucose,CHEMISTRY,88.36,mg/dL,70.0,100.0,88.36,88.36,mg/dL,70.0,100.0,NORMAL,,WEEK 2,4,2025-03-01,14
STUDY001,LB,STUDY001-SUBJ0006,36,L00036,BUN,Blood Urea Nitrogen,CHEMISTRY,13.92,mg/dL,7.0,20.0,13.92,13.92,mg/dL,7.0,20.0,NORMAL,,WEEK 2,4,2025-03-01,14
STUDY001,LB,STUDY001-SUBJ0006,37,L00037,CREAT,Creatinine,CHEMISTRY,0.99,mg/dL,0.6,1.2,0.99,0.99,mg/dL,0.6,1.2,NORMAL,,WEEK 2,4,2025-03-01,14
STUDY001,LB,STUDY001-SUBJ0006,38,L00038,BILI,Total Bilirubin,CHEMISTRY,0.81,mg/dL,0.1,1.2,0.81,0.81,mg/dL,0.1,1.2,NORMAL,,WEEK 2,4,2025-03-01,14
STUDY001,LB,STUDY001-SUBJ0006,39,L00039,ALP,Alkaline Phosphatase,CHEMISTRY,71.94,U/L,44.0,147.0,71.94,71.94,U/L,44.0,147.0,NORMAL,,WEEK 2,4,2025-03-01,14
STUDY001,LB,STUDY001-SUBJ0006,40,L00040,ALT,Alanine Aminotransferase,CHEMISTRY,49.53,U/L,7.0,56.0,49.53,49.53,U/L,7.0,56.0,NORMAL,,WEEK 2,4,2025-03-01,14
STUDY001,LB,STUDY001-SUBJ0006,41,L00041,HGB,Hemoglobin,HEMATOLOGY,15.95,g/dL,13.5,17.5,15.95,15.95,g/dL,13.5,17.5,NORMAL,,WEEK 4,5,2025-03-15,28
STUDY001,LB,STUDY001-SUBJ0006,42,L00042,HCT,Hematocrit,HEMATOLOGY,48.08,%,41.0,51.0,48.08,48.08,%,41.0,51.0,NORMAL,,WEEK 4,5,2025-03-15,28
STUDY001,LB,STUDY001-SUBJ0006,43,L00043,WBC,White Blood Cell Count,HEMATOLOGY,5.95,10^9/L,4.5,11.0,5.95,5.95,10^9/L,4.5,11.0,NORMAL,,WEEK 4,5,2025-03-15,28
STUDY001,LB,STUDY001-SUBJ0006,44,L00044,PLT,Platelet Count,HEMATOLOGY,263.52,10^9/L,150.0,450.0,263.52,263.52,10^9/L,150.0,450.0,NORMAL,,WEEK 4,5,2025-03-15,28
STUDY001,LB,STUDY001-SUBJ0006,45,L00045,GLUC,Glucose,CHEMISTRY,87.08,mg/dL,70.0,100.0,87.08,87.08,mg/dL,70.0,100.0,NORMAL,,WEEK 4,5,2025-03-15,28
STUDY001,LB,STUDY001-SUBJ0006,46,L00046,BUN,Blood Urea Nitrogen,CHEMISTRY,13.55,mg/dL,7.0,20.0,13.55,13.55,mg/dL,7.0,20.0,NORMAL,,WEEK 4,5,2025-03-15,28
STUDY001,LB,STUDY001-SUBJ0006,47,L00047,CREAT,Creatinine,CHEMISTRY,0.98,mg/dL,0.6,1.2,0.98,0.98,mg/dL,0.6,1.2,NORMAL,,WEEK 4,5,2025-03-15,28
STUDY001,LB,STUDY001-SUBJ0006,48,L00048,BILI,Total Bilirubin,CHEMISTRY,0.78,mg/dL,0.1,1.2,0.78,0.78,mg/dL,0.1,1.2,NORMAL,,WEEK 4,5,2025-03-15,28
STUDY001,LB,STUDY001-SUBJ0006,49,L00049,ALP,Alkaline Phosphatase,CHEMISTRY,69.42,U/L,44.0,147.0,69.42,69.42,U/L,44.0,147.0,NORMAL,,WEEK 4,5,2025-03-15,28
STUDY001,LB,STUDY001-SUBJ0006,50,L00050,ALT,Alanine Aminotransferase,CHEMISTRY,48.3,U/L,7.0,56.0,48.3,48.3,U/L,7.0,56.0,NORMAL,,WEEK 4,5,2025-03-15,28
STUDY001,LB,STUDY001-SUBJ0006,51,L00051,HGB,Hemoglobin,HEMATOLOGY,15.82,g/dL,13.5,17.5,15.82,15.82,g/dL,13.5,17.5,NORMAL,,WEEK 8,6,2025-04-12,56
STUDY001,LB,STUDY001-SUBJ0006,52,L00052,HCT,Hematocrit,HEMATOLOGY,48.51,%,41.0,51.0,48.51,48.51,%,41.0,51.0,NORMAL,,WEEK 8,6,2025-04-12,56
STUDY001,LB,STUDY001-SUBJ0006,53,L00053,WBC,White Blood Cell Count,HEMATOLOGY,6.04,10^9/L,4.5,11.0,6.04,6.04,10^9/L,4.5,11.0,NORMAL,,WEEK 8,6,2025-04-12,56
STUDY001,LB,STUDY001-SUBJ0006,54,L00054,PLT,Platelet Count,HEMATOLOGY,274.97,10^9/L,150.0,450.0,274.97,274.97,10^9/L,150.0,450.0,NORMAL,,WEEK 8,6,2025-04-12,56
STUDY001,LB,STUDY001-SUBJ0006,55,L00055,GLUC,Glucose,CHEMISTRY,88.8,mg/dL,70.0,100.0,88.8,88.8,mg/dL,70.0,100.0,NORMAL,,WEEK 8,6,2025-04-12,56
STUDY001,LB,STUDY001-SUBJ0006,56,L00056,BUN,Blood Urea Nitrogen,CHEMISTRY,14.1,mg/dL,7.0,20.0,14.1,14.1,mg/dL,7.0,20.0,NORMAL,,WEEK 8,6,2025-04-12,56
STUDY001,LB,STUDY001-SUBJ0006,57,L00057,CREAT,Creatinine,CHEMISTRY,0.98,mg/dL,0.6,1.2,0.98,0.98,mg/dL,0.6,1.2,NORMAL,,WEEK 8,6,2025-04-12,56
STUDY001,LB,STUDY001-SUBJ0006,58,L00058,BILI,Total Bilirubin,CHEMISTRY,0.8,mg/dL,0.1,1.2,0.8,0.8,mg/dL,0.1,1.2,NORMAL,,WEEK 8,6,2025-04-12,56
STUDY001,LB,STUDY001-SUBJ0006,59,L00059,ALP,Alkaline Phosphatase,CHEMISTRY,72.76,U/L,44.0,147.0,72.76,72.76,U/L,44.0,147.0,NORMAL,,WEEK 8,6,2025-04-12,56
STUDY001,LB,STUDY001-SUBJ0006,60,L00060,ALT,Alanine Aminotransferase,CHEMISTRY,50.22,U/L,7.0,56.0,50.22,50.22,U/L,7.0,56.0,NORMAL,,WEEK 8,6,2025-04-12,56
STUDY001,LB,STUDY001-SUBJ0006,61,L00061,HGB,Hemoglobin,HEMATOLOGY,15.76,g/dL,13.5,17.5,15.76,15.76,g/dL,13.5,17.5,NORMAL,,WEEK 12,7,2025-05-10,84
STUDY001,LB,STUDY001-SUBJ0006,62,L00062,HCT,Hematocrit,HEMATOLOGY,48.64,%,41.0,51.0,48.64,48.64,%,41.0,51.0,NORMAL,,WEEK 12,7,2025-05-10,84
STUDY001,LB,STUDY001-SUBJ0006,63,L00063,WBC,White Blood Cell Count,HEMATOLOGY,5.96,10^9/L,4.5,11.0,5.96,5.96,10^9/L,4.5,11.0,NORMAL,,WEEK 12,7,2025-05-10,84
STUDY001,LB,STUDY001-SUBJ0006,64,L00064,PLT,Platelet Count,HEMATOLOGY,272.46,10^9/L,150.0,450.0,272.46,272.46,10^9/L,150.0,450.0,NORMAL,,WEEK 12,7,2025-05-10,84
STUDY001,LB,STUDY001-SUBJ0006,65,L00065,GLUC,Glucose,CHEMISTRY,88.69,mg/dL,70.0,100.0,88.69,88.69,mg/dL,70.0,100.0,NORMAL,,WEEK 12,7,2025-05-10,84
STUDY001,LB,STUDY001-SUBJ0006,66,L00066,BUN,Blood Urea Nitrogen,CHEMISTRY,14.32,mg/dL,7.0,20.0,14.32,14.32,mg/dL,7.0,20.0,NORMAL,,WEEK 12,7,2025-05-10,84
STUDY001,LB,STUDY001-SUBJ0006,67,L00067,CREAT,Creatinine,CHEMISTRY,0.96,mg/dL,0.6,1.2,0.96,0.96,mg/dL,0.6,1.2,NORMAL,,WEEK 12,7,2025-05-10,84
STUDY001,LB,STUDY001-SUBJ0006,68,L00068,BILI,Total Bilirubin,CHEMISTRY,0.79,mg/dL,0.1,1.2,0.79,0.79,mg/dL,0.1,1.2,NORMAL,,WEEK 12,7,2025-05-10,84
STUDY001,LB,STUDY001-SUBJ0006,69,L00069,ALP,Alkaline Phosphatase,CHEMISTRY,74.17,U/L,44.0,147.0,74.17,74.17,U/L,44.0,147.0,NORMAL,,WEEK 12,7,2025-05-10,84
STUDY001,LB,STUDY001-SUBJ0006,70,L00070,ALT,Alanine Aminotransferase,CHEMISTRY,48.6,U/L,7.0,56.0,48.6,48.6,U/L,7.0,56.0,NORMAL,,WEEK 12,7,2025-05-10,84
STUDY001,LB,STUDY001-SUBJ0006,71,L00071,HGB,Hemoglobin,HEMATOLOGY,15.73,g/dL,13.5,17.5,15.73,15.73,g/dL,13.5,17.5,NORMAL,,WEEK 16,8,2025-06-07,112
STUDY001,LB,STUDY001-SUBJ0006,72,L00072,HCT,Hematocrit,HEMATOLOGY,48.41,%,41.0,51.0,48.41,48.41,%,41.0,51.0,NORMAL,,WEEK 16,8,2025-06-07,112
STUDY001,LB,STUDY001-SUBJ0006,73,L00073,WBC,White Blood Cell Count,HEMATOLOGY,5.95,10^9/L,4.5,11.0,5.95,5.95,10^9/L,4.5,11.0,NORMAL,,WEEK 16,8,2025-06-07,112
STUDY001,LB,STUDY001-SUBJ0006,74,L00074,PLT,Platelet Count,HEMATOLOGY,280.96,10^9/L,150.0,450.0,280.96,280.96,10^9/L,150.0,450.0,NORMAL,,WEEK 16,8,2025-06-07,112
STUDY001,LB,STUDY001-SUBJ0006,75,L00075,GLUC,Glucose,CHEMISTRY,88.51,mg/dL,70.0,100.0,88.51,88.51,mg/dL,70.0,100.0,NORMAL,,WEEK 16,8,2025-06-07,112
STUDY001,LB,STUDY001-SUBJ0006,76,L00076,BUN,Blood Urea Nitrogen,CHEMISTRY,14.26,mg/dL,7.0,20.0,14.26,14.26,mg/dL,7.0,20.0,NORMAL,,WEEK 16,8,2025-06-07,112
STUDY001,LB,STUDY001-SUBJ0006,77,L00077,CREAT,Creatinine,CHEMISTRY,0.97,mg/dL,0.6,1.2,0.97,0.97,mg/dL,0.6,1.2,NORMAL,,WEEK 16,8,2025-06-07,112
STUDY001,LB,STUDY001-SUBJ0006,78,L00078,BILI,Total Bilirubin,CHEMISTRY,0.81,mg/dL,0.1,1.2,0.81,0.81,mg/dL,0.1,1.2,NORMAL,,WEEK 16,8,2025-06-07,112
STUDY001,LB,STUDY001-SUBJ0006,79,L00079,ALP,Alkaline Phosphatase,CHEMISTRY,70.45,U/L,44.0,147.0,70.45,70.45,U/L,44.0,147.0,NORMAL,,WEEK 16,8,2025-06-07,112
STUDY001,LB,STUDY001-SUBJ0006,80,L00080,ALT,Alanine Aminotransferase,CHEMISTRY,50.37,U/L,7.0,56.0,50.37,50.37,U/L,7.0,56.0,NORMAL,,WEEK 16,8,2025-06-07,112
STUDY001,LB,STUDY001-SUBJ0006,81,L00081,HGB,Hemoglobin,HEMATOLOGY,15.96,g/dL,13.5,17.5,15.96,15.96,g/dL,13.5,17.5,NORMAL,,END OF TREATMENT,9,2025-07-05,140
STUDY001,LB,STUDY001-SUBJ0006,82,L00082,HCT,Hematocrit,HEMATOLOGY,48.52,%,41.0,51.0,48.52,48.52,%,41.0,51.0,NORMAL,,END OF TREATMENT,9,2025-07-05,140
STUDY001,LB,STUDY001-SUBJ0006,83,L00083,WBC,White Blood Cell Count,HEMATOLOGY,5.82,10^9/L,4.5,11.0,5.82,5.82,10^9/L,4.5,11.0,NORMAL,,END OF TREATMENT,9,2025-07-05,140
STUDY001,LB,STUDY001-SUBJ0006,84,L00084,PLT,Platelet Count,HEMATOLOGY,279.69,10^9/L,150.0,450.0,279.69,279.69,10^9/L,150.0,450.0,NORMAL,,END OF TREATMENT,9,2025-07-05,140
STUDY001,LB,STUDY001-SUBJ0006,85,L00085,GLUC,Glucose,CHEMISTRY,87.4,mg/dL,70.0,100.0,87.4,87.4,mg/dL,70.0,100.0,NORMAL,,END OF TREATMENT,9,2025-07-05,140
STUDY001,LB,STUDY001-SUBJ0006,86,L00086,BUN,Blood Urea Nitrogen,CHEMISTRY,14.15,mg/dL,7.0,20.0,14.15,14.15,mg/dL,7.0,20.0,NORMAL,,END OF TREATMENT,9,2025-07-05,140
STUDY001,LB,STUDY001-SUBJ0006,87,L00087,CREAT,Creatinine,CHEMISTRY,0.95,mg/dL,0.6,1.2,0.95,0.95,mg/dL,0.6,1.2,NORMAL,,END OF TREATMENT,9,2025-07-05,140
STUDY001,LB,STUDY001-SUBJ0006,88,L00088,BILI,Total Bilirubin,CHEMISTRY,0.81,mg/dL,0.1,1.2,0.81,0.81,mg/dL,0.1,1.2,NORMAL,,END OF TREATMENT,9,2025-07-05,140
STUDY001,LB,STUDY001-SUBJ0006,89,L00089,ALP,Alkaline Phosphatase,CHEMISTRY,72.75,U/L,44.0,147.0,72.75,72.75,U/L,44.0,147.0,NORMAL,,END OF TREATMENT,9,2025-07-05,140
STUDY001,LB,STUDY001-SUBJ0006,90,L00090,ALT,Alanine Aminotransferase,CHEMISTRY,49.06,U/L,7.0,56.0,49.06,49.06,U/L,7.0,56.0,NORMAL,,END OF TREATMENT,9,2025-07-05,140
STUDY001,LB,STUDY001-SUBJ0007,1,L00001,HGB,Hemoglobin,HEMATOLOGY,16.25,g/dL,13.5,17.5,16.25,16.25,g/dL,13.5,17.5,NORMAL,,SCREENING,1,2025-05-24,-14
STUDY001,LB,STUDY001-SUBJ0007,2,L00002,HCT,Hematocrit,HEMATOLOGY,44.42,%,41.0,51.0,44.42,44.42,%,41.0,51.0,NORMAL,,SCREENING,1,2025-05-24,-14
STUDY001,LB,STUDY001-SUBJ0007,3,L00003,WBC,White Blood Cell Count,HEMATOLOGY,5.31,10^9/L,4.5,11.0,5.31,5.31,10^9/L,4.5,11.0,NORMAL,,SCREENING,1,2025-05-24,-14
STUDY001,LB,STUDY001-SUBJ0007,4,L00004,PLT,Platelet Count,HEMATOLOGY,252.67,10^9/L,150.0,450.0,252.67,252.67,10^9/L,150.0,450.0,NORMAL,,SCREENING,1,2025-05-24,-14
STUDY001,LB,STUDY001-SUBJ0007,5,L00005,GLUC,Glucose,CHEMISTRY,76.69,mg/dL,70.0,100.0,76.69,76.69,mg/dL,70.0,100.0,NORMAL,,SCREENING,1,2025-05-24,-14
STUDY001,LB,STUDY001-SUBJ0007,6,L00006,BUN,Blood Urea Nitrogen,CHEMISTRY,12.51,mg/dL,7.0,20.0,12.51,12.51,mg/dL,7.0,20.0,NORMAL,,SCREENING,1,2025-05-24,-14
STUDY001,LB,STUDY001-SUBJ0007,7,L00007,CREAT,Creatinine,CHEMISTRY,0.73,mg/dL,0.6,1.2,0.73,0.73,mg/dL,0.6,1.2,NORMAL,,SCREENING,1,2025-05-24,-14
STUDY001,LB,STUDY001-SUBJ0007,8,L00008,BILI,Total Bilirubin,CHEMISTRY,0.73,mg/dL,0.1,1.2,0.73,0.73,mg/dL,0.1,1.2,NORMAL,,SCREENING,1,2025-05-24,-14
STUDY001,LB,STUDY001-SUBJ0007,9,L00009,ALP,Alkaline Phosphatase,CHEMISTRY,141.85,U/L,44.0,147.0,141.85,141.85,U/L,44.0,147.0,NORMAL,,SCREENING,1,2025-05-24,-14
STUDY001,LB,STUDY001-SUBJ0007,10,L00010,ALT,Alanine Aminotransferase,CHEMISTRY,15.06,U/L,7.0,56.0,15.06,15.06,U/L,7.0,56.0,NORMAL,,SCREENING,1,2025-05-24,-14
STUDY001,LB,STUDY001-SUBJ0007,11,L00011,HGB,Hemoglobin,HEMATOLOGY,16.24,g/dL,13.5,17.5,16.24,16.24,g/dL,13.5,17.5,NORMAL,Y,BASELINE,2,2025-06-07,1
STUDY001,LB,STUDY001-SUBJ0007,12,L00012,HCT,Hematocrit,HEMATOLOGY,44.28,%,41.0,51.0,44.28,44.28,%,41.0,51.0,NORMAL,Y,BASELINE,2,2025-06-07,1
STUDY001,LB,STUDY001-SUBJ0007,13,L00013,WBC,White Blood Cell Count,HEMATOLOGY,5.38,10^9/L,4.5,11.0,5.38,5.38,10^9/L,4.5,11.0,NORMAL,Y,BASELINE,2,2025-06-07,1
STUDY001,LB,STUDY001-SUBJ0007,14,L00014,PLT,Platelet Count,HEMATOLOGY,246.43,10^9/L,150.0,450.0,246.43,246.43,10^9/L,150.0,450.0,NORMAL,Y,BASELINE,2,2025-06-07,1
STUDY001,LB,STUDY001-SUBJ0007,15,L00015,GLUC,Glucose,CHEMISTRY,78.37,mg/dL,70.0,100.0,78.37,78.37,mg/dL,70.0,100.0,NORMAL,Y,BASELINE,2,2025-06-07,1
STUDY001,LB,STUDY001-SUBJ0007,16,L00016,BUN,Blood Urea Nitrogen,CHEMISTRY,11.81,mg/dL,7.0,20.0,11.81,11.81,mg/dL,7.0,20.0,NORMAL,Y,BASELINE,2,2025-06-07,1
STUDY001,LB,STUDY001-SUBJ0007,17,L00017,CREAT,Creatinine,CHEMISTRY,0.73,mg/dL,0.6,1.2,0.73,0.73,mg/dL,0.6,1.2,NORMAL,Y,BASELINE,2,2025-06-07,1
STUDY001,LB,STUDY001-SUBJ0007,18,L00018,BILI,Total Bilirubin,CHEMISTRY,0.74,mg/dL,0.1,1.2,0.74,0.74,mg/dL,0.1,1.2,NORMAL,Y,BASELINE,2,2025-06-07,1
STUDY001,LB,STUDY001-SUBJ0007,19,L00019,ALP,Alkaline Phosphatase,CHEMISTRY,142.89,U/L,44.0,147.0,142.89,142.89,U/L,44.0,147.0,NORMAL,Y,BASELINE,2,2025-06-07,1
STUDY001,LB,STUDY001-SUBJ0007,20,L00020,ALT,Alanine Aminotransferase,CHEMISTRY,15.99,U/L,7.0,56.0,15.99,15.99,U/L,7.0,56.0,NORMAL,Y,BASELINE,2,2025-06-07,1
STUDY001,LB,STUDY001-SUBJ0007,21,L00021,HGB,Hemoglobin,HEMATOLOGY,16.43,g/dL,13.5,17.5,16.43,16.43,g/dL,13.5,17.5,NORMAL,,WEEK 1,3,2025-06-13,7
STUDY001,LB,STUDY001-SUBJ0007,22,L00022,HCT,Hematocrit,HEMATOLOGY,44.68,%,41.0,51.0,44.68,44.68,%,41.0,51.0,NORMAL,,WEEK 1,3,2025-06-13,7
STUDY001,LB,STUDY001-SUBJ0007,23,L00023,WBC,White Blood Cell Count,HEMATOLOGY,5.27,10^9/L,4.5,11.0,5.27,5.27,10^9/L,4.5,11.0,NORMAL,,WEEK 1,3,2025-06-13,7
STUDY001,LB,STUDY001-SUBJ0007,24,L00024,PLT,Platelet Count,HEMATOLOGY,252.64,10^9/L,150.0,450.0,252.64,252.64,10^9/L,150.0,450.0,NORMAL,,WEEK 1,3,2025-06-13,7
STUDY001,LB,STUDY001-SUBJ0007,25,L00025,GLUC,Glucose,CHEMISTRY,76.85,mg/dL,70.0,100.0,76.85,76.85,mg/dL,70.0,100.0,NORMAL,,WEEK 1,3,2025-06-13,7
STUDY001,LB,STUDY001-SUBJ0007,26,L00026,BUN,Blood Urea Nitrogen,CHEMISTRY,11.89,mg/dL,7.0,20.0,11.89,11.89,mg/dL,7.0,20.0,NORMAL,,WEEK 1,3,2025-06-13,7
STUDY001,LB,STUDY001-SUBJ0007,27,L00027,CREAT,Creatinine,CHEMISTRY,0.74,mg/dL,0.6,1.2,0.74,0.74,mg/dL,0.6,1.2,NORMAL,,WEEK 1,3,2025-06-13,7
STUDY001,LB,STUDY001-SUBJ0007,28,L00028,BILI,Total Bilirubin,CHEMISTRY,0.72,mg/dL,0.1,1.2,0.72,0.72,mg/dL,0.1,1.2,NORMAL,,WEEK 1,3,2025-06-13,7
STUDY001,LB,STUDY001-SUBJ0007,29,L00029,ALP,Alkaline Phosphatase,CHEMISTRY,142.1,U/L,44.0,147.0,142.1,142.1,U/L,44.0,147.0,NORMAL,,WEEK 1,3,2025-06-13,7
STUDY001,LB,STUDY001-SUBJ0007,30,L00030,ALT,Alanine Aminotransferase,CHEMISTRY,14.87,U/L,7.0,56.0,14.87,14.87,U/L,7.0,56.0,NORMAL,,WEEK 1,3,2025-06-13,7
STUDY001,LB,STUDY001-SUBJ0007,31,L00031,HGB,Hemoglobin,HEMATOLOGY,16.3,g/dL,13.5,17.5,16.3,16.3,g/dL,13.5,17.5,NORMAL,,WEEK 2,4,2025-06-20,14
STUDY001,LB,STUDY001-SUBJ0007,32,L00032,HCT,Hematocrit,HEMATOLOGY,44.24,%,41.0,51.0,44.24,44.24,%,41.0,51.0,NORMAL,,WEEK 2,4,2025-06-20,14
STUDY001,LB,STUDY001-SUBJ0007,33,L00033,WBC,White Blood Cell Count,HEMATOLOGY,4.93,10^9/L,4.5,11.0,4.93,4.93,10^9/L,4.5,11.0,NORMAL,,WEEK 2,4,2025-06-20,14
STUDY001,LB,STUDY001-SUBJ0007,34,L00034,PLT,Platelet Count,HEMATOLOGY,255.96,10^9/L,150.0,450.0,255.96,255.96,10^9/L,150.0,450.0,NORMAL,,WEEK 2,4,2025-06-20,14
STUDY001,LB,STUDY001-SUBJ0007,35,L00035,GLUC,Glucose,CHEMISTRY,77.32,mg/dL,70.0,100.0,77.32,77.32,mg/dL,70.0,100.0,NORMAL,,WEEK 2,4,2025-06-20,14
STUDY001,LB,STUDY001-SUBJ0007,36,L00036,BUN,Blood Urea Nitrogen,CHEMISTRY,12.65,mg/dL,7.0,20.0,12.65,12.65,mg/dL,7.0,20.0,NORMAL,,WEEK 2,4,2025-06-20,14
STUDY001,LB,STUDY001-SUBJ0007,37,L00037,CREAT,Creatinine,CHEMISTRY,0.73,mg/dL,0.6,1.2,0.73,0.73,mg/dL,0.6,1.2,NORMAL,,WEEK 2,4,2025-06-20,14
STUDY001,LB,STUDY001-SUBJ0007,38,L00038,BILI,Total Bilirubin,CHEMISTRY,0.71,mg/dL,0.1,1.2,0.71,0.71,mg/dL,0.1,1.2,NORMAL,,WEEK 2,4,2025-06-20,14
STUDY001,LB,STUDY001-SUBJ0007,39,L00039,ALP,Alkaline Phosphatase,CHEMISTRY,142.94,U/L,44.0,147.0,142.94,142.94,U/L,44.0,147.0,NORMAL,,WEEK 2,4,2025-06-20,14
STUDY001,LB,STUDY001-SUBJ0007,40,L00040,ALT,Alanine Aminotransferase,CHEMISTRY,14.57,U/L,7.0,56.0,14.57,14.57,U/L,7.0,56.0,NORMAL,,WEEK 2,4,2025-06-20,14
STUDY001,LB,STUDY001-SUBJ0007,41,L00041,HGB,Hemoglobin,HEMATOLOGY,16.25,g/dL,13.5,17.5,16.25,16.25,g/dL,13.5,17.5,NORMAL,,WEEK 4,5,2025-07-04,28
STUDY001,LB,STUDY001-SUBJ0007,42,L00042,HCT,Hematocrit,HEMATOLOGY,44.05,%,41.0,51.0,44.05,44.05,%,41.0,51.0,NORMAL,,WEEK 4,5,2025-07-04,28
STUDY001,LB,STUDY001-SUBJ0007,43,L00043,WBC,White Blood Cell Count,HEMATOLOGY,5.24,10^9/L,4.5,11.0,5.24,5.24,10^9/L,4.5,11.0,NORMAL,,WEEK 4,5,2025-07-04,28
STUDY001,LB,STUDY001-SUBJ0007,44,L00044,PLT,Platelet Count,HEMATOLOGY,243.12,10^9/L,150.0,450.0,243.12,243.12,10^9/L,150.0,450.0,NORMAL,,WEEK 4,5,2025-07-04,28
STUDY001,LB,STUDY001-SUBJ0007,45,L00045,GLUC,Glucose,CHEMISTRY,76.88,mg/dL,70.0,100.0,76.88,76.88,mg/dL,70.0,100.0,NORMAL,,WEEK 4,5,2025-07-04,28
STUDY001,LB,STUDY001-SUBJ0007,46,L00046,BUN,Blood Urea Nitrogen,CHEMISTRY,12.23,mg/dL,7.0,20.0,12.23,12.23,mg/dL,7.0,20.0,NORMAL,,WEEK 4,5,2025-07-04,28
STUDY001,LB,STUDY001-SUBJ0007,47,L00047,CREAT,Creatinine,CHEMISTRY,0.75,mg/dL,0.6,1.2,0.75,0.75,mg/dL,0.6,1.2,NORMAL,,WEEK 4,5,2025-07-04,28
STUDY001,LB,STUDY001-SUBJ0007,48,L00048,BILI,Total Bilirubin,CHEMISTRY,0.73,mg/dL,0.1,1.2,0.73,0.73,mg/dL,0.1,1.2,NORMAL,,WEEK 4,5,2025-07-04,28
STUDY001,LB,STUDY001-SUBJ0007,49,L00049,ALP,Alkaline Phosphatase,CHEMISTRY,143.4,U/L,44.0,147.0,143.4,143.4,U/L,44.0,147.0,NORMAL,,WEEK 4,5,2025-07-04,28
STUDY001,LB,STUDY001-SUBJ0007,50,L00050,ALT,Alanine Aminotransferase,CHEMISTRY,17.14,U/L,7.0,56.0,17.14,17.14,U/L,7.0,56.0,NORMAL,,WEEK 4,5,2025-07-04,28
STUDY001,LB,STUDY001-SUBJ0007,51,L00051,HGB,Hemoglobin,HEMATOLOGY,16.14,g/dL,13.5,17.5,16.14,16.14,g/dL,13.5,17.5,NORMAL,,WEEK 8,6,2025-08-01,56
STUDY001,LB,STUDY001-SUBJ0007,52,L00052,HCT,Hematocrit,HEMATOLOGY,44.36,%,41.0,51.0,44.36,44.36,%,41.0,51.0,NORMAL,,WEEK 8,6,2025-08-01,56
STUDY001,LB,STUDY001-SUBJ0007,53,L00053,WBC,White Blood Cell Count,HEMATOLOGY,5.23,10^9/L,4.5,11.0,5.23,5.23,10^9/L,4.5,11.0,NORMAL,,WEEK 8,6,2025-08-01,56
STUDY001,LB,STUDY001-SUBJ0007,54,L00054,PLT,Platelet Count,HEMATOLOGY,246.7,10^9/L,150.0,450.0,246.7,246.7,10^9/L,150.0,450.0,NORMAL,,WEEK 8,6,2025-08-01,56
STUDY001,LB,STUDY001-SUBJ0007,55,L00055,GLUC,Glucose,CHEMISTRY,75.87,mg/dL,70.0,100.0,75.87,75.87,mg/dL,70.0,100.0,NORMAL,,WEEK 8,6,2025-08-01,56
STUDY001,LB,STUDY001-SUBJ0007,56,L00056,BUN,Blood Urea Nitrogen,CHEMISTRY,12.31,mg/dL,7.0,20.0,12.31,12.31,mg/dL,7.0,20.0,NORMAL,,WEEK 8,6,2025-08-01,56
STUDY001,LB,STUDY001-SUBJ0007,57,L00057,CREAT,Creatinine,CHEMISTRY,0.75,mg/dL,0.6,1.2,0.75,0.75,mg/dL,0.6,1.2,NORMAL,,WEEK 8,6,2025-08-01,56
STUDY001,LB,STUDY001-SUBJ0007,58,L00058,BILI,Total Bilirubin,CHEMISTRY,0.73,mg/dL,0.1,1.2,0.73,0.73,mg/dL,0.1,1.2,NORMAL,,WEEK 8,6,2025-08-01,56
STUDY001,LB,STUDY001-SUBJ0007,59,L00059,ALP,Alkaline Phosphatase,CHEMISTRY,142.83,U/L,44.0,147.0,142.83,142.83,U/L,44.0,147.0,NORMAL,,WEEK 8,6,2025-08-01,56
STUDY001,LB,STUDY001-SUBJ0007,60,L00060,ALT,Alanine Aminotransferase,CHEMISTRY,15.54,U/L,7.0,56.0,15.54,15.54,U/L,7.0,56.0,NORMAL,,WEEK 8,6,2025-08-01,56
STUDY001,LB,STUDY001-SUBJ0007,61,L00061,HGB,Hemoglobin,HEMATOLOGY,16.41,g/dL,13.5,17.5,16.41,16.41,g/dL,13.5,17.5,NORMAL,,WEEK 12,7,2025-08-29,84
STUDY001,LB,STUDY001-SUBJ0007,62,L00062,HCT,Hematocrit,HEMATOLOGY,44.09,%,41.0,51.0,44.09,44.09,%,41.0,51.0,NORMAL,,WEEK 12,7,2025-08-29,84
STUDY001,LB,STUDY001-SUBJ0007,63,L00063,WBC,White Blood Cell Count,HEMATOLOGY,5.15,10^9/L,4.5,11.0,5.15,5.15,10^9/L,4.5,11.0,NORMAL,,WEEK 12,7,2025-08-29,84
STUDY001,LB,STUDY001-SUBJ0007,64,L00064,PLT,Platelet Count,HEMATOLOGY,245.37,10^9/L,150.0,450.0,245.37,245.37,10^9/L,150.0,450.0,NORMAL,,WEEK 12,7,2025-08-29,84
STUDY001,LB,STUDY001-SUBJ0007,65,L00065,GLUC,Glucose,CHEMISTRY,78.09,mg/dL,70.0,100.0,78.09,78.09,mg/dL,70.0,100.0,NORMAL,,WEEK 12,7,2025-08-29,84
STUDY001,LB,STUDY001-SUBJ0007,66,L00066,BUN,Blood Urea Nitrogen,CHEMISTRY,12.62,mg/dL,7.0,20.0,12.62,12.62,mg/dL,7.0,20.0,NORMAL,,WEEK 12,7,2025-08-29,84
STUDY001,LB,STUDY001-SUBJ0007,67,L00067,CREAT,Creatinine,CHEMISTRY,0.71,mg/dL,0.6,1.2,0.71,0.71,mg/dL,0.6,1.2,NORMAL,,WEEK 12,7,2025-08-29,84
STUDY001,LB,STUDY001-SUBJ0007,68,L00068,BILI,Total Bilirubin,CHEMISTRY,0.75,mg/dL,0.1,1.2,0.75,0.75,mg/dL,0.1,1.2,NORMAL,,WEEK 12,7,2025-08-29,84
STUDY001,LB,STUDY001-SUBJ0007,69,L00069,ALP,Alkaline Phosphatase,CHEMISTRY,147.71,U/L,44.0,147.0,147.71,147.71,U/L,44.0,147.0,HIGH,,WEEK 12,7,2025-08-29,84
STUDY001,LB,STUDY001-SUBJ0007,70,L00070,ALT,Alanine Aminotransferase,CHEMISTRY,15.26,U/L,7.0,56.0,15.26,15.26,U/L,7.0,56.0,NORMAL,,WEEK 12,7,2025-08-29,84
STUDY001,LB,STUDY001-SUBJ0007,71,L00071,HGB,Hemoglobin,HEMATOLOGY,16.25,g/dL,13.5,17.5,16.25,16.25,g/dL,13.5,17.5,NORMAL,,WEEK 16,8,2025-09-26,112
STUDY001,LB,STUDY001-SUBJ0007,72,L00072,HCT,Hematocrit,HEMATOLOGY,44.15,%,41.0,51.0,44.15,44.15,%,41.0,51.0,NORMAL,,WEEK 16,8,2025-09-26,112
STUDY001,LB,STUDY001-SUBJ0007,73,L00073,WBC,White Blood Cell Count,HEMATOLOGY,5.34,10^9/L,4.5,11.0,5.34,5.34,10^9/L,4.5,11.0,NORMAL,,WEEK 16,8,2025-09-26,112
STUDY001,LB,STUDY001-SUBJ0007,74,L00074,PLT,Platelet Count,HEMATOLOGY,253.09,10^9/L,150.0,450.0,253.09,253.09,10^9/L,150.0,450.0,NORMAL,,WEEK 16,8,2025-09-26,112
STUDY001,LB,STUDY001-SUBJ0007,75,L00075,GLUC,Glucose,CHEMISTRY,76.64,mg/dL,70.0,100.0,76.64,76.64,mg/dL,70.0,100.0,NORMAL,,WEEK 16,8,2025-09-26,112
STUDY001,LB,STUDY001-SUBJ0007,76,L00076,BUN,Blood Urea Nitrogen,CHEMISTRY,12.29,mg/dL,7.0,20.0,12.29,12.29,mg/dL,7.0,20.0,NORMAL,,WEEK 16,8,2025-09-26,112
STUDY001,LB,STUDY001-SUBJ0007,77,L00077,CREAT,Creatinine,CHEMISTRY,0.73,mg/dL,0.6,1.2,0.73,0.73,mg/dL,0.6,1.2,NORMAL,,WEEK 16,8,2025-09-26,112
STUDY001,LB,STUDY001-SUBJ0007,78,L00078,BILI,Total Bilirubin,CHEMISTRY,0.76,mg/dL,0.1,1.2,0.76,0.76,mg/dL,0.1,1.2,NORMAL,,WEEK 16,8,2025-09-26,112
STUDY001,LB,STUDY001-SUBJ0007,79,L00079,ALP,Alkaline Phosphatase,CHEMISTRY,145.18,U/L,44.0,147.0,145.18,145.18,U/L,44.0,147.0,NORMAL,,WEEK 16,8,2025-09-26,112
STUDY001,LB,STUDY001-SUBJ0007,80,L00080,ALT,Alanine Aminotransferase,CHEMISTRY,15.12,U/L,7.0,56.0,15.12,15.12,U/L,7.0,56.0,NORMAL,,WEEK 16,8,2025-09-26,112
STUDY001,LB,STUDY001-SUBJ0007,81,L00081,HGB,Hemoglobin,HEMATOLOGY,16.24,g/dL,13.5,17.5,16.24,16.24,g/dL,13.5,17.5,NORMAL,,END OF TREATMENT,9,2025-10-24,140
STUDY001,LB,STUDY001-SUBJ0007,82,L00082,HCT,Hematocrit,HEMATOLOGY,44.03,%,41.0,51.0,44.03,44.03,%,41.0,51.0,NORMAL,,END OF TREATMENT,9,2025-10-24,140
STUDY001,LB,STUDY001-SUBJ0007,83,L00083,WBC,White Blood Cell Count,HEMATOLOGY,5.47,10^9/L,4.5,11.0,5.47,5.47,10^9/L,4.5,11.0,NORMAL,,END OF TREATMENT,9,2025-10-24,140
STUDY001,LB,STUDY001-SUBJ0007,84,L00084,PLT,Platelet Count,HEMATOLOGY,247.04,10^9/L,150.0,450.0,247.04,247.04,10^9/L,150.0,450.0,NORMAL,,END OF TREATMENT,9,2025-10-24,140
STUDY001,LB,STUDY001-SUBJ0007,85,L00085,GLUC,Glucose,CHEMISTRY,75.15,mg/dL,70.0,100.0,75.15,75.15,mg/dL,70.0,100.0,NORMAL,,END OF TREATMENT,9,2025-10-24,140
STUDY001,LB,STUDY001-SUBJ0007,86,L00086,BUN,Blood Urea Nitrogen,CHEMISTRY,12.49,mg/dL,7.0,20.0,12.49,12.49,mg/dL,7.0,20.0,NORMAL,,END OF TREATMENT,9,2025-10-24,140
STUDY001,LB,STUDY001-SUBJ0007,87,L00087,CREAT,Creatinine,CHEMISTRY,0.75,mg/dL,0.6,1.2,0.75,0.75,mg/dL,0.6,1.2,NORMAL,,END OF TREATMENT,9,2025-10-24,140
STUDY001,LB,STUDY001-SUBJ0007,88,L00088,BILI,Total Bilirubin,CHEMISTRY,0.73,mg/dL,0.1,1.2,0.73,0.73,mg/dL,0.1,1.2,NORMAL,,END OF TREATMENT,9,2025-10-24,140
STUDY001,LB,STUDY001-SUBJ0007,89,L00089,ALP,Alkaline Phosphatase,CHEMISTRY,143.91,U/L,44.0,147.0,143.91,143.91,U/L,44.0,147.0,NORMAL,,END OF TREATMENT,9,2025-10-24,140
STUDY001,LB,STUDY001-SUBJ0007,90,L00090,ALT,Alanine Aminotransferase,CHEMISTRY,15.99,U/L,7.0,56.0,15.99,15.99,U/L,7.0,56.0,NORMAL,,END OF TREATMENT,9,2025-10-24,140
STUDY001,LB,STUDY001-SUBJ0008,1,L00001,HGB,Hemoglobin,HEMATOLOGY,15.37,g/dL,13.5,17.5,15.37,15.37,g/dL,13.5,17.5,NORMAL,,SCREENING,1,2025-06-27,-14
STUDY001,LB,STUDY001-SUBJ0008,2,L00002,HCT,Hematocrit,HEMATOLOGY,46.04,%,41.0,51.0,46.04,46.04,%,41.0,51.0,NORMAL,,SCREENING,1,2025-06-27,-14
STUDY001,LB,STUDY001-SUBJ0008,3,L00003,WBC,White Blood Cell Count,HEMATOLOGY,10.21,10^9/L,4.5,11.0,10.21,10.21,10^9/L,4.5,11.0,NORMAL,,SCREENING,1,2025-06-27,-14
STUDY001,LB,STUDY001-SUBJ0008,4,L00004,PLT,Platelet Count,HEMATOLOGY,257.59,10^9/L,150.0,450.0,257.59,257.59,10^9/L,150.0,450.0,NORMAL,,SCREENING,1,2025-06-27,-14
STUDY001,LB,STUDY001-SUBJ0008,5,L00005,GLUC,Glucose,CHEMISTRY,85.2,mg/dL,70.0,100.0,85.2,85.2,mg/dL,70.0,100.0,NORMAL,,SCREENING,1,2025-06-27,-14
STUDY001,LB,STUDY001-SUBJ0008,6,L00006,BUN,Blood Urea Nitrogen,CHEMISTRY,9.08,mg/dL,7.0,20.0,9.08,9.08,mg/dL,7.0,20.0,NORMAL,,SCREENING,1,2025-06-27,-14
STUDY001,LB,STUDY001-SUBJ0008,7,L00007,CREAT,Creatinine,CHEMISTRY,0.78,mg/dL,0.6,1.2,0.78,0.78,mg/dL,0.6,1.2,NORMAL,,SCREENING,1,2025-06-27,-14
STUDY001,LB,STUDY001-SUBJ0008,8,L00008,BILI,Total Bilirubin,CHEMISTRY,0.74,mg/dL,0.1,1.2,0.74,0.74,mg/dL,0.1,1.2,NORMAL,,SCREENING,1,2025-06-27,-14
STUDY001,LB,STUDY001-SUBJ0008,9,L00009,ALP,Alkaline Phosphatase,CHEMISTRY,102.32,U/L,44.0,147.0,102.32,102.32,U/L,44.0,147.0,NORMAL,,SCREENING,1,2025-06-27,-14
STUDY001,LB,STUDY001-SUBJ0008,10,L00010,ALT,Alanine Aminotransferase,CHEMISTRY,25.83,U/L,7.0,56.0,25.83,25.83,U/L,7.0,56.0,NORMAL,,SCREENING,1,2025-06-27,-14
STUDY001,LB,STUDY001-SUBJ0008,11,L00011,HGB,Hemoglobin,HEMATOLOGY,15.43,g/dL,13.5,17.5,15.43,15.43,g/dL,13.5,17.5,NORMAL,Y,BASELINE,2,2025-07-11,1
STUDY001,LB,STUDY001-SUBJ0008,12,L00012,HCT,Hematocrit,HEMATOLOGY,45.95,%,41.0,51.0,45.95,45.95,%,41.0,51.0,NORMAL,Y,BASELINE,2,2025-07-11,1
STUDY001,LB,STUDY001-SUBJ0008,13,L00013,WBC,White Blood Cell Count,HEMATOLOGY,9.82,10^9/L,4.5,11.0,9.82,9.82,10^9/L,4.5,11.0,NORMAL,Y,BASELINE,2,2025-07-11,1
STUDY001,LB,STUDY001-SUBJ0008,14,L00014,PLT,Platelet Count,HEMATOLOGY,249.9,10^9/L,150.0,450.0,249.9,249.9,10^9/L,150.0,450.0,NORMAL,Y,BASELINE,2,2025-07-11,1
STUDY001,LB,STUDY001-SUBJ0008,15,L00015,GLUC,Glucose,CHEMISTRY,86.0,mg/dL,70.0,100.0,86.0,86.0,mg/dL,70.0,100.0,NORMAL,Y,BASELINE,2,2025-07-11,1
STUDY001,LB,STUDY001-SUBJ0008,16,L00016,BUN,Blood Urea Nitrogen,CHEMISTRY,9.56,mg/dL,7.0,20.0,9.56,9.56,mg/dL,7.0,20.0,NORMAL,Y,BASELINE,2,2025-07-11,1
STUDY001,LB,STUDY001-SUBJ0008,17,L00017,CREAT,Creatinine,CHEMISTRY,0.77,mg/dL,0.6,1.2,0.77,0.77,mg/dL,0.6,1.2,NORMAL,Y,BASELINE,2,2025-07-11,1
STUDY001,LB,STUDY001-SUBJ0008,18,L00018,BILI,Total Bilirubin,CHEMISTRY,0.79,mg/dL,0.1,1.2,0.79,0.79,mg/dL,0.1,1.2,NORMAL,Y,BASELINE,2,2025-07-11,1
STUDY001,LB,STUDY001-SUBJ0008,19,L00019,ALP,Alkaline Phosphatase,CHEMISTRY,104.77,U/L,44.0,147.0,104.77,104.77,U/L,44.0,147.0,NORMAL,Y,BASELINE,2,2025-07-11,1
STUDY001,LB,STUDY001-SUBJ0008,20,L00020,ALT,Alanine Aminotransferase,CHEMISTRY,24.03,U/L,7.0,56.0,24.03,24.03,U/L,7.0,56.0,NORMAL,Y,BASELINE,2,2025-07-11,1
STUDY001,LB,STUDY001-SUBJ0008,21,L00021,HGB,Hemoglobin,HEMATOLOGY,15.2,g/dL,13.5,17.5,15.2,15.2,g/dL,13.5,17.5,NORMAL,,WEEK 1,3,2025-07-17,7
STUDY001,LB,STUDY001-SUBJ0008,22,L00022,HCT,Hematocrit,HEMATOLOGY,45.57,%,41.0,51.0,45.57,45.57,%,41.0,51.0,NORMAL,,WEEK 1,3,2025-07-17,7
STUDY001,LB,STUDY001-SUBJ0008,23,L00023,WBC,White Blood Cell Count,HEMATOLOGY,9.55,10^9/L,4.5,11.0,9.55,9.55,10^9/L,4.5,11.0,NORMAL,,WEEK 1,3,2025-07-17,7
STUDY001,LB,STUDY001-SUBJ0008,24,L00024,PLT,Platelet Count,HEMATOLOGY,259.05,10^9/L,150.0,450.0,259.05,259.05,10^9/L,150.0,450.0,NORMAL,,WEEK 1,3,2025-07-17,7
STUDY001,LB,STUDY001-SUBJ0008,25,L00025,GLUC,Glucose,CHEMISTRY,85.71,mg/dL,70.0,100.0,85.71,85.71,mg/dL,70.0,100.0,NORMAL,,WEEK 1,3,2025-07-17,7
STUDY001,LB,STUDY001-SUBJ0008,26,L00026,BUN,Blood Urea Nitrogen,CHEMISTRY,9.61,mg/dL,7.0,20.0,9.61,9.61,mg/dL,7.0,20.0,NORMAL,,WEEK 1,3,2025-07-17,7
STUDY001,LB,STUDY001-SUBJ0008,27,L00027,CREAT,Creatinine,CHEMISTRY,0.76,mg/dL,0.6,1.2,0.76,0.76,mg/dL,0.6,1.2,NORMAL,,WEEK 1,3,2025-07-17,7
STUDY001,LB,STUDY001-SUBJ0008,28,L00028,BILI,Total Bilirubin,CHEMISTRY,0.79,mg/dL,0.1,1.2,0.79,0.79,mg/dL,0.1,1.2,NORMAL,,WEEK 1,3,2025-07-17,7
STUDY001,LB,STUDY001-SUBJ0008,29,L00029,ALP,Alkaline Phosphatase,CHEMISTRY,99.83,U/L,44.0,147.0,99.83,99.83,U/L,44.0,147.0,NORMAL,,WEEK 1,3,2025-07-17,7
STUDY001,LB,STUDY001-SUBJ0008,30,L00030,ALT,Alanine Aminotransferase,CHEMISTRY,27.19,U/L,7.0,56.0,27.19,27.19,U/L,7.0,56.0,NORMAL,,WEEK 1,3,2025-07-17,7
STUDY001,LB,STUDY001-SUBJ0008,31,L00031,HGB,Hemoglobin,HEMATOLOGY,15.35,g/dL,13.5,17.5,15.35,15.35,g/dL,13.5,17.5,NORMAL,,WEEK 2,4,2025-07-24,14
STUDY001,LB,STUDY001-SUBJ0008,32,L00032,HCT,Hematocrit,HEMATOLOGY,45.66,%,41.0,51.0,45.66,45.66,%,41.0,51.0,NORMAL,,WEEK 2,4,2025-07-24,14
STUDY001,LB,STUDY001-SUBJ0008,33,L00033,WBC,White Blood Cell Count,HEMATOLOGY,9.73,10^9/L,4.5,11.0,9.73,9.73,10^9/L,4.5,11.0,NORMAL,,WEEK 2,4,2025-07-24,14
STUDY001,LB,STUDY001-SUBJ0008,34,L00034,PLT,Platelet Count,HEMATOLOGY,248.04,10^9/L,150.0,450.0,248.04,248.04,10^9/L,150.0,450.0,NORMAL,,WEEK 2,4,2025-07-24,14
STUDY001,LB,STUDY001-SUBJ0008,35,L00035,GLUC,Glucose,CHEMISTRY,84.31,mg/dL,70.0,100.0,84.31,84.31,mg/dL,70.0,100.0,NORMAL,,WEEK 2,4,2025-07-24,14
STUDY001,LB,STUDY001-SUBJ0008,36,L00036,BUN,Blood Urea Nitrogen,CHEMISTRY,9.84,mg/dL,7.0,20.0,9.84,9.84,mg/dL,7.0,20.0,NORMAL,,WEEK 2,4,2025-07-24,14
STUDY001,LB,STUDY001-SUBJ0008,37,L00037,CREAT,Creatinine,CHEMISTRY,0.76,mg/dL,0.6,1.2,0.76,0.76,mg/dL,0.6,1.2,NORMAL,,WEEK 2,4,2025-07-24,14
STUDY001,LB,STUDY001-SUBJ0008,38,L00038,BILI,Total Bilirubin,CHEMISTRY,0.78,mg/dL,0.1,1.2,0.78,0.78,mg/dL,0.1,1.2,NORMAL,,WEEK 2,4,2025-07-24,14
STUDY001,LB,STUDY001-SUBJ0008,39,L00039,ALP,Alkaline Phosphatase,CHEMISTRY,98.91,U/L,44.0,147.0,98.91,98.91,U/L,44.0,147.0,NORMAL,,WEEK 2,4,2025-07-24,14
STUDY001,LB,STUDY001-SUBJ0008,40,L00040,ALT,Alanine Aminotransferase,CHEMISTRY,26.87,U/L,7.0,56.0,26.87,26.87,U/L,7.0,56.0,NORMAL,,WEEK 2,4,2025-07-24,14
STUDY001,LB,STUDY001-SUBJ0008,41,L00041,HGB,Hemoglobin,HEMATOLOGY,15.4,g/dL,13.5,17.5,15.4,15.4,g/dL,13.5,17.5,NORMAL,,WEEK 4,5,2025-08-07,28
STUDY001,LB,STUDY001-SUBJ0008,42,L00042,HCT,Hematocrit,HEMATOLOGY,45.62,%,41.0,51.0,45.62,45.62,%,41.0,51.0,NORMAL,,WEEK 4,5,2025-08-07,28
STUDY001,LB,STUDY001-SUBJ0008,43,L00043,WBC,White Blood Cell Count,HEMATOLOGY,9.88,10^9/L,4.5,11.0,9.88,9.88,10^9/L,4.5,11.0,NORMAL,,WEEK 4,5,2025-08-07,28
STUDY001,LB,STUDY001-SUBJ0008,44,L00044,PLT,Platelet Count,HEMATOLOGY,254.21,10^9/L,150.0,450.0,254.21,254.21,10^9/L,150.0,450.0,NORMAL,,WEEK 4,5,2025-08-07,28
STUDY001,LB,STUDY001-SUBJ0008,45,L00045,GLUC,Glucose,CHEMISTRY,84.82,mg/dL,70.0,100.0,84.82,84.82,mg/dL,70.0,100.0,NORMAL,,WEEK 4,5,2025-08-07,28
STUDY001,LB,STUDY001-SUBJ0008,46,L00046,BUN,Blood Urea Nitrogen,CHEMISTRY,9.82,mg/dL,7.0,20.0,9.82,9.82,mg/dL,7.0,20.0,NORMAL,,WEEK 4,5,2025-08-07,28
STUDY001,LB,STUDY001-SUBJ0008,47,L00047,CREAT,Creatinine,CHEMISTRY,0.81,mg/dL,0.6,1.2,0.81,0.81,mg/dL,0.6,1.2,NORMAL,,WEEK 4,5,2025-08-07,28
STUDY001,LB,STUDY001-SUBJ0008,48,L00048,BILI,Total Bilirubin,CHEMISTRY,0.78,mg/dL,0.1,1.2,0.78,0.78,mg/dL,0.1,1.2,NORMAL,,WEEK 4,5,2025-08-07,28
STUDY001,LB,STUDY001-SUBJ0008,49,L00049,ALP,Alkaline Phosphatase,CHEMISTRY,100.08,U/L,44.0,147.0,100.08,100.08,U/L,44.0,147.0,NORMAL,,WEEK 4,5,2025-08-07,28
STUDY001,LB,STUDY001-SUBJ0008,50,L00050,ALT,Alanine Aminotransferase,CHEMISTRY,27.05,U/L,7.0,56.0,27.05,27.05,U/L,7.0,56.0,NORMAL,,WEEK 4,5,2025-08-07,28
STUDY001,LB,STUDY001-SUBJ0008,51,L00051,HGB,Hemoglobin,HEMATOLOGY,15.34,g/dL,13.5,17.5,15.34,15.34,g/dL,13.5,17.5,NORMAL,,WEEK 8,6,2025-09-04,56
STUDY001,LB,STUDY001-SUBJ0008,52,L00052,HCT,Hematocrit,HEMATOLOGY,46.06,%,41.0,51.0,46.06,46.06,%,41.0,51.0,NORMAL,,WEEK 8,6,2025-09-04,56
STUDY001,LB,STUDY001-SUBJ0008,53,L00053,WBC,White Blood Cell Count,HEMATOLOGY,9.77,10^9/L,4.5,11.0,9.77,9.77,10^9/L,4.5,11.0,NORMAL,,WEEK 8,6,2025-09-04,56
STUDY001,LB,STUDY001-SUBJ0008,54,L00054,PLT,Platelet Count,HEMATOLOGY,255.77,10^9/L,150.0,450.0,255.77,255.77,10^9/L,150.0,450.0,NORMAL,,WEEK 8,6,2025-09-04,56
STUDY001,LB,STUDY001-SUBJ0008,55,L00055,GLUC,Glucose,CHEMISTRY,85.23,mg/dL,70.0,100.0,85.23,85.23,mg/dL,70.0,100.0,NORMAL,,WEEK 8,6,2025-09-04,56
STUDY001,LB,STUDY001-SUBJ0008,56,L00056,BUN,Blood Urea Nitrogen,CHEMISTRY,9.83,mg/dL,7.0,20.0,9.83,9.83,mg/dL,7.0,20.0,NORMAL,,WEEK 8,6,2025-09-04,56
STUDY001,LB,STUDY001-SUBJ0008,57,L00057,CREAT,Creatinine,CHEMISTRY,0.78,mg/dL,0.6,1.2,0.78,0.78,mg/dL,0.6,1.2,NORMAL,,WEEK 8,6,2025-09-04,56
STUDY001,LB,STUDY001-SUBJ0008,58,L00058,BILI,Total Bilirubin,CHEMISTRY,0.81,mg/dL,0.1,1.2,0.81,0.81,mg/dL,0.1,1.2,NORMAL,,WEEK 8,6,2025-09-04,56
STUDY001,LB,STUDY001-SUBJ0008,59,L00059,ALP,Alkaline Phosphatase,CHEMISTRY,102.23,U/L,44.0,147.0,102.23,102.23,U/L,44.0,147.0,NORMAL,,WEEK 8,6,2025-09-04,56
STUDY001,LB,STUDY001-SUBJ0008,60,L00060,ALT,Alanine Aminotransferase,CHEMISTRY,25.5,U/L,7.0,56.0,25.5,25.5,U/L,7.0,56.0,NORMAL,,WEEK 8,6,2025-09-04,56
STUDY001,LB,STUDY001-SUBJ0008,61,L00061,HGB,Hemoglobin,HEMATOLOGY,15.46,g/dL,13.5,17.5,15.46,15.46,g/dL,13.5,17.5,NORMAL,,WEEK 12,7,2025-10-02,84
STUDY001,LB,STUDY001-SUBJ0008,62,L00062,HCT,Hematocrit,HEMATOLOGY,45.62,%,41.0,51.0,45.62,45.62,%,41.0,51.0,NORMAL,,WEEK 12,7,2025-10-02,84
STUDY001,LB,STUDY001-SUBJ0008,63,L00063,WBC,White Blood Cell Count,HEMATOLOGY,9.58,10^9/L,4.5,11.0,9.58,9.58,10^9/L,4.5,11.0,NORMAL,,WEEK 12,7,2025-10-02,84
STUDY001,LB,STUDY001-SUBJ0008,64,L00064,PLT,Platelet Count,HEMATOLOGY,256.7,10^9/L,150.0,450.0,256.7,256.7,10^9/L,150.0,450.0,NORMAL,,WEEK 12,7,2025-10-02,84
STUDY001,LB,STUDY001-SUBJ0008,65,L00065,GLUC,Glucose,CHEMISTRY,84.74,mg/dL,70.0,100.0,84.74,84.74,mg/dL,70.0,100.0,NORMAL,,WEEK 12,7,2025-10-02,84
STUDY001,LB,STUDY001-SUBJ0008,66,L00066,BUN,Blood Urea Nitrogen,CHEMISTRY,8.99,mg/dL,7.0,20.0,8.99,8.99,mg/dL,7.0,20.0,NORMAL,,WEEK 12,7,2025-10-02,84
STUDY001,LB,STUDY001-SUBJ0008,67,L00067,CREAT,Creatinine,CHEMISTRY,0.76,mg/dL,0.6,1.2,0.76,0.76,mg/dL,0.6,1.2,NORMAL,,WEEK 12,7,2025-10-02,84
STUDY001,LB,STUDY001-SUBJ0008,68,L00068,BILI,Total Bilirubin,CHEMISTRY,0.79,mg/dL,0.1,1.2,0.79,0.79,mg/dL,0.1,1.2,NORMAL,,WEEK 12,7,2025-10-02,84
STUDY001,LB,STUDY001-SUBJ0008,69,L00069,ALP,Alkaline Phosphatase,CHEMISTRY,100.15,U/L,44.0,147.0,100.15,100.15,U/L,44.0,147.0,NORMAL,,WEEK 12,7,2025-10-02,84
STUDY001,LB,STUDY001-SUBJ0008,70,L00070,ALT,Alanine Aminotransferase,CHEMISTRY,28.07,U/L,7.0,56.0,28.07,28.07,U/L,7.0,56.0,NORMAL,,WEEK 12,7,2025-10-02,84
STUDY001,LB,STUDY001-SUBJ0008,71,L00071,HGB,Hemoglobin,HEMATOLOGY,15.29,g/dL,13.5,17.5,15.29,15.29,g/dL,13.5,17.5,NORMAL,,WEEK 16,8,2025-10-30,112
STUDY001,LB,STUDY001-SUBJ0008,72,L00072,HCT,Hematocrit,HEMATOLOGY,45.76,%,41.0,51.0,45.76,45.76,%,41.0,51.0,NORMAL,,WEEK 16,8,2025-10-30,112
STUDY001,LB,STUDY001-SUBJ0008,73,L00073,WBC,White Blood Cell Count,HEMATOLOGY,9.76,10^9/L,4.5,11.0,9.76,9.76,10^9/L,4.5,11.0,NORMAL,,WEEK 16,8,2025-10-30,112
STUDY001,LB,STUDY001-SUBJ0008,74,L00074,PLT,Platelet Count,HEMATOLOGY,257.49,10^9/L,150.0,450.0,257.49,257.49,10^9/L,150.0,450.0,NORMAL,,WEEK 16,8,2025-10-30,112
STUDY001,LB,STUDY001-SUBJ0008,75,L00075,GLUC,Glucose,CHEMISTRY,86.73,mg/dL,70.0,100.0,86.73,86.73,mg/dL,70.0,100.0,NORMAL,,WEEK 16,8,2025-10-30,112
STUDY001,LB,STUDY001-SUBJ0008,76,L00076,BUN,Blood Urea Nitrogen,CHEMISTRY,9.68,mg/dL,7.0,20.0,9.68,9.68,mg/dL,7.0,20.0,NORMAL,,WEEK 16,8,2025-10-30,112
STUDY001,LB,STUDY001-SUBJ0008,77,L00077,CREAT,Creatinine,CHEMISTRY,0.77,mg/dL,0.6,1.2,0.77,0.77,mg/dL,0.6,1.2,NORMAL,,WEEK 16,8,2025-10-30,112
STUDY001,LB,STUDY001-SUBJ0008,78,L00078,BILI,Total Bilirubin,CHEMISTRY,0.79,mg/dL,0.1,1.2,0.79,0.79,mg/dL,0.1,1.2,NORMAL,,WEEK 16,8,2025-10-30,112
STUDY001,LB,STUDY001-SUBJ0008,79,L00079,ALP,Alkaline Phosphatase,CHEMISTRY,100.8,U/L,44.0,147.0,100.8,100.8,U/L,44.0,147.0,NORMAL,,WEEK 16,8,2025-10-30,112
STUDY001,LB,STUDY001-SUBJ0008,80,L00080,ALT,Alanine Aminotransferase,CHEMISTRY,24.78,U/L,7.0,56.0,24.78,24.78,U/L,7.0,56.0,NORMAL,,WEEK 16,8,2025-10-30,112
STUDY001,LB,STUDY001-SUBJ0008,81,L00081,HGB,Hemoglobin,HEMATOLOGY,15.32,g/dL,13.5,17.5,15.32,15.32,g/dL,13.5,17.5,NORMAL,,END OF TREATMENT,9,2025-11-27,140
STUDY001,LB,STUDY001-SUBJ0008,82,L00082,HCT,Hematocrit,HEMATOLOGY,46.09,%,41.0,51.0,46.09,46.09,%,41.0,51.0,NORMAL,,END OF TREATMENT,9,2025-11-27,140
STUDY001,LB,STUDY001-SUBJ0008,83,L00083,WBC,White Blood Cell Count,HEMATOLOGY,9.71,10^9/L,4.5,11.0,9.71,9.71,10^9/L,4.5,11.0,NORMAL,,END OF TREATMENT,9,2025-11-27,140
STUDY001,LB,STUDY001-SUBJ0008,84,L00084,PLT,Platelet Count,HEMATOLOGY,259.03,10^9/L,150.0,450.0,259.03,259.03,10^9/L,150.0,450.0,NORMAL,,END OF TREATMENT,9,2025-11-27,140
STUDY001,LB,STUDY001-SUBJ0008,85,L00085,GLUC,Glucose,CHEMISTRY,84.67,mg/dL,70.0,100.0,84.67,84.67,mg/dL,70.0,100.0,NORMAL,,END OF TREATMENT,9,2025-11-27,140
STUDY001,LB,STUDY001-SUBJ0008,86,L00086,BUN,Blood Urea Nitrogen,CHEMISTRY,9.84,mg/dL,7.0,20.0,9.84,9.84,mg/dL,7.0,20.0,NORMAL,,END OF TREATMENT,9,2025-11-27,140
STUDY001,LB,STUDY001-SUBJ0008,87,L00087,CREAT,Creatinine,CHEMISTRY,0.79,mg/dL,0.6,1.2,0.79,0.79,mg/dL,0.6,1.2,NORMAL,,END OF TREATMENT,9,2025-11-27,140
STUDY001,LB,STUDY001-SUBJ0008,88,L00088,BILI,Total Bilirubin,CHEMISTRY,0.79,mg/dL,0.1,1.2,0.79,0.79,mg/dL,0.1,1.2,NORMAL,,END OF TREATMENT,9,2025-11-27,140
STUDY001,LB,STUDY001-SUBJ0008,89,L00089,ALP,Alkaline Phosphatase,CHEMISTRY,100.24,U/L,44.0,147.0,100.24,100.24,U/L,44.0,147.0,NORMAL,,END OF TREATMENT,9,2025-11-27,140
STUDY001,LB,STUDY001-SUBJ0008,90,L00090,ALT,Alanine Aminotransferase,CHEMISTRY,25.52,U/L,7.0,56.0,25.52,25.52,U/L,7.0,56.0,NORMAL,,END OF TREATMENT,9,2025-11-27,140
STUDY001,LB,STUDY001-SUBJ0009,1,L00001,HGB,Hemoglobin,HEMATOLOGY,15.63,g/dL,13.5,17.5,15.63,15.63,g/dL,13.5,17.5,NORMAL,,SCREENING,1,2024-09-11,-14
STUDY001,LB,STUDY001-SUBJ0009,2,L00002,HCT,Hematocrit,HEMATOLOGY,44.96,%,41.0,51.0,44.96,44.96,%,41.0,51.0,NORMAL,,SCREENING,1,2024-09-11,-14
STUDY001,LB,STUDY001-SUBJ0009,3,L00003,WBC,White Blood Cell Count,HEMATOLOGY,7.17,10^9/L,4.5,11.0,7.17,7.17,10^9/L,4.5,11.0,NORMAL,,SCREENING,1,2024-09-11,-14
STUDY001,LB,STUDY001-SUBJ0009,4,L00004,PLT,Platelet Count,HEMATOLOGY,284.66,10^9/L,150.0,450.0,284.66,284.66,10^9/L,150.0,450.0,NORMAL,,SCREENING,1,2024-09-11,-14
STUDY001,LB,STUDY001-SUBJ0009,5,L00005,GLUC,Glucose,CHEMISTRY,71.69,mg/dL,70.0,100.0,71.69,71.69,mg/dL,70.0,100.0,NORMAL,,SCREENING,1,2024-09-11,-14
STUDY001,LB,STUDY001-SUBJ0009,6,L00006,BUN,Blood Urea Nitrogen,CHEMISTRY,11.38,mg/dL,7.0,20.0,11.38,11.38,mg/dL,7.0,20.0,NORMAL,,SCREENING,1,2024-09-11,-14
STUDY001,LB,STUDY001-SUBJ0009,7,L00007,CREAT,Creatinine,CHEMISTRY,0.76,mg/dL,0.6,1.2,0.76,0.76,mg/dL,0.6,1.2,NORMAL,,SCREENING,1,2024-09-11,-14
STUDY001,LB,STUDY001-SUBJ0009,8,L00008,BILI,Total Bilirubin,CHEMISTRY,0.67,mg/dL,0.1,1.2,0.67,0.67,mg/dL,0.1,1.2,NORMAL,,SCREENING,1,2024-09-11,-14
STUDY001,LB,STUDY001-SUBJ0009,9,L00009,ALP,Alkaline Phosphatase,CHEMISTRY,96.65,U/L,44.0,147.0,96.65,96.65,U/L,44.0,147.0,NORMAL,,SCREENING,1,2024-09-11,-14
STUDY001,LB,STUDY001-SUBJ0009,10,L00010,ALT,Alanine Aminotransferase,CHEMISTRY,39.85,U/L,7.0,56.0,39.85,39.85,U/L,7.0,56.0,NORMAL,,SCREENING,1,2024-09-11,-14
STUDY001,LB,STUDY001-SUBJ0009,11,L00011,HGB,Hemoglobin,HEMATOLOGY,15.53,g/dL,13.5,17.5,15.53,15.53,g/dL,13.5,17.5,NORMAL,Y,BASELINE,2,2024-09-25,1
STUDY001,LB,STUDY001-SUBJ0009,12,L00012,HCT,Hematocrit,HEMATOLOGY,45.25,%,41.0,51.0,45.25,45.25,%,41.0,51.0,NORMAL,Y,BASELINE,2,2024-09-25,1
STUDY001,LB,STUDY001-SUBJ0009,13,L00013,WBC,White Blood Cell Count,HEMATOLOGY,7.18,10^9/L,4.5,11.0,7.18,7.18,10^9/L,4.5,11.0,NORMAL,Y,BASELINE,2,2024-09-25,1
STUDY001,LB,STUDY001-SUBJ0009,14,L00014,PLT,Platelet Count,HEMATOLOGY,280.63,10^9/L,150.0,450.0,280.63,280.63,10^9/L,150.0,450.0,NORMAL,Y,BASELINE,2,2024-09-25,1
STUDY001,LB,STUDY001-SUBJ0009,15,L00015,GLUC,Glucose,CHEMISTRY,71.4,mg/dL,70.0,100.0,71.4,71.4,mg/dL,70.0,100.0,NORMAL,Y,BASELINE,2,2024-09-25,1
STUDY001,LB,STUDY001-SUBJ0009,16,L00016,BUN,Blood Urea Nitrogen,CHEMISTRY,10.73,mg/dL,7.0,20.0,10.73,10.73,mg/dL,7.0,20.0,NORMAL,Y,BASELINE,2,2024-09-25,1
STUDY001,LB,STUDY001-SUBJ0009,17,L00017,CREAT,Creatinine,CHEMISTRY,0.76,mg/dL,0.6,1.2,0.76,0.76,mg/dL,0.6,1.2,NORMAL,Y,BASELINE,2,2024-09-25,1
STUDY001,LB,STUDY001-SUBJ0009,18,L00018,BILI,Total Bilirubin,CHEMISTRY,0.68,mg/dL,0.1,1.2,0.68,0.68,mg/dL,0.1,1.2,NORMAL,Y,BASELINE,2,2024-09-25,1
STUDY001,LB,STUDY001-SUBJ0009,19,L00019,ALP,Alkaline Phosphatase,CHEMISTRY,94.48,U/L,44.0,147.0,94.48,94.48,U/L,44.0,147.0,NORMAL,Y,BASELINE,2,2024-09-25,1
STUDY001,LB,STUDY001-SUBJ0009,20,L00020,ALT,Alanine Aminotransferase,CHEMISTRY,39.35,U/L,7.0,56.0,39.35,39.35,U/L,7.0,56.0,NORMAL,Y,BASELINE,2,2024-09-25,1
STUDY001,LB,STUDY001-SUBJ0009,21,L00021,HGB,Hemoglobin,HEMATOLOGY,15.8,g/dL,13.5,17.5,15.8,15.8,g/dL,13.5,17.5,NORMAL,,WEEK 1,3,2024-10-01,7
STUDY001,LB,STUDY001-SUBJ0009,22,L00022,HCT,Hematocrit,HEMATOLOGY,44.84,%,41.0,51.0,44.84,44.84,%,41.0,51.0,NORMAL,,WEEK 1,3,2024-10-01,7
STUDY001,LB,STUDY001-SUBJ0009,23,L00023,WBC,White Blood Cell Count,HEMATOLOGY,7.08,10^9/L,4.5,11.0,7.08,7.08,10^9/L,4.5,11.0,NORMAL,,WEEK 1,3,2024-10-01,7
STUDY001,LB,STUDY001-SUBJ0009,24,L00024,PLT,Platelet Count,HEMATOLOGY,286.33,10^9/L,150.0,450.0,286.33,286.33,10^9/L,150.0,450.0,NORMAL,,WEEK 1,3,2024-10-01,7
STUDY001,LB,STUDY001-SUBJ0009,25,L00025,GLUC,Glucose,CHEMISTRY,71.07,mg/dL,70.0,100.0,71.07,71.07,mg/dL,70.0,100.0,NORMAL,,WEEK 1,3,2024-10-01,7
STUDY001,LB,STUDY001-SUBJ0009,26,L00026,BUN,Blood Urea Nitrogen,CHEMISTRY,11.42,mg/dL,7.0,20.0,11.42,11.42,mg/dL,7.0,20.0,NORMAL,,WEEK 1,3,2024-10-01,7
STUDY001,LB,STUDY001-SUBJ0009,27,L00027,CREAT,Creatinine,CHEMISTRY,0.76,mg/dL,0.6,1.2,0.76,0.76,mg/dL,0.6,1.2,NORMAL,,WEEK 1,3,2024-10-01,7
STUDY001,LB,STUDY001-SUBJ0009,28,L00028,BILI,Total Bilirubin,CHEMISTRY,0.66,mg/dL,0.1,1.2,0.66,0.66,mg/dL,0.1,1.2,NORMAL,,WEEK 1,3,2024-10-01,7
STUDY001,LB,STUDY001-SUBJ0009,29,L00029,ALP,Alkaline Phosphatase,CHEMISTRY,92.77,U/L,44.0,147.0,92.77,92.77,U/L,44.0,147.0,NORMAL,,WEEK 1,3,2024-10-01,7
STUDY001,LB,STUDY001-SUBJ0009,30,L00030,ALT,Alanine Aminotransferase,CHEMISTRY,39.97,U/L,7.0,56.0,39.97,39.97,U/L,7.0,56.0,NORMAL,,WEEK 1,3,2024-10-01,7
STUDY001,LB,STUDY001-SUBJ0009,31,L00031,HGB,Hemoglobin,HEMATOLOGY,15.71,g/dL,13.5,17.5,15.71,15.71,g/dL,13.5,17.5,NORMAL,,WEEK 2,4,2024-10-08,14
STUDY001,LB,STUDY001-SUBJ0009,32,L00032,HCT,Hematocrit,HEMATOLOGY,45.15,%,41.0,51.0,45.15,45.15,%,41.0,51.0,NORMAL,,WEEK 2,4,2024-10-08,14
STUDY001,LB,STUDY001-SUBJ0009,33,L00033,WBC,White Blood Cell Count,HEMATOLOGY,7.36,10^9/L,4.5,11.0,7.36,7.36,10^9/L,4.5,11.0,NORMAL,,WEEK 2,4,2024-10-08,14
STUDY001,LB,STUDY001-SUBJ0009,34,L00034,PLT,Platelet Count,HEMATOLOGY,279.64,10^9/L,150.0,450.0,279.64,279.64,10^9/L,150.0,450.0,NORMAL,,WEEK 2,4,2024-10-08,14
STUDY001,LB,STUDY001-SUBJ0009,35,L00035,GLUC,Glucose,CHEMISTRY,68.51,mg/dL,70.0,100.0,68.51,68.51,mg/dL,70.0,100.0,LOW,,WEEK 2,4,2024-10-08,14
STUDY001,LB,STUDY001-SUBJ0009,36,L00036,BUN,Blood Urea Nitrogen,CHEMISTRY,11.19,mg/dL,7.0,20.0,11.19,11.19,mg/dL,7.0,20.0,NORMAL,,WEEK 2,4,2024-10-08,14
STUDY001,LB,STUDY001-SUBJ0009,37,L00037,CREAT,Creatinine,CHEMISTRY,0.75,mg/dL,0.6,1.2,0.75,0.75,mg/dL,0.6,1.2,NORMAL,,WEEK 2,4,2024-10-08,14
STUDY001,LB,STUDY001-SUBJ0009,38,L00038,BILI,Total Bilirubin,CHEMISTRY,0.67,mg/dL,0.1,1.2,0.67,0.67,mg/dL,0.1,1.2,NORMAL,,WEEK 2,4,2024-10-08,14
STUDY001,LB,STUDY001-SUBJ0009,39,L00039,ALP,Alkaline Phosphatase,CHEMISTRY,95.61,U/L,44.0,147.0,95.61,95.61,U/L,44.0,147.0,NORMAL,,WEEK 2,4,2024-10-08,14
STUDY001,LB,STUDY001-SUBJ0009,40,L00040,ALT,Alanine Aminotransferase,CHEMISTRY,39.46,U/L,7.0,56.0,39.46,39.46,U/L,7.0,56.0,NORMAL,,WEEK 2,4,2024-10-08,14
STUDY001,LB,STUDY001-SUBJ0009,41,L00041,HGB,Hemoglobin,HEMATOLOGY,15.54,g/dL,13.5,17.5,15.54,15.54,g/dL,13.5,17.5,NORMAL,,WEEK 4,5,2024-10-22,28
STUDY001,LB,STUDY001-SUBJ0009,42,L00042,HCT,Hematocrit,HEMATOLOGY,44.69,%,41.0,51.0,44.69,44.69,%,41.0,51.0,NORMAL,,WEEK 4,5,2024-10-22,28
STUDY001,LB,STUDY001-SUBJ0009,43,L00043,WBC,White Blood Cell Count,HEMATOLOGY,7.05,10^9/L,4.5,11.0,7.05,7.05,10^9/L,4.5,11.0,NORMAL,,WEEK 4,5,2024-10-22,28
STUDY001,LB,STUDY001-SUBJ0009,44,L00044,PLT,Platelet Count,HEMATOLOGY,273.97,10^9/L,150.0,450.0,273.97,273.97,10^9/L,150.0,450.0,NORMAL,,WEEK 4,5,2024-10-22,28
STUDY001,LB,STUDY001-SUBJ0009,45,L00045,GLUC,Glucose,CHEMISTRY,67.11,mg/dL,70.0,100.0,67.11,67.11,mg/dL,70.0,100.0,LOW,,WEEK 4,5,2024-10-22,28
STUDY001,LB,STUDY001-SUBJ0009,46,L00046,BUN,Blood Urea Nitrogen,CHEMISTRY,11.42,mg/dL,7.0,20.0,11.42,11.42,mg/dL,7.0,20.0,NORMAL,,WEEK 4,5,2024-10-22,28
STUDY001,LB,STUDY001-SUBJ0009,47,L00047,CREAT,Creatinine,CHEMISTRY,0.78,mg/dL,0.6,1.2,0.78,0.78,mg/dL,0.6,1.2,NORMAL,,WEEK 4,5,2024-10-22,28
STUDY001,LB,STUDY001-SUBJ0009,48,L00048,BILI,Total Bilirubin,CHEMISTRY,0.66,mg/dL,0.1,1.2,0.66,0.66,mg/dL,0.1,1.2,NORMAL,,WEEK 4,5,2024-10-22,28
STUDY001,LB,STUDY001-SUBJ0009,49,L00049,ALP,Alkaline Phosphatase,CHEMISTRY,95.54,U/L,44.0,147.0,95.54,95.54,U/L,44.0,147.0,NORMAL,,WEEK 4,5,2024-10-22,28
STUDY001,LB,STUDY001-SUBJ0009,50,L00050,ALT,Alanine Aminotransferase,CHEMISTRY,40.53,U/L,7.0,56.0,40.53,40.53,U/L,7.0,56.0,NORMAL,,WEEK 4,5,2024-10-22,28
STUDY001,LB,STUDY001-SUBJ0009,51,L00051,HGB,Hemoglobin,HEMATOLOGY,15.57,g/dL,13.5,17.5,15.57,15.57,g/dL,13.5,17.5,NORMAL,,WEEK 8,6,2024-11-19,56
STUDY001,LB,STUDY001-SUBJ0009,52,L00052,HCT,Hematocrit,HEMATOLOGY,44.46,%,41.0,51.0,44.46,44.46,%,41.0,51.0,NORMAL,,WEEK 8,6,2024-11-19,56
STUDY001,LB,STUDY001-SUBJ0009,53,L00053,WBC,White Blood Cell Count,HEMATOLOGY,7.21,10^9/L,4.5,11.0,7.21,7.21,10^9/L,4.5,11.0,NORMAL,,WEEK 8,6,2024-11-19,56
STUDY001,LB,STUDY001-SUBJ0009,54,L00054,PLT,Platelet Count,HEMATOLOGY,276.47,10^9/L,150.0,450.0,276.47,276.47,10^9/L,150.0,450.0,NORMAL,,WEEK 8,6,2024-11-19,56
STUDY001,LB,STUDY001-SUBJ0009,55,L00055,GLUC,Glucose,CHEMISTRY,68.84,mg/dL,70.0,100.0,68.84,68.84,mg/dL,70.0,100.0,LOW,,WEEK 8,6,2024-11-19,56
STUDY001,LB,STUDY001-SUBJ0009,56,L00056,BUN,Blood Urea Nitrogen,CHEMISTRY,11.35,mg/dL,7.0,20.0,11.35,11.35,mg/dL,7.0,20.0,NORMAL,,WEEK 8,6,2024-11-19,56
STUDY001,LB,STUDY001-SUBJ0009,57,L00057,CREAT,Creatinine,CHEMISTRY,0.78,mg/dL,0.6,1.2,0.78,0.78,mg/dL,0.6,1.2,NORMAL,,WEEK 8,6,2024-11-19,56
STUDY001,LB,STUDY001-SUBJ0009,58,L00058,BILI,Total Bilirubin,CHEMISTRY,0.68,mg/dL,0.1,1.2,0.68,0.68,mg/dL,0.1,1.2,NORMAL,,WEEK 8,6,2024-11-19,56
STUDY001,LB,STUDY001-SUBJ0009,59,L00059,ALP,Alkaline Phosphatase,CHEMISTRY,94.7,U/L,44.0,147.0,94.7,94.7,U/L,44.0,147.0,NORMAL,,WEEK 8,6,2024-11-19,56
STUDY001,LB,STUDY001-SUBJ0009,60,L00060,ALT,Alanine Aminotransferase,CHEMISTRY,39.36,U/L,7.0,56.0,39.36,39.36,U/L,7.0,56.0,NORMAL,,WEEK 8,6,2024-11-19,56
STUDY001,LB,STUDY001-SUBJ0009,61,L00061,HGB,Hemoglobin,HEMATOLOGY,15.3,g/dL,13.5,17.5,15.3,15.3,g/dL,13.5,17.5,NORMAL,,WEEK 12,7,2024-12-17,84
STUDY001,LB,STUDY001-SUBJ0009,62,L00062,HCT,Hematocrit,HEMATOLOGY,45.17,%,41.0,51.0,45.17,45.17,%,41.0,51.0,NORMAL,,WEEK 12,7,2024-12-17,84
STUDY001,LB,STUDY001-SUBJ0009,63,L00063,WBC,White Blood Cell Count,HEMATOLOGY,7.21,10^9/L,4.5,11.0,7.21,7.21,10^9/L,4.5,11.0,NORMAL,,WEEK 12,7,2024-12-17,84
STUDY001,LB,STUDY001-SUBJ0009,64,L00064,PLT,Platelet Count,HEMATOLOGY,283.93,10^9/L,150.0,450.0,283.93,283.93,10^9/L,150.0,450.0,NORMAL,,WEEK 12,7,2024-12-17,84
STUDY001,LB,STUDY001-SUBJ0009,65,L00065,GLUC,Glucose,CHEMISTRY,69.77,mg/dL,70.0,100.0,69.77,69.77,mg/dL,70.0,100.0,LOW,,WEEK 12,7,2024-12-17,84
STUDY001,LB,STUDY001-SUBJ0009,66,L00066,BUN,Blood Urea Nitrogen,CHEMISTRY,11.26,mg/dL,7.0,20.0,11.26,11.26,mg/dL,7.0,20.0,NORMAL,,WEEK 12,7,2024-12-17,84
STUDY001,LB,STUDY001-SUBJ0009,67,L00067,CREAT,Creatinine,CHEMISTRY,0.75,mg/dL,0.6,1.2,0.75,0.75,mg/dL,0.6,1.2,NORMAL,,WEEK 12,7,2024-12-17,84
STUDY001,LB,STUDY001-SUBJ0009,68,L00068,BILI,Total Bilirubin,CHEMISTRY,0.68,mg/dL,0.1,1.2,0.68,0.68,mg/dL,0.1,1.2,NORMAL,,WEEK 12,7,2024-12-17,84
STUDY001,LB,STUDY001-SUBJ0009,69,L00069,ALP,Alkaline Phosphatase,CHEMISTRY,90.67,U/L,44.0,147.0,90.67,90.67,U/L,44.0,147.0,NORMAL,,WEEK 12,7,2024-12-17,84
STUDY001,LB,STUDY001-SUBJ0009,70,L00070,ALT,Alanine Aminotransferase,CHEMISTRY,40.79,U/L,7.0,56.0,40.79,40.79,U/L,7.0,56.0,NORMAL,,WEEK 12,7,2024-12-17,84
STUDY001,LB,STUDY001-SUBJ0009,71,L00071,HGB,Hemoglobin,HEMATOLOGY,15.53,g/dL,13.5,17.5,15.53,15.53,g/dL,13.5,17.5,NORMAL,,WEEK 16,8,2025-01-14,112
STUDY001,LB,STUDY001-SUBJ0009,72,L00072,HCT,Hematocrit,HEMATOLOGY,45.03,%,41.0,51.0,45.03,45.03,%,41.0,51.0,NORMAL,,WEEK 16,8,2025-01-14,112
STUDY001,LB,STUDY001-SUBJ0009,73,L00073,WBC,White Blood Cell Count,HEMATOLOGY,7.31,10^9/L,4.5,11.0,7.31,7.31,10^9/L,4.5,11.0,NORMAL,,WEEK 16,8,2025-01-14,112
STUDY001,LB,STUDY001-SUBJ0009,74,L00074,PLT,Platelet Count,HEMATOLOGY,281.45,10^9/L,150.0,450.0,281.45,281.45,10^9/L,150.0,450.0,NORMAL,,WEEK 16,8,2025-01-14,112
STUDY001,LB,STUDY001-SUBJ0009,75,L00075,GLUC,Glucose,CHEMISTRY,69.57,mg/dL,70.0,100.0,69.57,69.57,mg/dL,70.0,100.0,LOW,,WEEK 16,8,2025-01-14,112
STUDY001,LB,STUDY001-SUBJ0009,76,L00076,BUN,Blood Urea Nitrogen,CHEMISTRY,11.18,mg/dL,7.0,20.0,11.18,11.18,mg/dL,7.0,20.0,NORMAL,,WEEK 16,8,2025-01-14,112
STUDY001,LB,STUDY001-SUBJ0009,77,L00077,CREAT,Creatinine,CHEMISTRY,0.76,mg/dL,0.6,1.2,0.76,0.76,mg/dL,0.6,1.2,NORMAL,,WEEK 16,8,2025-01-14,112
STUDY001,LB,STUDY001-SUBJ0009,78,L00078,BILI,Total Bilirubin,CHEMISTRY,0.69,mg/dL,0.1,1.2,0.69,0.69,mg/dL,0.1,1.2,NORMAL,,WEEK 16,8,2025-01-14,112
STUDY001,LB,STUDY001-SUBJ0009,79,L00079,ALP,Alkaline Phosphatase,CHEMISTRY,92.96,U/L,44.0,147.0,92.96,92.96,U/L,44.0,147.0,NORMAL,,WEEK 16,8,2025-01-14,112
STUDY001,LB,STUDY001-SUBJ0009,80,L00080,ALT,Alanine Aminotransferase,CHEMISTRY,39.54,U/L,7.0,56.0,39.54,39.54,U/L,7.0,56.0,NORMAL,,WEEK 16,8,2025-01-14,112
STUDY001,LB,STUDY001-SUBJ0009,81,L00081,HGB,Hemoglobin,HEMATOLOGY,15.53,g/dL,13.5,17.5,15.53,15.53,g/dL,13.5,17.5,NORMAL,,END OF TREATMENT,9,2025-02-11,140
STUDY001,LB,STUDY001-SUBJ0009,82,L00082,HCT,Hematocrit,HEMATOLOGY,45.08,%,41.0,51.0,45.08,45.08,%,41.0,51.0,NORMAL,,END OF TREATMENT,9,2025-02-11,140
STUDY001,LB,STUDY001-SUBJ0009,83,L00083,WBC,White Blood Cell Count,HEMATOLOGY,7.24,10^9/L,4.5,11.0,7.24,7.24,10^9/L,4.5,11.0,NORMAL,,END OF TREATMENT,9,2025-02-11,140
STUDY001,LB,STUDY001-SUBJ0009,84,L00084,PLT,Platelet Count,HEMATOLOGY,284.11,10^9/L,150.0,450.0,284.11,284.11,10^9/L,150.0,450.0,NORMAL,,END OF TREATMENT,9,2025-02-11,140
STUDY001,LB,STUDY001-SUBJ0009,85,L00085,GLUC,Glucose,CHEMISTRY,68.81,mg/dL,70.0,100.0,68.81,68.81,mg/dL,70.0,100.0,LOW,,END OF TREATMENT,9,2025-02-11,140
STUDY001,LB,STUDY001-SUBJ0009,86,L00086,BUN,Blood Urea Nitrogen,CHEMISTRY,11.11,mg/dL,7.0,20.0,11.11,11.11,mg/dL,7.0,20.0,NORMAL,,END OF TREATMENT,9,2025-02-11,140
STUDY001,LB,STUDY001-SUBJ0009,87,L00087,CREAT,Creatinine,CHEMISTRY,0.76,mg/dL,0.6,1.2,0.76,0.76,mg/dL,0.6,1.2,NORMAL,,END OF TREATMENT,9,2025-02-11,140
STUDY001,LB,STUDY001-SUBJ0009,88,L00088,BILI,Total Bilirubin,CHEMISTRY,0.66,mg/dL,0.1,1.2,0.66,0.66,mg/dL,0.1,1.2,NORMAL,,END OF TREATMENT,9,2025-02-11,140
STUDY001,LB,STUDY001-SUBJ0009,89,L00089,ALP,Alkaline Phosphatase,CHEMISTRY,95.4,U/L,44.0,147.0,95.4,95.4,U/L,44.0,147.0,NORMAL,,END OF TREATMENT,9,2025-02-11,140
STUDY001,LB,STUDY001-SUBJ0009,90,L00090,ALT,Alanine Aminotransferase,CHEMISTRY,39.52,U/L,7.0,56.0,39.52,39.52,U/L,7.0,56.0,NORMAL,,END OF TREATMENT,9,2025-02-11,140
STUDY001,LB,STUDY001-SUBJ0010,1,L00001,HGB,Hemoglobin,HEMATOLOGY,15.93,g/dL,13.5,17.5,15.93,15.93,g/dL,13.5,17.5,NORMAL,,SCREENING,1,2024-11-20,-14
STUDY001,LB,STUDY001-SUBJ0010,2,L00002,HCT,Hematocrit,HEMATOLOGY,42.0,%,41.0,51.0,42.0,42.0,%,41.0,51.0,NORMAL,,SCREENING,1,2024-11-20,-14
STUDY001,LB,STUDY001-SUBJ0010,3,L00003,WBC,White Blood Cell Count,HEMATOLOGY,8.25,10^9/L,4.5,11.0,8.25,8.25,10^9/L,4.5,11.0,NORMAL,,SCREENING,1,2024-11-20,-14
STUDY001,LB,STUDY001-SUBJ0010,4,L00004,PLT,Platelet Count,HEMATOLOGY,220.07,10^9/L,150.0,450.0,220.07,220.07,10^9/L,150.0,450.0,NORMAL,,SCREENING,1,2024-11-20,-14
STUDY001,LB,STUDY001-SUBJ0010,5,L00005,GLUC,Glucose,CHEMISTRY,70.68,mg/dL,70.0,100.0,70.68,70.68,mg/dL,70.0,100.0,NORMAL,,SCREENING,1,2024-11-20,-14
STUDY001,LB,STUDY001-SUBJ0010,6,L00006,BUN,Blood Urea Nitrogen,CHEMISTRY,10.06,mg/dL,7.0,20.0,10.06,10.06,mg/dL,7.0,20.0,NORMAL,,SCREENING,1,2024-11-20,-14
STUDY001,LB,STUDY001-SUBJ0010,7,L00007,CREAT,Creatinine,CHEMISTRY,0.83,mg/dL,0.6,1.2,0.83,0.83,mg/dL,0.6,1.2,NORMAL,,SCREENING,1,2024-11-20,-14
STUDY001,LB,STUDY001-SUBJ0010,8,L00008,BILI,Total Bilirubin,CHEMISTRY,0.78,mg/dL,0.1,1.2,0.78,0.78,mg/dL,0.1,1.2,NORMAL,,SCREENING,1,2024-11-20,-14
STUDY001,LB,STUDY001-SUBJ0010,9,L00009,ALP,Alkaline Phosphatase,CHEMISTRY,79.74,U/L,44.0,147.0,79.74,79.74,U/L,44.0,147.0,NORMAL,,SCREENING,1,2024-11-20,-14
STUDY001,LB,STUDY001-SUBJ0010,10,L00010,ALT,Alanine Aminotransferase,CHEMISTRY,43.14,U/L,7.0,56.0,43.14,43.14,U/L,7.0,56.0,NORMAL,,SCREENING,1,2024-11-20,-14
STUDY001,LB,STUDY001-SUBJ0010,11,L00011,HGB,Hemoglobin,HEMATOLOGY,16.02,g/dL,13.5,17.5,16.02,16.02,g/dL,13.5,17.5,NORMAL,Y,BASELINE,2,2024-12-04,1
STUDY001,LB,STUDY001-SUBJ0010,12,L00012,HCT,Hematocrit,HEMATOLOGY,42.12,%,41.0,51.0,42.12,42.12,%,41.0,51.0,NORMAL,Y,BASELINE,2,2024-12-04,1
STUDY001,LB,STUDY001-SUBJ0010,13,L00013,WBC,White Blood Cell Count,HEMATOLOGY,8.31,10^9/L,4.5,11.0,8.31,8.31,10^9/L,4.5,11.0,NORMAL,Y,BASELINE,2,2024-12-04,1
STUDY001,LB,STUDY001-SUBJ0010,14,L00014,PLT,Platelet Count,HEMATOLOGY,222.91,10^9/L,150.0,450.0,222.91,222.91,10^9/L,150.0,450.0,NORMAL,Y,BASELINE,2,2024-12-04,1
STUDY001,LB,STUDY001-SUBJ0010,15,L00015,GLUC,Glucose,CHEMISTRY,72.87,mg/dL,70.0,100.0,72.87,72.87,mg/dL,70.0,100.0,NORMAL,Y,BASELINE,2,2024-12-04,1
STUDY001,LB,STUDY001-SUBJ0010,16,L00016,BUN,Blood Urea Nitrogen,CHEMISTRY,9.6,mg/dL,7.0,20.0,9.6,9.6,mg/dL,7.0,20.0,NORMAL,Y,BASELINE,2,2024-12-04,1
STUDY001,LB,STUDY001-SUBJ0010,17,L00017,CREAT,Creatinine,CHEMISTRY,0.83,mg/dL,0.6,1.2,0.83,0.83,mg/dL,0.6,1.2,NORMAL,Y,BASELINE,2,2024-12-04,1
STUDY001,LB,STUDY001-SUBJ0010,18,L00018,BILI,Total Bilirubin,CHEMISTRY,0.78,mg/dL,0.1,1.2,0.78,0.78,mg/dL,0.1,1.2,NORMAL,Y,BASELINE,2,2024-12-04,1
STUDY001,LB,STUDY001-SUBJ0010,19,L00019,ALP,Alkaline Phosphatase,CHEMISTRY,77.37,U/L,44.0,147.0,77.37,77.37,U/L,44.0,147.0,NORMAL,Y,BASELINE,2,2024-12-04,1
STUDY001,LB,STUDY001-SUBJ0010,20,L00020,ALT,Alanine Aminotransferase,CHEMISTRY,43.93,U/L,7.0,56.0,43.93,43.93,U/L,7.0,56.0,NORMAL,Y,BASELINE,2,2024-12-04,1
STUDY001,LB,STUDY001-SUBJ0010,21,L00021,HGB,Hemoglobin,HEMATOLOGY,16.11,g/dL,13.5,17.5,16.11,16.11,g/dL,13.5,17.5,NORMAL,,WEEK 1,3,2024-12-10,7
STUDY001,LB,STUDY001-SUBJ0010,22,L00022,HCT,Hematocrit,HEMATOLOGY,42.07,%,41.0,51.0,42.07,42.07,%,41.0,51.0,NORMAL,,WEEK 1,3,2024-12-10,7
STUDY001,LB,STUDY001-SUBJ0010,23,L00023,WBC,White Blood Cell Count,HEMATOLOGY,8.33,10^9/L,4.5,11.0,8.33,8.33,10^9/L,4.5,11.0,NORMAL,,WEEK 1,3,2024-12-10,7
STUDY001,LB,STUDY001-SUBJ0010,24,L00024,PLT,Platelet Count,HEMATOLOGY,221.85,10^9/L,150.0,450.0,221.85,221.85,10^9/L,150.0,450.0,NORMAL,,WEEK 1,3,2024-12-10,7
STUDY001,LB,STUDY001-SUBJ0010,25,L00025,GLUC,Glucose,CHEMISTRY,73.94,mg/dL,70.0,100.0,73.94,73.94,mg/dL,70.0,100.0,NORMAL,,WEEK 1,3,2024-12-10,7
STUDY001,LB,STUDY001-SUBJ0010,26,L00026,BUN,Blood Urea Nitrogen,CHEMISTRY,9.81,mg/dL,7.0,20.0,9.81,9.81,mg/dL,7.0,20.0,NORMAL,,WEEK 1,3,2024-12-10,7
STUDY001,LB,STUDY001-SUBJ0010,27,L00027,CREAT,Creatinine,CHEMISTRY,0.83,mg/dL,0.6,1.2,0.83,0.83,mg/dL,0.6,1.2,NORMAL,,WEEK 1,3,2024-12-10,7
STUDY001,LB,STUDY001-SUBJ0010,28,L00028,BILI,Total Bilirubin,CHEMISTRY,0.8,mg/dL,0.1,1.2,0.8,0.8,mg/dL,0.1,1.2,NORMAL,,WEEK 1,3,2024-12-10,7
STUDY001,LB,STUDY001-SUBJ0010,29,L00029,ALP,Alkaline Phosphatase,CHEMISTRY,78.39,U/L,44.0,147.0,78.39,78.39,U/L,44.0,147.0,NORMAL,,WEEK 1,3,2024-12-10,7
STUDY001,LB,STUDY001-SUBJ0010,30,L00030,ALT,Alanine Aminotransferase,CHEMISTRY,43.22,U/L,7.0,56.0,43.22,43.22,U/L,7.0,56.0,NORMAL,,WEEK 1,3,2024-12-10,7
STUDY001,LB,STUDY001-SUBJ0010,31,L00031,HGB,Hemoglobin,HEMATOLOGY,16.16,g/dL,13.5,17.5,16.16,16.16,g/dL,13.5,17.5,NORMAL,,WEEK 2,4,2024-12-17,14
STUDY001,LB,STUDY001-SUBJ0010,32,L00032,HCT,Hematocrit,HEMATOLOGY,42.05,%,41.0,51.0,42.05,42.05,%,41.0,51.0,NORMAL,,WEEK 2,4,2024-12-17,14
STUDY001,LB,STUDY001-SUBJ0010,33,L00033,WBC,White Blood Cell Count,HEMATOLOGY,8.25,10^9/L,4.5,11.0,8.25,8.25,10^9/L,4.5,11.0,NORMAL,,WEEK 2,4,2024-12-17,14
STUDY001,LB,STUDY001-SUBJ0010,34,L00034,PLT,Platelet Count,HEMATOLOGY,224.11,10^9/L,150.0,450.0,224.11,224.11,10^9/L,150.0,450.0,NORMAL,,WEEK 2,4,2024-12-17,14
STUDY001,LB,STUDY001-SUBJ0010,35,L00035,GLUC,Glucose,CHEMISTRY,74.23,mg/dL,70.0,100.0,74.23,74.23,mg/dL,70.0,100.0,NORMAL,,WEEK 2,4,2024-12-17,14
STUDY001,LB,STUDY001-SUBJ0010,36,L00036,BUN,Blood Urea Nitrogen,CHEMISTRY,9.9,mg/dL,7.0,20.0,9.9,9.9,mg/dL,7.0,20.0,NORMAL,,WEEK 2,4,2024-12-17,14
STUDY001,LB,STUDY001-SUBJ0010,37,L00037,CREAT,Creatinine,CHEMISTRY,0.83,mg/dL,0.6,1.2,0.83,0.83,mg/dL,0.6,1.2,NORMAL,,WEEK 2,4,2024-12-17,14
STUDY001,LB,STUDY001-SUBJ0010,38,L00038,BILI,Total Bilirubin,CHEMISTRY,0.84,mg/dL,0.1,1.2,0.84,0.84,mg/dL,0.1,1.2,NORMAL,,WEEK 2,4,2024-12-17,14
STUDY001,LB,STUDY001-SUBJ0010,39,L00039,ALP,Alkaline Phosphatase,CHEMISTRY,79.86,U/L,44.0,147.0,79.86,79.86,U/L,44.0,147.0,NORMAL,,WEEK 2,4,2024-12-17,14
STUDY001,LB,STUDY001-SUBJ0010,40,L00040,ALT,Alanine Aminotransferase,CHEMISTRY,44.05,U/L,7.0,56.0,44.05,44.05,U/L,7.0,56.0,NORMAL,,WEEK 2,4,2024-12-17,14
STUDY001,LB,STUDY001-SUBJ0010,41,L00041,HGB,Hemoglobin,HEMATOLOGY,16.1,g/dL,13.5,17.5,16.1,16.1,g/dL,13.5,17.5,NORMAL,,WEEK 4,5,2024-12-31,28
STUDY001,LB,STUDY001-SUBJ0010,42,L00042,HCT,Hematocrit,HEMATOLOGY,42.48,%,41.0,51.0,42.48,42.48,%,41.0,51.0,NORMAL,,WEEK 4,5,2024-12-31,28
STUDY001,LB,STUDY001-SUBJ0010,43,L00043,WBC,White Blood Cell Count,HEMATOLOGY,8.5,10^9/L,4.5,11.0,8.5,8.5,10^9/L,4.5,11.0,NORMAL,,WEEK 4,5,2024-12-31,28
STUDY001,LB,STUDY001-SUBJ0010,44,L00044,PLT,Platelet Count,HEMATOLOGY,215.26,10^9/L,150.0,450.0,215.26,215.26,10^9/L,150.0,450.0,NORMAL,,WEEK 4,5,2024-12-31,28
STUDY001,LB,STUDY001-SUBJ0010,45,L00045,GLUC,Glucose,CHEMISTRY,71.46,mg/dL,70.0,100.0,71.46,71.46,mg/dL,70.0,100.0,NORMAL,,WEEK 4,5,2024-12-31,28
STUDY001,LB,STUDY001-SUBJ0010,46,L00046,BUN,Blood Urea Nitrogen,CHEMISTRY,9.67,mg/dL,7.0,20.0,9.67,9.67,mg/dL,7.0,20.0,NORMAL,,WEEK 4,5,2024-12-31,28
STUDY001,LB,STUDY001-SUBJ0010,47,L00047,CREAT,Creatinine,CHEMISTRY,0.84,mg/dL,0.6,1.2,0.84,0.84,mg/dL,0.6,1.2,NORMAL,,WEEK 4,5,2024-12-31,28
STUDY001,LB,STUDY001-SUBJ0010,48,L00048,BILI,Total Bilirubin,CHEMISTRY,0.79,mg/dL,0.1,1.2,0.79,0.79,mg/dL,0.1,1.2,NORMAL,,WEEK 4,5,2024-12-31,28
STUDY001,LB,STUDY001-SUBJ0010,49,L00049,ALP,Alkaline Phosphatase,CHEMISTRY,76.16,U/L,44.0,147.0,76.16,76.16,U/L,44.0,147.0,NORMAL,,WEEK 4,5,2024-12-31,28
STUDY001,LB,STUDY001-SUBJ0010,50,L00050,ALT,Alanine Aminotransferase,CHEMISTRY,43.82,U/L,7.0,56.0,43.82,43.82,U/L,7.0,56.0,NORMAL,,WEEK 4,5,2024-12-31,28
STUDY001,LB,STUDY001-SUBJ0010,51,L00051,HGB,Hemoglobin,HEMATOLOGY,15.97,g/dL,13.5,17.5,15.97,15.97,g/dL,13.5,17.5,NORMAL,,WEEK 8,6,2025-01-28,56
STUDY001,LB,STUDY001-SUBJ0010,52,L00052,HCT,Hematocrit,HEMATOLOGY,42.51,%,41.0,51.0,42.51,42.51,%,41.0,51.0,NORMAL,,WEEK 8,6,2025-01-28,56
STUDY001,LB,STUDY001-SUBJ0010,53,L00053,WBC,White Blood Cell Count,HEMATOLOGY,8.13,10^9/L,4.5,11.0,8.13,8.13,10^9/L,4.5,11.0,NORMAL,,WEEK 8,6,2025-01-28,56
STUDY001,LB,STUDY001-SUBJ0010,54,L00054,PLT,Platelet Count,HEMATOLOGY,210.34,10^9/L,150.0,450.0,210.34,210.34,10^9/L,150.0,450.0,NORMAL,,WEEK 8,6,2025-01-28,56
STUDY001,LB,STUDY001-SUBJ0010,55,L00055,GLUC,Glucose,CHEMISTRY,72.24,mg/dL,70.0,100.0,72.24,72.24,mg/dL,70.0,100.0,NORMAL,,WEEK 8,6,2025-01-28,56
STUDY001,LB,STUDY001-SUBJ0010,56,L00056,BUN,Blood Urea Nitrogen,CHEMISTRY,9.13,mg/dL,7.0,20.0,9.13,9.13,mg/dL,7.0,20.0,NORMAL,,WEEK 8,6,2025-01-28,56
STUDY001,LB,STUDY001-SUBJ0010,57,L00057,CREAT,Creatinine,CHEMISTRY,0.82,mg/dL,0.6,1.2,0.82,0.82,mg/dL,0.6,1.2,NORMAL,,WEEK 8,6,2025-01-28,56
STUDY001,LB,STUDY001-SUBJ0010,58,L00058,BILI,Total Bilirubin,CHEMISTRY,0.82,mg/dL,0.1,1.2,0.82,0.82,mg/dL,0.1,1.2,NORMAL,,WEEK 8,6,2025-01-28,56
STUDY001,LB,STUDY001-SUBJ0010,59,L00059,ALP,Alkaline Phosphatase,CHEMISTRY,77.95,U/L,44.0,147.0,77.95,77.95,U/L,44.0,147.0,NORMAL,,WEEK 8,6,2025-01-28,56
STUDY001,LB,STUDY001-SUBJ0010,60,L00060,ALT,Alanine Aminotransferase,CHEMISTRY,44.38,U/L,7.0,56.0,44.38,44.38,U/L,7.0,56.0,NORMAL,,WEEK 8,6,2025-01-28,56
STUDY001,LB,STUDY001-SUBJ0010,61,L00061,HGB,Hemoglobin,HEMATOLOGY,15.99,g/dL,13.5,17.5,15.99,15.99,g/dL,13.5,17.5,NORMAL,,WEEK 12,7,2025-02-25,84
STUDY001,LB,STUDY001-SUBJ0010,62,L00062,HCT,Hematocrit,HEMATOLOGY,42.39,%,41.0,51.0,42.39,42.39,%,41.0,51.0,NORMAL,,WEEK 12,7,2025-02-25,84
STUDY001,LB,STUDY001-SUBJ0010,63,L00063,WBC,White Blood Cell Count,HEMATOLOGY,8.32,10^9/L,4.5,11.0,8.32,8.32,10^9/L,4.5,11.0,NORMAL,,WEEK 12,7,2025-02-25,84
STUDY001,LB,STUDY001-SUBJ0010,64,L00064,PLT,Platelet Count,HEMATOLOGY,223.32,10^9/L,150.0,450.0,223.32,223.32,10^9/L,150.0,450.0,NORMAL,,WEEK 12,7,2025-02-25,84
STUDY001,LB,STUDY001-SUBJ0010,65,L00065,GLUC,Glucose,CHEMISTRY,72.11,mg/dL,70.0,100.0,72.11,72.11,mg/dL,70.0,100.0,NORMAL,,WEEK 12,7,2025-02-25,84
STUDY001,LB,STUDY001-SUBJ0010,66,L00066,BUN,Blood Urea Nitrogen,CHEMISTRY,9.85,mg/dL,7.0,20.0,9.85,9.85,mg/dL,7.0,20.0,NORMAL,,WEEK 12,7,2025-02-25,84
STUDY001,LB,STUDY001-SUBJ0010,67,L00067,CREAT,Creatinine,CHEMISTRY,0.84,mg/dL,0.6,1.2,0.84,0.84,mg/dL,0.6,1.2,NORMAL,,WEEK 12,7,2025-02-25,84
STUDY001,LB,STUDY001-SUBJ0010,68,L00068,BILI,Total Bilirubin,CHEMISTRY,0.83,mg/dL,0.1,1.2,0.83,0.83,mg/dL,0.1,1.2,NORMAL,,WEEK 12,7,2025-02-25,84
STUDY001,LB,STUDY001-SUBJ0010,69,L00069,ALP,Alkaline Phosphatase,CHEMISTRY,76.52,U/L,44.0,147.0,76.52,76.52,U/L,44.0,147.0,NORMAL,,WEEK 12,7,2025-02-25,84
STUDY001,LB,STUDY001-SUBJ0010,70,L00070,ALT,Alanine Aminotransferase,CHEMISTRY,44.24,U/L,7.0,56.0,44.24,44.24,U/L,7.0,56.0,NORMAL,,WEEK 12,7,2025-02-25,84
STUDY001,LB,STUDY001-SUBJ0010,71,L00071,HGB,Hemoglobin,HEMATOLOGY,15.87,g/dL,13.5,17.5,15.87,15.87,g/dL,13.5,17.5,NORMAL,,WEEK 16,8,2025-03-25,112
STUDY001,LB,STUDY001-SUBJ0010,72,L00072,HCT,Hematocrit,HEMATOLOGY,41.98,%,41.0,51.0,41.98,41.98,%,41.0,51.0,NORMAL,,WEEK 16,8,2025-03-25,112
STUDY001,LB,STUDY001-SUBJ0010,73,L00073,WBC,White Blood Cell Count,HEMATOLOGY,8.17,10^9/L,4.5,11.0,8.17,8.17,10^9/L,4.5,11.0,NORMAL,,WEEK 16,8,2025-03-25,112
STUDY001,LB,STUDY001-SUBJ0010,74,L00074,PLT,Platelet Count,HEMATOLOGY,212.56,10^9/L,150.0,450.0,212.56,212.56,10^9/L,150.0,450.0,NORMAL,,WEEK 16,8,2025-03-25,112
STUDY001,LB,STUDY001-SUBJ0010,75,L00075,GLUC,Glucose,CHEMISTRY,71.75,mg/dL,70.0,100.0,71.75,71.75,mg/dL,70.0,100.0,NORMAL,,WEEK 16,8,2025-03-25,112
STUDY001,LB,STUDY001-SUBJ0010,76,L00076,BUN,Blood Urea Nitrogen,CHEMISTRY,9.92,mg/dL,7.0,20.0,9.92,9.92,mg/dL,7.0,20.0,NORMAL,,WEEK 16,8,2025-03-25,112
STUDY001,LB,STUDY001-SUBJ0010,77,L00077,CREAT,Creatinine,CHEMISTRY,0.84,mg/dL,0.6,1.2,0.84,0.84,mg/dL,0.6,1.2,NORMAL,,WEEK 16,8,2025-03-25,112
STUDY001,LB,STUDY001-SUBJ0010,78,L00078,BILI,Total Bilirubin,CHEMISTRY,0.81,mg/dL,0.1,1.2,0.81,0.81,mg/dL,0.1,1.2,NORMAL,,WEEK 16,8,2025-03-25,112
STUDY001,LB,STUDY001-SUBJ0010,79,L00079,ALP,Alkaline Phosphatase,CHEMISTRY,77.17,U/L,44.0,147.0,77.17,77.17,U/L,44.0,147.0,NORMAL,,WEEK 16,8,2025-03-25,112
STUDY001,LB,STUDY001-SUBJ0010,80,L00080,ALT,Alanine Aminotransferase,CHEMISTRY,45.02,U/L,7.0,56.0,45.02,45.02,U/L,7.0,56.0,NORMAL,,WEEK 16,8,2025-03-25,112
STUDY001,LB,STUDY001-SUBJ0010,81,L00081,HGB,Hemoglobin,HEMATOLOGY,15.97,g/dL,13.5,17.5,15.97,15.97,g/dL,13.5,17.5,NORMAL,,END OF TREATMENT,9,2025-04-22,140
STUDY001,LB,STUDY001-SUBJ0010,82,L00082,HCT,Hematocrit,HEMATOLOGY,42.09,%,41.0,51.0,42.09,42.09,%,41.0,51.0,NORMAL,,END OF TREATMENT,9,2025-04-22,140
STUDY001,LB,STUDY001-SUBJ0010,83,L00083,WBC,White Blood Cell Count,HEMATOLOGY,8.46,10^9/L,4.5,11.0,8.46,8.46,10^9/L,4.5,11.0,NORMAL,,END OF TREATMENT,9,2025-04-22,140
STUDY001,LB,STUDY001-SUBJ0010,84,L00084,PLT,Platelet Count,HEMATOLOGY,219.09,10^9/L,150.0,450.0,219.09,219.09,10^9/L,150.0,450.0,NORMAL,,END OF TREATMENT,9,2025-04-22,140
STUDY001,LB,STUDY001-SUBJ0010,85,L00085,GLUC,Glucose,CHEMISTRY,71.21,mg/dL,70.0,100.0,71.21,71.21,mg/dL,70.0,100.0,NORMAL,,END OF TREATMENT,9,2025-04-22,140
STUDY001,LB,STUDY001-SUBJ0010,86,L00086,BUN,Blood Urea Nitrogen,CHEMISTRY,9.75,mg/dL,7.0,20.0,9.75,9.75,mg/dL,7.0,20.0,NORMAL,,END OF TREATMENT,9,2025-04-22,140
STUDY001,LB,STUDY001-SUBJ0010,87,L00087,CREAT,Creatinine,CHEMISTRY,0.84,mg/dL,0.6,1.2,0.84,0.84,mg/dL,0.6,1.2,NORMAL,,END OF TREATMENT,9,2025-04-22,140
STUDY001,LB,STUDY001-SUBJ0010,88,L00088,BILI,Total Bilirubin,CHEMISTRY,0.8,mg/dL,0.1,1.2,0.8,0.8,mg/dL,0.1,1.2,NORMAL,,END OF TREATMENT,9,2025-04-22,140
STUDY001,LB,STUDY001-SUBJ0010,89,L00089,ALP,Alkaline Phosphatase,CHEMISTRY,76.84,U/L,44.0,147.0,76.84,76.84,U/L,44.0,147.0,NORMAL,,END OF TREATMENT,9,2025-04-22,140
STUDY001,LB,STUDY001-SUBJ0010,90,L00090,ALT,Alanine Aminotransferase,CHEMISTRY,43.33,U/L,7.0,56.0,43.33,43.33,U/L,7.0,56.0,NORMAL,,END OF TREATMENT,9,2025-04-22,140
