STUDYID,DOMAIN,USUBJID,VSSEQ,VSTESTCD,VSTEST,VSORRES,VSORRESU,VSSTRESC,VSSTRESN,VSSTRESU,VSBLFL,VISIT,VISITNUM,VSDTC,VSDY
STUDY001,VS,STUDY001-SUBJ0001,1,HEIGHT,Height,150.0,cm,150.0,150.0,cm,,SCREENING,1,2024-10-18,-14
STUDY001,VS,STUDY001-SUBJ0001,2,WEIGHT,Weight,69.3,kg,69.3,69.3,kg,,SCREENING,1,2024-10-18,-14
STUDY001,VS,STUDY001-SUBJ0001,3,TEMP,Temperature,35.9,C,35.9,35.9,C,,SCREENING,1,2024-10-18,-14
STUDY001,VS,STUDY001-SUBJ0001,4,BP,Blood Pressure,107/96,mmHg,107/96,,mmHg,,SCREENING,1,2024-10-18,-14
STUDY001,VS,STUDY001-SUBJ0001,5,HR,Heart Rate,70,beats/min,70,70.0,beats/min,,SCREENING,1,2024-10-18,-14
STUDY001,VS,STUDY001-SUBJ0001,6,HEIGHT,Height,150.1,cm,150.1,150.1,cm,Y,BASELINE,2,2024-11-01,1
STUDY001,VS,STUDY001-SUBJ0001,7,WEIGHT,Weight,70.3,kg,70.3,70.3,kg,Y,BASELINE,2,2024-11-01,1
STUDY001,VS,STUDY001-SUBJ0001,8,TEMP,Temperature,36.1,C,36.1,36.1,C,Y,BASELINE,2,2024-11-01,1
STUDY001,VS,STUDY001-SUBJ0001,9,BP,Blood Pressure,109/96,mmHg,109/96,,mmHg,Y,BASELINE,2,2024-11-01,1
STUDY001,VS,STUDY001-SUBJ0001,10,HR,Heart Rate,63,beats/min,63,63.0,beats/min,Y,BASELINE,2,2024-11-01,1
STUDY001,VS,STUDY001-SUBJ0001,11,HEIGHT,Height,149.8,cm,149.8,149.8,cm,,WEEK 1,3,2024-11-07,7
STUDY001,VS,STUDY001-SUBJ0001,12,WEIGHT,Weight,70.4,kg,70.4,70.4,kg,,WEEK 1,3,2024-11-07,7
STUDY001,VS,STUDY001-SUBJ0001,13,TEMP,Temperature,36.1,C,36.1,36.1,C,,WEEK 1,3,2024-11-07,7
STUDY001,VS,STUDY001-SUBJ0001,14,BP,Blood Pressure,109/87,mmHg,109/87,,mmHg,,WEEK 1,3,2024-11-07,7
STUDY001,VS,STUDY001-SUBJ0001,15,HR,Heart Rate,71,beats/min,71,71.0,beats/min,,WEEK 1,3,2024-11-07,7
STUDY001,VS,STUDY001-SUBJ0001,16,HEIGHT,Height,150.2,cm,150.2,150.2,cm,,WEEK 2,4,2024-11-14,14
STUDY001,VS,STUDY001-SUBJ0001,17,WEIGHT,Weight,70.0,kg,70.0,70.0,kg,,WEEK 2,4,2024-11-14,14
STUDY001,VS,STUDY001-SUBJ0001,18,TEMP,Temperature,36.5,C,36.5,36.5,C,,WEEK 2,4,2024-11-14,14
STUDY001,VS,STUDY001-SUBJ0001,19,BP,Blood Pressure,116/88,mmHg,116/88,,mmHg,,WEEK 2,4,2024-11-14,14
STUDY001,VS,STUDY001-SUBJ0001,20,HR,Heart Rate,69,beats/min,69,69.0,beats/min,,WEEK 2,4,2024-11-14,14
STUDY001,VS,STUDY001-SUBJ0001,21,HEIGHT,Height,149.9,cm,149.9,149.9,cm,,WEEK 4,5,2024-11-28,28
STUDY001,VS,STUDY001-SUBJ0001,22,WEIGHT,Weight,70.5,kg,70.5,70.5,kg,,WEEK 4,5,2024-11-28,28
STUDY001,VS,STUDY001-SUBJ0001,23,TEMP,Temperature,36.0,C,36.0,36.0,C,,WEEK 4,5,2024-11-28,28
STUDY001,VS,STUDY001-SUBJ0001,24,BP,Blood Pressure,110/94,mmHg,110/94,,mmHg,,WEEK 4,5,2024-11-28,28
STUDY001,VS,STUDY001-SUBJ0001,25,HR,Heart Rate,65,beats/min,65,65.0,beats/min,,WEEK 4,5,2024-11-28,28
STUDY001,VS,STUDY001-SUBJ0001,26,HEIGHT,Height,150.2,cm,150.2,150.2,cm,,WEEK 8,6,2024-12-26,56
STUDY001,VS,STUDY001-SUBJ0001,27,WEIGHT,Weight,68.9,kg,68.9,68.9,kg,,WEEK 8,6,2024-12-26,56
STUDY001,VS,STUDY001-SUBJ0001,28,TEMP,Temperature,36.1,C,36.1,36.1,C,,WEEK 8,6,2024-12-26,56
STUDY001,VS,STUDY001-SUBJ0001,29,BP,Blood Pressure,108/87,mmHg,108/87,,mmHg,,WEEK 8,6,2024-12-26,56
STUDY001,VS,STUDY001-SUBJ0001,30,HR,Heart Rate,71,beats/min,71,71.0,beats/min,,WEEK 8,6,2024-12-26,56
STUDY001,VS,STUDY001-SUBJ0001,31,HEIGHT,Height,150.0,cm,150.0,150.0,cm,,WEEK 12,7,2025-01-23,84
STUDY001,VS,STUDY001-SUBJ0001,32,WEIGHT,Weight,69.9,kg,69.9,69.9,kg,,WEEK 12,7,2025-01-23,84
STUDY001,VS,STUDY001-SUBJ0001,33,TEMP,Temperature,36.0,C,36.0,36.0,C,,WEEK 12,7,2025-01-23,84
STUDY001,VS,STUDY001-SUBJ0001,34,BP,Blood Pressure,110/92,mmHg,110/92,,mmHg,,WEEK 12,7,2025-01-23,84
STUDY001,VS,STUDY001-SUBJ0001,35,HR,Heart Rate,67,beats/min,67,67.0,beats/min,,WEEK 12,7,2025-01-23,84
STUDY001,VS,STUDY001-SUBJ0001,36,HEIGHT,Height,150.0,cm,150.0,150.0,cm,,WEEK 16,8,2025-02-20,112
STUDY001,VS,STUDY001-SUBJ0001,37,WEIGHT,Weight,69.8,kg,69.8,69.8,kg,,WEEK 16,8,2025-02-20,112
STUDY001,VS,STUDY001-SUBJ0001,38,TEMP,Temperature,36.1,C,36.1,36.1,C,,WEEK 16,8,2025-02-20,112
STUDY001,VS,STUDY001-SUBJ0001,39,BP,Blood Pressure,109/95,mmHg,109/95,,mmHg,,WEEK 16,8,2025-02-20,112
STUDY001,VS,STUDY001-SUBJ0001,40,HR,Heart Rate,73,beats/min,73,73.0,beats/min,,WEEK 16,8,2025-02-20,112
STUDY001,VS,STUDY001-SUBJ0001,41,HEIGHT,Height,149.9,cm,149.9,149.9,cm,,END OF TREATMENT,9,2025-03-20,140
STUDY001,VS,STUDY001-SUBJ0001,42,WEIGHT,Weight,69.4,kg,69.4,69.4,kg,,END OF TREATMENT,9,2025-03-20,140
STUDY001,VS,STUDY001-SUBJ0001,43,TEMP,Temperature,36.3,C,36.3,36.3,C,,END OF TREATMENT,9,2025-03-20,140
STUDY001,VS,STUDY001-SUBJ0001,44,BP,Blood Pressure,108/88,mmHg,108/88,,mmHg,,END OF TREATMENT,9,2025-03-20,140
STUDY001,VS,STUDY001-SUBJ0001,45,HR,Heart Rate,66,beats/min,66,66.0,beats/min,,END OF TREATMENT,9,2025-03-20,140
STUDY001,VS,STUDY001-SUBJ0002,1,HEIGHT,Height,196.7,cm,196.7,196.7,cm,,SCREENING,1,2024-11-24,-14
STUDY001,VS,STUDY001-SUBJ0002,2,WEIGHT,Weight,73.6,kg,73.6,73.6,kg,,SCREENING,1,2024-11-24,-14
STUDY001,VS,STUDY001-SUBJ0002,3,TEMP,Temperature,37.0,C,37.0,37.0,C,,SCREENING,1,2024-11-24,-14
STUDY001,VS,STUDY001-SUBJ0002,4,BP,Blood Pressure,118/79,mmHg,118/79,,mmHg,,SCREENING,1,2024-11-24,-14
STUDY001,VS,STUDY001-SUBJ0002,5,HR,Heart Rate,58,beats/min,58,58.0,beats/min,,SCREENING,1,2024-11-24,-14
STUDY001,VS,STUDY001-SUBJ0002,6,HEIGHT,Height,196.7,cm,196.7,196.7,cm,Y,BASELINE,2,2024-12-08,1
STUDY001,VS,STUDY001-SUBJ0002,7,WEIGHT,Weight,74.0,kg,74.0,74.0,kg,Y,BASELINE,2,2024-12-08,1
STUDY001,VS,STUDY001-SUBJ0002,8,TEMP,Temperature,36.6,C,36.6,36.6,C,Y,BASELINE,2,2024-12-08,1
STUDY001,VS,STUDY001-SUBJ0002,9,BP,Blood Pressure,119/84,mmHg,119/84,,mmHg,Y,BASELINE,2,2024-12-08,1
STUDY001,VS,STUDY001-SUBJ0002,10,HR,Heart Rate,58,beats/min,58,58.0,beats/min,Y,BASELINE,2,2024-12-08,1
STUDY001,VS,STUDY001-SUBJ0002,11,HEIGHT,Height,196.8,cm,196.8,196.8,cm,,WEEK 1,3,2024-12-14,7
STUDY001,VS,STUDY001-SUBJ0002,12,WEIGHT,Weight,74.5,kg,74.5,74.5,kg,,WEEK 1,3,2024-12-14,7
STUDY001,VS,STUDY001-SUBJ0002,13,TEMP,Temperature,36.7,C,36.7,36.7,C,,WEEK 1,3,2024-12-14,7
STUDY001,VS,STUDY001-SUBJ0002,14,BP,Blood Pressure,117/84,mmHg,117/84,,mmHg,,WEEK 1,3,2024-12-14,7
STUDY001,VS,STUDY001-SUBJ0002,15,HR,Heart Rate,63,beats/min,63,63.0,beats/min,,WEEK 1,3,2024-12-14,7
STUDY001,VS,STUDY001-SUBJ0002,16,HEIGHT,Height,196.6,cm,196.6,196.6,cm,,WEEK 2,4,2024-12-21,14
STUDY001,VS,STUDY001-SUBJ0002,17,WEIGHT,Weight,74.3,kg,74.3,74.3,kg,,WEEK 2,4,2024-12-21,14
STUDY001,VS,STUDY001-SUBJ0002,18,TEMP,Temperature,37.2,C,37.2,37.2,C,,WEEK 2,4,2024-12-21,14
STUDY001,VS,STUDY001-SUBJ0002,19,BP,Blood Pressure,123/78,mmHg,123/78,,mmHg,,WEEK 2,4,2024-12-21,14
STUDY001,VS,STUDY001-SUBJ0002,20,HR,Heart Rate,64,beats/min,64,64.0,beats/min,,WEEK 2,4,2024-12-21,14
STUDY001,VS,STUDY001-SUBJ0002,21,HEIGHT,Height,196.5,cm,196.5,196.5,cm,,WEEK 4,5,2025-01-04,28
STUDY001,VS,STUDY001-SUBJ0002,22,WEIGHT,Weight,73.1,kg,73.1,73.1,kg,,WEEK 4,5,2025-01-04,28
STUDY001,VS,STUDY001-SUBJ0002,23,TEMP,Temperature,36.8,C,36.8,36.8,C,,WEEK 4,5,2025-01-04,28
STUDY001,VS,STUDY001-SUBJ0002,24,BP,Blood Pressure,117/79,mmHg,117/79,,mmHg,,WEEK 4,5,2025-01-04,28
STUDY001,VS,STUDY001-SUBJ0002,25,HR,Heart Rate,63,beats/min,63,63.0,beats/min,,WEEK 4,5,2025-01-04,28
STUDY001,VS,STUDY001-SUBJ0002,26,HEIGHT,Height,196.6,cm,196.6,196.6,cm,,WEEK 8,6,2025-02-01,56
STUDY001,VS,STUDY001-SUBJ0002,27,WEIGHT,Weight,72.9,kg,72.9,72.9,kg,,WEEK 8,6,2025-02-01,56
STUDY001,VS,STUDY001-SUBJ0002,28,TEMP,Temperature,36.8,C,36.8,36.8,C,,WEEK 8,6,2025-02-01,56
STUDY001,VS,STUDY001-SUBJ0002,29,BP,Blood Pressure,116/84,mmHg,116/84,,mmHg,,WEEK 8,6,2025-02-01,56
STUDY001,VS,STUDY001-SUBJ0002,30,HR,Heart Rate,62,beats/min,62,62.0,beats/min,,WEEK 8,6,2025-02-01,56
STUDY001,VS,STUDY001-SUBJ0002,31,HEIGHT,Height,196.7,cm,196.7,196.7,cm,,WEEK 12,7,2025-03-01,84
STUDY001,VS,STUDY001-SUBJ0002,32,WEIGHT,Weight,74.0,kg,74.0,74.0,kg,,WEEK 12,7,2025-03-01,84
STUDY001,VS,STUDY001-SUBJ0002,33,TEMP,Temperature,36.8,C,36.8,36.8,C,,WEEK 12,7,2025-03-01,84
STUDY001,VS,STUDY001-SUBJ0002,34,BP,Blood Pressure,120/81,mmHg,120/81,,mmHg,,WEEK 12,7,2025-03-01,84
STUDY001,VS,STUDY001-SUBJ0002,35,HR,Heart Rate,61,beats/min,61,61.0,beats/min,,WEEK 12,7,2025-03-01,84
STUDY001,VS,STUDY001-SUBJ0002,36,HEIGHT,Height,196.6,cm,196.6,196.6,cm,,WEEK 16,8,2025-03-29,112
STUDY001,VS,STUDY001-SUBJ0002,37,WEIGHT,Weight,72.9,kg,72.9,72.9,kg,,WEEK 16,8,2025-03-29,112
STUDY001,VS,STUDY001-SUBJ0002,38,TEMP,Temperature,36.7,C,36.7,36.7,C,,WEEK 16,8,2025-03-29,112
STUDY001,VS,STUDY001-SUBJ0002,39,BP,Blood Pressure,118/80,mmHg,118/80,,mmHg,,WEEK 16,8,2025-03-29,112
STUDY001,VS,STUDY001-SUBJ0002,40,HR,Heart Rate,61,beats/min,61,61.0,beats/min,,WEEK 16,8,2025-03-29,112
STUDY001,VS,STUDY001-SUBJ0002,41,HEIGHT,Height,196.6,cm,196.6,196.6,cm,,END OF TREATMENT,9,2025-04-26,140
STUDY001,VS,STUDY001-SUBJ0002,42,WEIGHT,Weight,73.3,kg,73.3,73.3,kg,,END OF TREATMENT,9,2025-04-26,140
STUDY001,VS,STUDY001-SUBJ0002,43,TEMP,Temperature,37.0,C,37.0,37.0,C,,END OF TREATMENT,9,2025-04-26,140
STUDY001,VS,STUDY001-SUBJ0002,44,BP,Blood Pressure,118/78,mmHg,118/78,,mmHg,,END OF TREATMENT,9,2025-04-26,140
STUDY001,VS,STUDY001-SUBJ0002,45,HR,Heart Rate,60,beats/min,60,60.0,beats/min,,END OF TREATMENT,9,2025-04-26,140
STUDY001,VS,STUDY001-SUBJ0003,1,HEIGHT,Height,175.7,cm,175.7,175.7,cm,,SCREENING,1,2025-04-09,-14
STUDY001,VS,STUDY001-SUBJ0003,2,WEIGHT,Weight,100.4,kg,100.4,100.4,kg,,SCREENING,1,2025-04-09,-14
STUDY001,VS,STUDY001-SUBJ0003,3,TEMP,Temperature,37.0,C,37.0,37.0,C,,SCREENING,1,2025-04-09,-14
STUDY001,VS,STUDY001-SUBJ0003,4,BP,Blood Pressure,123/79,mmHg,123/79,,mmHg,,SCREENING,1,2025-04-09,-14
STUDY001,VS,STUDY001-SUBJ0003,5,HR,Heart Rate,62,beats/min,62,62.0,beats/min,,SCREENING,1,2025-04-09,-14
STUDY001,VS,STUDY001-SUBJ0003,6,HEIGHT,Height,175.8,cm,175.8,175.8,cm,Y,BASELINE,2,2025-04-23,1
STUDY001,VS,STUDY001-SUBJ0003,7,WEIGHT,Weight,100.4,kg,100.4,100.4,kg,Y,BASELINE,2,2025-04-23,1
STUDY001,VS,STUDY001-SUBJ0003,8,TEMP,Temperature,36.7,C,36.7,36.7,C,Y,BASELINE,2,2025-04-23,1
STUDY001,VS,STUDY001-SUBJ0003,9,BP,Blood Pressure,118/80,mmHg,118/80,,mmHg,Y,BASELINE,2,2025-04-23,1
STUDY001,VS,STUDY001-SUBJ0003,10,HR,Heart Rate,60,beats/min,60,60.0,beats/min,Y,BASELINE,2,2025-04-23,1
STUDY001,VS,STUDY001-SUBJ0003,11,HEIGHT,Height,175.6,cm,175.6,175.6,cm,,WEEK 1,3,2025-04-29,7
STUDY001,VS,STUDY001-SUBJ0003,12,WEIGHT,Weight,101.5,kg,101.5,101.5,kg,,WEEK 1,3,2025-04-29,7
STUDY001,VS,STUDY001-SUBJ0003,13,TEMP,Temperature,37.0,C,37.0,37.0,C,,WEEK 1,3,2025-04-29,7
STUDY001,VS,STUDY001-SUBJ0003,14,BP,Blood Pressure,119/76,mmHg,119/76,,mmHg,,WEEK 1,3,2025-04-29,7
STUDY001,VS,STUDY001-SUBJ0003,15,HR,Heart Rate,65,beats/min,65,65.0,beats/min,,WEEK 1,3,2025-04-29,7
STUDY001,VS,STUDY001-SUBJ0003,16,HEIGHT,Height,175.8,cm,175.8,175.8,cm,,WEEK 2,4,2025-05-06,14
STUDY001,VS,STUDY001-SUBJ0003,17,WEIGHT,Weight,100.5,kg,100.5,100.5,kg,,WEEK 2,4,2025-05-06,14
STUDY001,VS,STUDY001-SUBJ0003,18,TEMP,Temperature,36.5,C,36.5,36.5,C,,WEEK 2,4,2025-05-06,14
STUDY001,VS,STUDY001-SUBJ0003,19,BP,Blood Pressure,114/76,mmHg,114/76,,mmHg,,WEEK 2,4,2025-05-06,14
STUDY001,VS,STUDY001-SUBJ0003,20,HR,Heart Rate,58,beats/min,58,58.0,beats/min,,WEEK 2,4,2025-05-06,14
STUDY001,VS,STUDY001-SUBJ0003,21,HEIGHT,Height,175.6,cm,175.6,175.6,cm,,WEEK 4,5,2025-05-20,28
STUDY001,VS,STUDY001-SUBJ0003,22,WEIGHT,Weight,100.6,kg,100.6,100.6,kg,,WEEK 4,5,2025-05-20,28
STUDY001,VS,STUDY001-SUBJ0003,23,TEMP,Temperature,36.7,C,36.7,36.7,C,,WEEK 4,5,2025-05-20,28
STUDY001,VS,STUDY001-SUBJ0003,24,BP,Blood Pressure,119/83,mmHg,119/83,,mmHg,,WEEK 4,5,2025-05-20,28
STUDY001,VS,STUDY001-SUBJ0003,25,HR,Heart Rate,57,beats/min,57,57.0,beats/min,,WEEK 4,5,2025-05-20,28
STUDY001,VS,STUDY001-SUBJ0003,26,HEIGHT,Height,175.6,cm,175.6,175.6,cm,,WEEK 8,6,2025-06-17,56
STUDY001,VS,STUDY001-SUBJ0003,27,WEIGHT,Weight,101.4,kg,101.4,101.4,kg,,WEEK 8,6,2025-06-17,56
STUDY001,VS,STUDY001-SUBJ0003,28,TEMP,Temperature,36.7,C,36.7,36.7,C,,WEEK 8,6,2025-06-17,56
STUDY001,VS,STUDY001-SUBJ0003,29,BP,Blood Pressure,121/79,mmHg,121/79,,mmHg,,WEEK 8,6,2025-06-17,56
STUDY001,VS,STUDY001-SUBJ0003,30,HR,Heart Rate,63,beats/min,63,63.0,beats/min,,WEEK 8,6,2025-06-17,56
STUDY001,VS,STUDY001-SUBJ0003,31,HEIGHT,Height,175.8,cm,175.8,175.8,cm,,WEEK 12,7,2025-07-15,84
STUDY001,VS,STUDY001-SUBJ0003,32,WEIGHT,Weight,101.2,kg,101.2,101.2,kg,,WEEK 12,7,2025-07-15,84
STUDY001,VS,STUDY001-SUBJ0003,33,TEMP,Temperature,37.0,C,37.0,37.0,C,,WEEK 12,7,2025-07-15,84
STUDY001,VS,STUDY001-SUBJ0003,34,BP,Blood Pressure,121/81,mmHg,121/81,,mmHg,,WEEK 12,7,2025-07-15,84
STUDY001,VS,STUDY001-SUBJ0003,35,HR,Heart Rate,62,beats/min,62,62.0,beats/min,,WEEK 12,7,2025-07-15,84
STUDY001,VS,STUDY001-SUBJ0003,36,HEIGHT,Height,175.5,cm,175.5,175.5,cm,,WEEK 16,8,2025-08-12,112
STUDY001,VS,STUDY001-SUBJ0003,37,WEIGHT,Weight,100.6,kg,100.6,100.6,kg,,WEEK 16,8,2025-08-12,112
STUDY001,VS,STUDY001-SUBJ0003,38,TEMP,Temperature,37.1,C,37.1,37.1,C,,WEEK 16,8,2025-08-12,112
STUDY001,VS,STUDY001-SUBJ0003,39,BP,Blood Pressure,119/77,mmHg,119/77,,mmHg,,WEEK 16,8,2025-08-12,112
STUDY001,VS,STUDY001-SUBJ0003,40,HR,Heart Rate,57,beats/min,57,57.0,beats/min,,WEEK 16,8,2025-08-12,112
STUDY001,VS,STUDY001-SUBJ0003,41,HEIGHT,Height,175.7,cm,175.7,175.7,cm,,END OF TREATMENT,9,2025-09-09,140
STUDY001,VS,STUDY001-SUBJ0003,42,WEIGHT,Weight,101.2,kg,101.2,101.2,kg,,END OF TREATMENT,9,2025-09-09,140
STUDY001,VS,STUDY001-SUBJ0003,43,TEMP,Temperature,36.7,C,36.7,36.7,C,,END OF TREATMENT,9,2025-09-09,140
STUDY001,VS,STUDY001-SUBJ0003,44,BP,Blood Pressure,119/83,mmHg,119/83,,mmHg,,END OF TREATMENT,9,2025-09-09,140
STUDY001,VS,STUDY001-SUBJ0003,45,HR,Heart Rate,57,beats/min,57,57.0,beats/min,,END OF TREATMENT,9,2025-09-09,140
STUDY001,VS,STUDY001-SUBJ0004,1,HEIGHT,Height,156.9,cm,156.9,156.9,cm,,SCREENING,1,2024-09-25,-14
STUDY001,VS,STUDY001-SUBJ0004,2,WEIGHT,Weight,85.3,kg,85.3,85.3,kg,,SCREENING,1,2024-09-25,-14
STUDY001,VS,STUDY001-SUBJ0004,3,TEMP,Temperature,36.4,C,36.4,36.4,C,,SCREENING,1,2024-09-25,-14
STUDY001,VS,STUDY001-SUBJ0004,4,BP,Blood Pressure,116/77,mmHg,116/77,,mmHg,,SCREENING,1,2024-09-25,-14
STUDY001,VS,STUDY001-SUBJ0004,5,HR,Heart Rate,59,beats/min,59,59.0,beats/min,,SCREENING,1,2024-09-25,-14
STUDY001,VS,STUDY001-SUBJ0004,6,HEIGHT,Height,157.0,cm,157.0,157.0,cm,Y,BASELINE,2,2024-10-09,1
STUDY001,VS,STUDY001-SUBJ0004,7,WEIGHT,Weight,83.7,kg,83.7,83.7,kg,Y,BASELINE,2,2024-10-09,1
STUDY001,VS,STUDY001-SUBJ0004,8,TEMP,Temperature,36.3,C,36.3,36.3,C,Y,BASELINE,2,2024-10-09,1
STUDY001,VS,STUDY001-SUBJ0004,9,BP,Blood Pressure,122/77,mmHg,122/77,,mmHg,Y,BASELINE,2,2024-10-09,1
STUDY001,VS,STUDY001-SUBJ0004,10,HR,Heart Rate,65,beats/min,65,65.0,beats/min,Y,BASELINE,2,2024-10-09,1
STUDY001,VS,STUDY001-SUBJ0004,11,HEIGHT,Height,156.9,cm,156.9,156.9,cm,,WEEK 1,3,2024-10-15,7
STUDY001,VS,STUDY001-SUBJ0004,12,WEIGHT,Weight,83.6,kg,83.6,83.6,kg,,WEEK 1,3,2024-10-15,7
STUDY001,VS,STUDY001-SUBJ0004,13,TEMP,Temperature,36.3,C,36.3,36.3,C,,WEEK 1,3,2024-10-15,7
STUDY001,VS,STUDY001-SUBJ0004,14,BP,Blood Pressure,118/74,mmHg,118/74,,mmHg,,WEEK 1,3,2024-10-15,7
STUDY001,VS,STUDY001-SUBJ0004,15,HR,Heart Rate,65,beats/min,65,65.0,beats/min,,WEEK 1,3,2024-10-15,7
STUDY001,VS,STUDY001-SUBJ0004,16,HEIGHT,Height,156.9,cm,156.9,156.9,cm,,WEEK 2,4,2024-10-22,14
STUDY001,VS,STUDY001-SUBJ0004,17,WEIGHT,Weight,84.2,kg,84.2,84.2,kg,,WEEK 2,4,2024-10-22,14
STUDY001,VS,STUDY001-SUBJ0004,18,TEMP,Temperature,36.3,C,36.3,36.3,C,,WEEK 2,4,2024-10-22,14
STUDY001,VS,STUDY001-SUBJ0004,19,BP,Blood Pressure,120/69,mmHg,120/69,,mmHg,,WEEK 2,4,2024-10-22,14
STUDY001,VS,STUDY001-SUBJ0004,20,HR,Heart Rate,65,beats/min,65,65.0,beats/min,,WEEK 2,4,2024-10-22,14
STUDY001,VS,STUDY001-SUBJ0004,21,HEIGHT,Height,157.0,cm,157.0,157.0,cm,,WEEK 4,5,2024-11-05,28
STUDY001,VS,STUDY001-SUBJ0004,22,WEIGHT,Weight,83.5,kg,83.5,83.5,kg,,WEEK 4,5,2024-11-05,28
STUDY001,VS,STUDY001-SUBJ0004,23,TEMP,Temperature,36.6,C,36.6,36.6,C,,WEEK 4,5,2024-11-05,28
STUDY001,VS,STUDY001-SUBJ0004,24,BP,Blood Pressure,125/76,mmHg,125/76,,mmHg,,WEEK 4,5,2024-11-05,28
STUDY001,VS,STUDY001-SUBJ0004,25,HR,Heart Rate,60,beats/min,60,60.0,beats/min,,WEEK 4,5,2024-11-05,28
STUDY001,VS,STUDY001-SUBJ0004,26,HEIGHT,Height,156.8,cm,156.8,156.8,cm,,WEEK 8,6,2024-12-03,56
STUDY001,VS,STUDY001-SUBJ0004,27,WEIGHT,Weight,84.5,kg,84.5,84.5,kg,,WEEK 8,6,2024-12-03,56
STUDY001,VS,STUDY001-SUBJ0004,28,TEMP,Temperature,36.5,C,36.5,36.5,C,,WEEK 8,6,2024-12-03,56
STUDY001,VS,STUDY001-SUBJ0004,29,BP,Blood Pressure,120/70,mmHg,120/70,,mmHg,,WEEK 8,6,2024-12-03,56
STUDY001,VS,STUDY001-SUBJ0004,30,HR,Heart Rate,63,beats/min,63,63.0,beats/min,,WEEK 8,6,2024-12-03,56
STUDY001,VS,STUDY001-SUBJ0004,31,HEIGHT,Height,157.0,cm,157.0,157.0,cm,,WEEK 12,7,2024-12-31,84
STUDY001,VS,STUDY001-SUBJ0004,32,WEIGHT,Weight,85.2,kg,85.2,85.2,kg,,WEEK 12,7,2024-12-31,84
STUDY001,VS,STUDY001-SUBJ0004,33,TEMP,Temperature,36.5,C,36.5,36.5,C,,WEEK 12,7,2024-12-31,84
STUDY001,VS,STUDY001-SUBJ0004,34,BP,Blood Pressure,126/74,mmHg,126/74,,mmHg,,WEEK 12,7,2024-12-31,84
STUDY001,VS,STUDY001-SUBJ0004,35,HR,Heart Rate,59,beats/min,59,59.0,beats/min,,WEEK 12,7,2024-12-31,84
STUDY001,VS,STUDY001-SUBJ0004,36,HEIGHT,Height,156.8,cm,156.8,156.8,cm,,WEEK 16,8,2025-01-28,112
STUDY001,VS,STUDY001-SUBJ0004,37,WEIGHT,Weight,85.2,kg,85.2,85.2,kg,,WEEK 16,8,2025-01-28,112
STUDY001,VS,STUDY001-SUBJ0004,38,TEMP,Temperature,36.8,C,36.8,36.8,C,,WEEK 16,8,2025-01-28,112
STUDY001,VS,STUDY001-SUBJ0004,39,BP,Blood Pressure,125/69,mmHg,125/69,,mmHg,,WEEK 16,8,2025-01-28,112
STUDY001,VS,STUDY001-SUBJ0004,40,HR,Heart Rate,63,beats/min,63,63.0,beats/min,,WEEK 16,8,2025-01-28,112
STUDY001,VS,STUDY001-SUBJ0004,41,HEIGHT,Height,156.9,cm,156.9,156.9,cm,,END OF TREATMENT,9,2025-02-25,140
STUDY001,VS,STUDY001-SUBJ0004,42,WEIGHT,Weight,83.9,kg,83.9,83.9,kg,,END OF TREATMENT,9,2025-02-25,140
STUDY001,VS,STUDY001-SUBJ0004,43,TEMP,Temperature,36.3,C,36.3,36.3,C,,END OF TREATMENT,9,2025-02-25,140
STUDY001,VS,STUDY001-SUBJ0004,44,BP,Blood Pressure,126/69,mmHg,126/69,,mmHg,,END OF TREATMENT,9,2025-02-25,140
STUDY001,VS,STUDY001-SUBJ0004,45,HR,Heart Rate,61,beats/min,61,61.0,beats/min,,END OF TREATMENT,9,2025-02-25,140
STUDY001,VS,STUDY001-SUBJ0005,1,HEIGHT,Height,190.0,cm,190.0,190.0,cm,,SCREENING,1,2024-09-24,-14
STUDY001,VS,STUDY001-SUBJ0005,2,WEIGHT,Weight,76.6,kg,76.6,76.6,kg,,SCREENING,1,2024-09-24,-14
STUDY001,VS,STUDY001-SUBJ0005,3,TEMP,Temperature,36.8,C,36.8,36.8,C,,SCREENING,1,2024-09-24,-14
STUDY001,VS,STUDY001-SUBJ0005,4,BP,Blood Pressure,128/98,mmHg,128/98,,mmHg,,SCREENING,1,2024-09-24,-14
STUDY001,VS,STUDY001-SUBJ0005,5,HR,Heart Rate,65,beats/min,65,65.0,beats/min,,SCREENING,1,2024-09-24,-14
STUDY001,VS,STUDY001-SUBJ0005,6,HEIGHT,Height,190.1,cm,190.1,190.1,cm,Y,BASELINE,2,2024-10-08,1
STUDY001,VS,STUDY001-SUBJ0005,7,WEIGHT,Weight,77.6,kg,77.6,77.6,kg,Y,BASELINE,2,2024-10-08,1
STUDY001,VS,STUDY001-SUBJ0005,8,TEMP,Temperature,36.9,C,36.9,36.9,C,Y,BASELINE,2,2024-10-08,1
STUDY001,VS,STUDY001-SUBJ0005,9,BP,Blood Pressure,127/94,mmHg,127/94,,mmHg,Y,BASELINE,2,2024-10-08,1
STUDY001,VS,STUDY001-SUBJ0005,10,HR,Heart Rate,62,beats/min,62,62.0,beats/min,Y,BASELINE,2,2024-10-08,1
STUDY001,VS,STUDY001-SUBJ0005,11,HEIGHT,Height,190.2,cm,190.2,190.2,cm,,WEEK 1,3,2024-10-14,7
STUDY001,VS,STUDY001-SUBJ0005,12,WEIGHT,Weight,78.3,kg,78.3,78.3,kg,,WEEK 1,3,2024-10-14,7
STUDY001,VS,STUDY001-SUBJ0005,13,TEMP,Temperature,37.0,C,37.0,37.0,C,,WEEK 1,3,2024-10-14,7
STUDY001,VS,STUDY001-SUBJ0005,14,BP,Blood Pressure,124/96,mmHg,124/96,,mmHg,,WEEK 1,3,2024-10-14,7
STUDY001,VS,STUDY001-SUBJ0005,15,HR,Heart Rate,65,beats/min,65,65.0,beats/min,,WEEK 1,3,2024-10-14,7
STUDY001,VS,STUDY001-SUBJ0005,16,HEIGHT,Height,189.9,cm,189.9,189.9,cm,,WEEK 2,4,2024-10-21,14
STUDY001,VS,STUDY001-SUBJ0005,17,WEIGHT,Weight,77.7,kg,77.7,77.7,kg,,WEEK 2,4,2024-10-21,14
STUDY001,VS,STUDY001-SUBJ0005,18,TEMP,Temperature,36.8,C,36.8,36.8,C,,WEEK 2,4,2024-10-21,14
STUDY001,VS,STUDY001-SUBJ0005,19,BP,Blood Pressure,123/94,mmHg,123/94,,mmHg,,WEEK 2,4,2024-10-21,14
STUDY001,VS,STUDY001-SUBJ0005,20,HR,Heart Rate,58,beats/min,58,58.0,beats/min,,WEEK 2,4,2024-10-21,14
STUDY001,VS,STUDY001-SUBJ0005,21,HEIGHT,Height,189.8,cm,189.8,189.8,cm,,WEEK 4,5,2024-11-04,28
STUDY001,VS,STUDY001-SUBJ0005,22,WEIGHT,Weight,77.8,kg,77.8,77.8,kg,,WEEK 4,5,2024-11-04,28
STUDY001,VS,STUDY001-SUBJ0005,23,TEMP,Temperature,36.6,C,36.6,36.6,C,,WEEK 4,5,2024-11-04,28
STUDY001,VS,STUDY001-SUBJ0005,24,BP,Blood Pressure,128/94,mmHg,128/94,,mmHg,,WEEK 4,5,2024-11-04,28
STUDY001,VS,STUDY001-SUBJ0005,25,HR,Heart Rate,65,beats/min,65,65.0,beats/min,,WEEK 4,5,2024-11-04,28
STUDY001,VS,STUDY001-SUBJ0005,26,HEIGHT,Height,189.9,cm,189.9,189.9,cm,,WEEK 8,6,2024-12-02,56
STUDY001,VS,STUDY001-SUBJ0005,27,WEIGHT,Weight,77.7,kg,77.7,77.7,kg,,WEEK 8,6,2024-12-02,56
STUDY001,VS,STUDY001-SUBJ0005,28,TEMP,Temperature,36.7,C,36.7,36.7,C,,WEEK 8,6,2024-12-02,56
STUDY001,VS,STUDY001-SUBJ0005,29,BP,Blood Pressure,124/98,mmHg,124/98,,mmHg,,WEEK 8,6,2024-12-02,56
STUDY001,VS,STUDY001-SUBJ0005,30,HR,Heart Rate,57,beats/min,57,57.0,beats/min,,WEEK 8,6,2024-12-02,56
STUDY001,VS,STUDY001-SUBJ0005,31,HEIGHT,Height,190.1,cm,190.1,190.1,cm,,WEEK 12,7,2024-12-30,84
STUDY001,VS,STUDY001-SUBJ0005,32,WEIGHT,Weight,77.6,kg,77.6,77.6,kg,,WEEK 12,7,2024-12-30,84
STUDY001,VS,STUDY001-SUBJ0005,33,TEMP,Temperature,36.5,C,36.5,36.5,C,,WEEK 12,7,2024-12-30,84
STUDY001,VS,STUDY001-SUBJ0005,34,BP,Blood Pressure,123/91,mmHg,123/91,,mmHg,,WEEK 12,7,2024-12-30,84
STUDY001,VS,STUDY001-SUBJ0005,35,HR,Heart Rate,61,beats/min,61,61.0,beats/min,,WEEK 12,7,2024-12-30,84
STUDY001,VS,STUDY001-SUBJ0005,36,HEIGHT,Height,190.0,cm,190.0,190.0,cm,,WEEK 16,8,2025-01-27,112
STUDY001,VS,STUDY001-SUBJ0005,37,WEIGHT,Weight,77.4,kg,77.4,77.4,kg,,WEEK 16,8,2025-01-27,112
STUDY001,VS,STUDY001-SUBJ0005,38,TEMP,Temperature,36.5,C,36.5,36.5,C,,WEEK 16,8,2025-01-27,112
STUDY001,VS,STUDY001-SUBJ0005,39,BP,Blood Pressure,123/100,mmHg,123/100,,mmHg,,WEEK 16,8,2025-01-27,112
STUDY001,VS,STUDY001-SUBJ0005,40,HR,Heart Rate,63,beats/min,63,63.0,beats/min,,WEEK 16,8,2025-01-27,112
STUDY001,VS,STUDY001-SUBJ0005,41,HEIGHT,Height,189.9,cm,189.9,189.9,cm,,END OF TREATMENT,9,2025-02-24,140
STUDY001,VS,STUDY001-SUBJ0005,42,WEIGHT,Weight,77.8,kg,77.8,77.8,kg,,END OF TREATMENT,9,2025-02-24,140
STUDY001,VS,STUDY001-SUBJ0005,43,TEMP,Temperature,36.9,C,36.9,36.9,C,,END OF TREATMENT,9,2025-02-24,140
STUDY001,VS,STUDY001-SUBJ0005,44,BP,Blood Pressure,121/100,mmHg,121/100,,mmHg,,END OF TREATMENT,9,2025-02-24,140
STUDY001,VS,STUDY001-SUBJ0005,45,HR,Heart Rate,65,beats/min,65,65.0,beats/min,,END OF TREATMENT,9,2025-02-24,140
STUDY001,VS,STUDY001-SUBJ0006,1,HEIGHT,Height,159.9,cm,159.9,159.9,cm,,SCREENING,1,2025-05-24,-14
STUDY001,VS,STUDY001-SUBJ0006,2,WEIGHT,Weight,110.8,kg,110.8,110.8,kg,,SCREENING,1,2025-05-24,-14
STUDY001,VS,STUDY001-SUBJ0006,3,TEMP,Temperature,36.8,C,36.8,36.8,C,,SCREENING,1,2025-05-24,-14
STUDY001,VS,STUDY001-SUBJ0006,4,BP,Blood Pressure,149/79,mmHg,149/79,,mmHg,,SCREENING,1,2025-05-24,-14
STUDY001,VS,STUDY001-SUBJ0006,5,HR,Heart Rate,68,beats/min,68,68.0,beats/min,,SCREENING,1,2025-05-24,-14
STUDY001,VS,STUDY001-SUBJ0006,6,HEIGHT,Height,159.8,cm,159.8,159.8,cm,Y,BASELINE,2,2025-06-07,1
STUDY001,VS,STUDY001-SUBJ0006,7,WEIGHT,Weight,110.4,kg,110.4,110.4,kg,Y,BASELINE,2,2025-06-07,1
STUDY001,VS,STUDY001-SUBJ0006,8,TEMP,Temperature,36.9,C,36.9,36.9,C,Y,BASELINE,2,2025-06-07,1
STUDY001,VS,STUDY001-SUBJ0006,9,BP,Blood Pressure,150/76,mmHg,150/76,,mmHg,Y,BASELINE,2,2025-06-07,1
STUDY001,VS,STUDY001-SUBJ0006,10,HR,Heart Rate,74,beats/min,74,74.0,beats/min,Y,BASELINE,2,2025-06-07,1
STUDY001,VS,STUDY001-SUBJ0006,11,HEIGHT,Height,159.9,cm,159.9,159.9,cm,,WEEK 1,3,2025-06-13,7
STUDY001,VS,STUDY001-SUBJ0006,12,WEIGHT,Weight,111.0,kg,111.0,111.0,kg,,WEEK 1,3,2025-06-13,7
STUDY001,VS,STUDY001-SUBJ0006,13,TEMP,Temperature,36.6,C,36.6,36.6,C,,WEEK 1,3,2025-06-13,7
STUDY001,VS,STUDY001-SUBJ0006,14,BP,Blood Pressure,149/70,mmHg,149/70,,mmHg,,WEEK 1,3,2025-06-13,7
STUDY001,VS,STUDY001-SUBJ0006,15,HR,Heart Rate,73,beats/min,73,73.0,beats/min,,WEEK 1,3,2025-06-13,7
STUDY001,VS,STUDY001-SUBJ0006,16,HEIGHT,Height,160.0,cm,160.0,160.0,cm,,WEEK 2,4,2025-06-20,14
STUDY001,VS,STUDY001-SUBJ0006,17,WEIGHT,Weight,110.1,kg,110.1,110.1,kg,,WEEK 2,4,2025-06-20,14
STUDY001,VS,STUDY001-SUBJ0006,18,TEMP,Temperature,36.6,C,36.6,36.6,C,,WEEK 2,4,2025-06-20,14
STUDY001,VS,STUDY001-SUBJ0006,19,BP,Blood Pressure,147/79,mmHg,147/79,,mmHg,,WEEK 2,4,2025-06-20,14
STUDY001,VS,STUDY001-SUBJ0006,20,HR,Heart Rate,65,beats/min,65,65.0,beats/min,,WEEK 2,4,2025-06-20,14
STUDY001,VS,STUDY001-SUBJ0006,21,HEIGHT,Height,160.0,cm,160.0,160.0,cm,,WEEK 4,5,2025-07-04,28
STUDY001,VS,STUDY001-SUBJ0006,22,WEIGHT,Weight,109.9,kg,109.9,109.9,kg,,WEEK 4,5,2025-07-04,28
STUDY001,VS,STUDY001-SUBJ0006,23,TEMP,Temperature,36.8,C,36.8,36.8,C,,WEEK 4,5,2025-07-04,28
STUDY001,VS,STUDY001-SUBJ0006,24,BP,Blood Pressure,151/76,mmHg,151/76,,mmHg,,WEEK 4,5,2025-07-04,28
STUDY001,VS,STUDY001-SUBJ0006,25,HR,Heart Rate,70,beats/min,70,70.0,beats/min,,WEEK 4,5,2025-07-04,28
STUDY001,VS,STUDY001-SUBJ0006,26,HEIGHT,Height,159.9,cm,159.9,159.9,cm,,WEEK 8,6,2025-08-01,56
STUDY001,VS,STUDY001-SUBJ0006,27,WEIGHT,Weight,110.9,kg,110.9,110.9,kg,,WEEK 8,6,2025-08-01,56
STUDY001,VS,STUDY001-SUBJ0006,28,TEMP,Temperature,36.7,C,36.7,36.7,C,,WEEK 8,6,2025-08-01,56
STUDY001,VS,STUDY001-SUBJ0006,29,BP,Blood Pressure,145/78,mmHg,145/78,,mmHg,,WEEK 8,6,2025-08-01,56
STUDY001,VS,STUDY001-SUBJ0006,30,HR,Heart Rate,72,beats/min,72,72.0,beats/min,,WEEK 8,6,2025-08-01,56
STUDY001,VS,STUDY001-SUBJ0006,31,HEIGHT,Height,159.8,cm,159.8,159.8,cm,,WEEK 12,7,2025-08-29,84
STUDY001,VS,STUDY001-SUBJ0006,32,WEIGHT,Weight,110.1,kg,110.1,110.1,kg,,WEEK 12,7,2025-08-29,84
STUDY001,VS,STUDY001-SUBJ0006,33,TEMP,Temperature,36.9,C,36.9,36.9,C,,WEEK 12,7,2025-08-29,84
STUDY001,VS,STUDY001-SUBJ0006,34,BP,Blood Pressure,152/76,mmHg,152/76,,mmHg,,WEEK 12,7,2025-08-29,84
STUDY001,VS,STUDY001-SUBJ0006,35,HR,Heart Rate,71,beats/min,71,71.0,beats/min,,WEEK 12,7,2025-08-29,84
STUDY001,VS,STUDY001-SUBJ0006,36,HEIGHT,Height,159.7,cm,159.7,159.7,cm,,WEEK 16,8,2025-09-26,112
STUDY001,VS,STUDY001-SUBJ0006,37,WEIGHT,Weight,110.0,kg,110.0,110.0,kg,,WEEK 16,8,2025-09-26,112
STUDY001,VS,STUDY001-SUBJ0006,38,TEMP,Temperature,37.0,C,37.0,37.0,C,,WEEK 16,8,2025-09-26,112
STUDY001,VS,STUDY001-SUBJ0006,39,BP,Blood Pressure,151/72,mmHg,151/72,,mmHg,,WEEK 16,8,2025-09-26,112
STUDY001,VS,STUDY001-SUBJ0006,40,HR,Heart Rate,68,beats/min,68,68.0,beats/min,,WEEK 16,8,2025-09-26,112
STUDY001,VS,STUDY001-SUBJ0006,41,HEIGHT,Height,160.1,cm,160.1,160.1,cm,,END OF TREATMENT,9,2025-10-24,140
STUDY001,VS,STUDY001-SUBJ0006,42,WEIGHT,Weight,111.4,kg,111.4,111.4,kg,,END OF TREATMENT,9,2025-10-24,140
STUDY001,VS,STUDY001-SUBJ0006,43,TEMP,Temperature,36.9,C,36.9,36.9,C,,END OF TREATMENT,9,2025-10-24,140
STUDY001,VS,STUDY001-SUBJ0006,44,BP,Blood Pressure,152/71,mmHg,152/71,,mmHg,,END OF TREATMENT,9,2025-10-24,140
STUDY001,VS,STUDY001-SUBJ0006,45,HR,Heart Rate,72,beats/min,72,72.0,beats/min,,END OF TREATMENT,9,2025-10-24,140
STUDY001,VS,STUDY001-SUBJ0007,1,HEIGHT,Height,167.0,cm,167.0,167.0,cm,,SCREENING,1,2025-01-30,-14
STUDY001,VS,STUDY001-SUBJ0007,2,WEIGHT,Weight,59.1,kg,59.1,59.1,kg,,SCREENING,1,2025-01-30,-14
STUDY001,VS,STUDY001-SUBJ0007,3,TEMP,Temperature,36.4,C,36.4,36.4,C,,SCREENING,1,2025-01-30,-14
STUDY001,VS,STUDY001-SUBJ0007,4,BP,Blood Pressure,121/90,mmHg,121/90,,mmHg,,SCREENING,1,2025-01-30,-14
STUDY001,VS,STUDY001-SUBJ0007,5,HR,Heart Rate,61,beats/min,61,61.0,beats/min,,SCREENING,1,2025-01-30,-14
STUDY001,VS,STUDY001-SUBJ0007,6,HEIGHT,Height,167.1,cm,167.1,167.1,cm,Y,BASELINE,2,2025-02-13,1
STUDY001,VS,STUDY001-SUBJ0007,7,WEIGHT,Weight,59.3,kg,59.3,59.3,kg,Y,BASELINE,2,2025-02-13,1
STUDY001,VS,STUDY001-SUBJ0007,8,TEMP,Temperature,36.7,C,36.7,36.7,C,Y,BASELINE,2,2025-02-13,1
STUDY001,VS,STUDY001-SUBJ0007,9,BP,Blood Pressure,120/89,mmHg,120/89,,mmHg,Y,BASELINE,2,2025-02-13,1
STUDY001,VS,STUDY001-SUBJ0007,10,HR,Heart Rate,62,beats/min,62,62.0,beats/min,Y,BASELINE,2,2025-02-13,1
STUDY001,VS,STUDY001-SUBJ0007,11,HEIGHT,Height,166.9,cm,166.9,166.9,cm,,WEEK 1,3,2025-02-19,7
STUDY001,VS,STUDY001-SUBJ0007,12,WEIGHT,Weight,60.0,kg,60.0,60.0,kg,,WEEK 1,3,2025-02-19,7
STUDY001,VS,STUDY001-SUBJ0007,13,TEMP,Temperature,36.6,C,36.6,36.6,C,,WEEK 1,3,2025-02-19,7
STUDY001,VS,STUDY001-SUBJ0007,14,BP,Blood Pressure,123/88,mmHg,123/88,,mmHg,,WEEK 1,3,2025-02-19,7
STUDY001,VS,STUDY001-SUBJ0007,15,HR,Heart Rate,61,beats/min,61,61.0,beats/min,,WEEK 1,3,2025-02-19,7
STUDY001,VS,STUDY001-SUBJ0007,16,HEIGHT,Height,167.1,cm,167.1,167.1,cm,,WEEK 2,4,2025-02-26,14
STUDY001,VS,STUDY001-SUBJ0007,17,WEIGHT,Weight,60.1,kg,60.1,60.1,kg,,WEEK 2,4,2025-02-26,14
STUDY001,VS,STUDY001-SUBJ0007,18,TEMP,Temperature,36.6,C,36.6,36.6,C,,WEEK 2,4,2025-02-26,14
STUDY001,VS,STUDY001-SUBJ0007,19,BP,Blood Pressure,122/89,mmHg,122/89,,mmHg,,WEEK 2,4,2025-02-26,14
STUDY001,VS,STUDY001-SUBJ0007,20,HR,Heart Rate,66,beats/min,66,66.0,beats/min,,WEEK 2,4,2025-02-26,14
STUDY001,VS,STUDY001-SUBJ0007,21,HEIGHT,Height,166.9,cm,166.9,166.9,cm,,WEEK 4,5,2025-03-12,28
STUDY001,VS,STUDY001-SUBJ0007,22,WEIGHT,Weight,58.9,kg,58.9,58.9,kg,,WEEK 4,5,2025-03-12,28
STUDY001,VS,STUDY001-SUBJ0007,23,TEMP,Temperature,36.5,C,36.5,36.5,C,,WEEK 4,5,2025-03-12,28
STUDY001,VS,STUDY001-SUBJ0007,24,BP,Blood Pressure,125/90,mmHg,125/90,,mmHg,,WEEK 4,5,2025-03-12,28
STUDY001,VS,STUDY001-SUBJ0007,25,HR,Heart Rate,58,beats/min,58,58.0,beats/min,,WEEK 4,5,2025-03-12,28
STUDY001,VS,STUDY001-SUBJ0007,26,HEIGHT,Height,167.1,cm,167.1,167.1,cm,,WEEK 8,6,2025-04-09,56
STUDY001,VS,STUDY001-SUBJ0007,27,WEIGHT,Weight,59.4,kg,59.4,59.4,kg,,WEEK 8,6,2025-04-09,56
STUDY001,VS,STUDY001-SUBJ0007,28,TEMP,Temperature,36.5,C,36.5,36.5,C,,WEEK 8,6,2025-04-09,56
STUDY001,VS,STUDY001-SUBJ0007,29,BP,Blood Pressure,125/91,mmHg,125/91,,mmHg,,WEEK 8,6,2025-04-09,56
STUDY001,VS,STUDY001-SUBJ0007,30,HR,Heart Rate,61,beats/min,61,61.0,beats/min,,WEEK 8,6,2025-04-09,56
STUDY001,VS,STUDY001-SUBJ0007,31,HEIGHT,Height,167.0,cm,167.0,167.0,cm,,WEEK 12,7,2025-05-07,84
STUDY001,VS,STUDY001-SUBJ0007,32,WEIGHT,Weight,60.3,kg,60.3,60.3,kg,,WEEK 12,7,2025-05-07,84
STUDY001,VS,STUDY001-SUBJ0007,33,TEMP,Temperature,36.4,C,36.4,36.4,C,,WEEK 12,7,2025-05-07,84
STUDY001,VS,STUDY001-SUBJ0007,34,BP,Blood Pressure,119/83,mmHg,119/83,,mmHg,,WEEK 12,7,2025-05-07,84
STUDY001,VS,STUDY001-SUBJ0007,35,HR,Heart Rate,58,beats/min,58,58.0,beats/min,,WEEK 12,7,2025-05-07,84
STUDY001,VS,STUDY001-SUBJ0007,36,HEIGHT,Height,167.0,cm,167.0,167.0,cm,,WEEK 16,8,2025-06-04,112
STUDY001,VS,STUDY001-SUBJ0007,37,WEIGHT,Weight,59.7,kg,59.7,59.7,kg,,WEEK 16,8,2025-06-04,112
STUDY001,VS,STUDY001-SUBJ0007,38,TEMP,Temperature,36.8,C,36.8,36.8,C,,WEEK 16,8,2025-06-04,112
STUDY001,VS,STUDY001-SUBJ0007,39,BP,Blood Pressure,125/85,mmHg,125/85,,mmHg,,WEEK 16,8,2025-06-04,112
STUDY001,VS,STUDY001-SUBJ0007,40,HR,Heart Rate,58,beats/min,58,58.0,beats/min,,WEEK 16,8,2025-06-04,112
STUDY001,VS,STUDY001-SUBJ0007,41,HEIGHT,Height,166.9,cm,166.9,166.9,cm,,END OF TREATMENT,9,2025-07-02,140
STUDY001,VS,STUDY001-SUBJ0007,42,WEIGHT,Weight,59.1,kg,59.1,59.1,kg,,END OF TREATMENT,9,2025-07-02,140
STUDY001,VS,STUDY001-SUBJ0007,43,TEMP,Temperature,36.4,C,36.4,36.4,C,,END OF TREATMENT,9,2025-07-02,140
STUDY001,VS,STUDY001-SUBJ0007,44,BP,Blood Pressure,124/90,mmHg,124/90,,mmHg,,END OF TREATMENT,9,2025-07-02,140
STUDY001,VS,STUDY001-SUBJ0007,45,HR,Heart Rate,59,beats/min,59,59.0,beats/min,,END OF TREATMENT,9,2025-07-02,140
STUDY001,VS,STUDY001-SUBJ0008,1,HEIGHT,Height,153.2,cm,153.2,153.2,cm,,SCREENING,1,2024-12-18,-14
STUDY001,VS,STUDY001-SUBJ0008,2,WEIGHT,Weight,107.1,kg,107.1,107.1,kg,,SCREENING,1,2024-12-18,-14
STUDY001,VS,STUDY001-SUBJ0008,3,TEMP,Temperature,36.4,C,36.4,36.4,C,,SCREENING,1,2024-12-18,-14
STUDY001,VS,STUDY001-SUBJ0008,4,BP,Blood Pressure,136/72,mmHg,136/72,,mmHg,,SCREENING,1,2024-12-18,-14
STUDY001,VS,STUDY001-SUBJ0008,5,HR,Heart Rate,77,beats/min,77,77.0,beats/min,,SCREENING,1,2024-12-18,-14
STUDY001,VS,STUDY001-SUBJ0008,6,HEIGHT,Height,153.1,cm,153.1,153.1,cm,Y,BASELINE,2,2025-01-01,1
STUDY001,VS,STUDY001-SUBJ0008,7,WEIGHT,Weight,108.3,kg,108.3,108.3,kg,Y,BASELINE,2,2025-01-01,1
STUDY001,VS,STUDY001-SUBJ0008,8,TEMP,Temperature,36.5,C,36.5,36.5,C,Y,BASELINE,2,2025-01-01,1
STUDY001,VS,STUDY001-SUBJ0008,9,BP,Blood Pressure,143/71,mmHg,143/71,,mmHg,Y,BASELINE,2,2025-01-01,1
STUDY001,VS,STUDY001-SUBJ0008,10,HR,Heart Rate,71,beats/min,71,71.0,beats/min,Y,BASELINE,2,2025-01-01,1
STUDY001,VS,STUDY001-SUBJ0008,11,HEIGHT,Height,153.1,cm,153.1,153.1,cm,,WEEK 1,3,2025-01-07,7
STUDY001,VS,STUDY001-SUBJ0008,12,WEIGHT,Weight,108.4,kg,108.4,108.4,kg,,WEEK 1,3,2025-01-07,7
STUDY001,VS,STUDY001-SUBJ0008,13,TEMP,Temperature,36.4,C,36.4,36.4,C,,WEEK 1,3,2025-01-07,7
STUDY001,VS,STUDY001-SUBJ0008,14,BP,Blood Pressure,144/79,mmHg,144/79,,mmHg,,WEEK 1,3,2025-01-07,7
STUDY001,VS,STUDY001-SUBJ0008,15,HR,Heart Rate,74,beats/min,74,74.0,beats/min,,WEEK 1,3,2025-01-07,7
STUDY001,VS,STUDY001-SUBJ0008,16,HEIGHT,Height,153.4,cm,153.4,153.4,cm,,WEEK 2,4,2025-01-14,14
STUDY001,VS,STUDY001-SUBJ0008,17,WEIGHT,Weight,108.1,kg,108.1,108.1,kg,,WEEK 2,4,2025-01-14,14
STUDY001,VS,STUDY001-SUBJ0008,18,TEMP,Temperature,36.6,C,36.6,36.6,C,,WEEK 2,4,2025-01-14,14
STUDY001,VS,STUDY001-SUBJ0008,19,BP,Blood Pressure,142/79,mmHg,142/79,,mmHg,,WEEK 2,4,2025-01-14,14
STUDY001,VS,STUDY001-SUBJ0008,20,HR,Heart Rate,71,beats/min,71,71.0,beats/min,,WEEK 2,4,2025-01-14,14
STUDY001,VS,STUDY001-SUBJ0008,21,HEIGHT,Height,153.2,cm,153.2,153.2,cm,,WEEK 4,5,2025-01-28,28
STUDY001,VS,STUDY001-SUBJ0008,22,WEIGHT,Weight,108.0,kg,108.0,108.0,kg,,WEEK 4,5,2025-01-28,28
STUDY001,VS,STUDY001-SUBJ0008,23,TEMP,Temperature,36.7,C,36.7,36.7,C,,WEEK 4,5,2025-01-28,28
STUDY001,VS,STUDY001-SUBJ0008,24,BP,Blood Pressure,136/79,mmHg,136/79,,mmHg,,WEEK 4,5,2025-01-28,28
STUDY001,VS,STUDY001-SUBJ0008,25,HR,Heart Rate,68,beats/min,68,68.0,beats/min,,WEEK 4,5,2025-01-28,28
STUDY001,VS,STUDY001-SUBJ0008,26,HEIGHT,Height,153.3,cm,153.3,153.3,cm,,WEEK 8,6,2025-02-25,56
STUDY001,VS,STUDY001-SUBJ0008,27,WEIGHT,Weight,108.2,kg,108.2,108.2,kg,,WEEK 8,6,2025-02-25,56
STUDY001,VS,STUDY001-SUBJ0008,28,TEMP,Temperature,36.8,C,36.8,36.8,C,,WEEK 8,6,2025-02-25,56
STUDY001,VS,STUDY001-SUBJ0008,29,BP,Blood Pressure,136/79,mmHg,136/79,,mmHg,,WEEK 8,6,2025-02-25,56
STUDY001,VS,STUDY001-SUBJ0008,30,HR,Heart Rate,75,beats/min,75,75.0,beats/min,,WEEK 8,6,2025-02-25,56
STUDY001,VS,STUDY001-SUBJ0008,31,HEIGHT,Height,153.3,cm,153.3,153.3,cm,,WEEK 12,7,2025-03-25,84
STUDY001,VS,STUDY001-SUBJ0008,32,WEIGHT,Weight,107.6,kg,107.6,107.6,kg,,WEEK 12,7,2025-03-25,84
STUDY001,VS,STUDY001-SUBJ0008,33,TEMP,Temperature,36.5,C,36.5,36.5,C,,WEEK 12,7,2025-03-25,84
STUDY001,VS,STUDY001-SUBJ0008,34,BP,Blood Pressure,141/71,mmHg,141/71,,mmHg,,WEEK 12,7,2025-03-25,84
STUDY001,VS,STUDY001-SUBJ0008,35,HR,Heart Rate,77,beats/min,77,77.0,beats/min,,WEEK 12,7,2025-03-25,84
STUDY001,VS,STUDY001-SUBJ0008,36,HEIGHT,Height,153.2,cm,153.2,153.2,cm,,WEEK 16,8,2025-04-22,112
STUDY001,VS,STUDY001-SUBJ0008,37,WEIGHT,Weight,107.7,kg,107.7,107.7,kg,,WEEK 16,8,2025-04-22,112
STUDY001,VS,STUDY001-SUBJ0008,38,TEMP,Temperature,36.4,C,36.4,36.4,C,,WEEK 16,8,2025-04-22,112
STUDY001,VS,STUDY001-SUBJ0008,39,BP,Blood Pressure,141/78,mmHg,141/78,,mmHg,,WEEK 16,8,2025-04-22,112
STUDY001,VS,STUDY001-SUBJ0008,40,HR,Heart Rate,69,beats/min,69,69.0,beats/min,,WEEK 16,8,2025-04-22,112
STUDY001,VS,STUDY001-SUBJ0008,41,HEIGHT,Height,153.3,cm,153.3,153.3,cm,,END OF TREATMENT,9,2025-05-20,140
STUDY001,VS,STUDY001-SUBJ0008,42,WEIGHT,Weight,109.0,kg,109.0,109.0,kg,,END OF TREATMENT,9,2025-05-20,140
STUDY001,VS,STUDY001-SUBJ0008,43,TEMP,Temperature,36.8,C,36.8,36.8,C,,END OF TREATMENT,9,2025-05-20,140
STUDY001,VS,STUDY001-SUBJ0008,44,BP,Blood Pressure,142/75,mmHg,142/75,,mmHg,,END OF TREATMENT,9,2025-05-20,140
STUDY001,VS,STUDY001-SUBJ0008,45,HR,Heart Rate,71,beats/min,71,71.0,beats/min,,END OF TREATMENT,9,2025-05-20,140
STUDY001,VS,STUDY001-SUBJ0009,1,HEIGHT,Height,165.2,cm,165.2,165.2,cm,,SCREENING,1,2025-02-01,-14
STUDY001,VS,STUDY001-SUBJ0009,2,WEIGHT,Weight,102.4,kg,102.4,102.4,kg,,SCREENING,1,2025-02-01,-14
STUDY001,VS,STUDY001-SUBJ0009,3,TEMP,Temperature,36.4,C,36.4,36.4,C,,SCREENING,1,2025-02-01,-14
STUDY001,VS,STUDY001-SUBJ0009,4,BP,Blood Pressure,102/95,mmHg,102/95,,mmHg,,SCREENING,1,2025-02-01,-14
STUDY001,VS,STUDY001-SUBJ0009,5,HR,Heart Rate,81,beats/min,81,81.0,beats/min,,SCREENING,1,2025-02-01,-14
STUDY001,VS,STUDY001-SUBJ0009,6,HEIGHT,Height,165.4,cm,165.4,165.4,cm,Y,BASELINE,2,2025-02-15,1
STUDY001,VS,STUDY001-SUBJ0009,7,WEIGHT,Weight,101.1,kg,101.1,101.1,kg,Y,BASELINE,2,2025-02-15,1
STUDY001,VS,STUDY001-SUBJ0009,8,TEMP,Temperature,36.3,C,36.3,36.3,C,Y,BASELINE,2,2025-02-15,1
STUDY001,VS,STUDY001-SUBJ0009,9,BP,Blood Pressure,101/98,mmHg,101/98,,mmHg,Y,BASELINE,2,2025-02-15,1
STUDY001,VS,STUDY001-SUBJ0009,10,HR,Heart Rate,78,beats/min,78,78.0,beats/min,Y,BASELINE,2,2025-02-15,1
STUDY001,VS,STUDY001-SUBJ0009,11,HEIGHT,Height,165.2,cm,165.2,165.2,cm,,WEEK 1,3,2025-02-21,7
STUDY001,VS,STUDY001-SUBJ0009,12,WEIGHT,Weight,102.6,kg,102.6,102.6,kg,,WEEK 1,3,2025-02-21,7
STUDY001,VS,STUDY001-SUBJ0009,13,TEMP,Temperature,36.4,C,36.4,36.4,C,,WEEK 1,3,2025-02-21,7
STUDY001,VS,STUDY001-SUBJ0009,14,BP,Blood Pressure,105/101,mmHg,105/101,,mmHg,,WEEK 1,3,2025-02-21,7
STUDY001,VS,STUDY001-SUBJ0009,15,HR,Heart Rate,80,beats/min,80,80.0,beats/min,,WEEK 1,3,2025-02-21,7
STUDY001,VS,STUDY001-SUBJ0009,16,HEIGHT,Height,165.2,cm,165.2,165.2,cm,,WEEK 2,4,2025-02-28,14
STUDY001,VS,STUDY001-SUBJ0009,17,WEIGHT,Weight,100.8,kg,100.8,100.8,kg,,WEEK 2,4,2025-02-28,14
STUDY001,VS,STUDY001-SUBJ0009,18,TEMP,Temperature,36.7,C,36.7,36.7,C,,WEEK 2,4,2025-02-28,14
STUDY001,VS,STUDY001-SUBJ0009,19,BP,Blood Pressure,99/100,mmHg,99/100,,mmHg,,WEEK 2,4,2025-02-28,14
STUDY001,VS,STUDY001-SUBJ0009,20,HR,Heart Rate,72,beats/min,72,72.0,beats/min,,WEEK 2,4,2025-02-28,14
STUDY001,VS,STUDY001-SUBJ0009,21,HEIGHT,Height,165.4,cm,165.4,165.4,cm,,WEEK 4,5,2025-03-14,28
STUDY001,VS,STUDY001-SUBJ0009,22,WEIGHT,Weight,101.6,kg,101.6,101.6,kg,,WEEK 4,5,2025-03-14,28
STUDY001,VS,STUDY001-SUBJ0009,23,TEMP,Temperature,36.4,C,36.4,36.4,C,,WEEK 4,5,2025-03-14,28
STUDY001,VS,STUDY001-SUBJ0009,24,BP,Blood Pressure,104/93,mmHg,104/93,,mmHg,,WEEK 4,5,2025-03-14,28
STUDY001,VS,STUDY001-SUBJ0009,25,HR,Heart Rate,73,beats/min,73,73.0,beats/min,,WEEK 4,5,2025-03-14,28
STUDY001,VS,STUDY001-SUBJ0009,26,HEIGHT,Height,165.3,cm,165.3,165.3,cm,,WEEK 8,6,2025-04-11,56
STUDY001,VS,STUDY001-SUBJ0009,27,WEIGHT,Weight,101.1,kg,101.1,101.1,kg,,WEEK 8,6,2025-04-11,56
STUDY001,VS,STUDY001-SUBJ0009,28,TEMP,Temperature,36.4,C,36.4,36.4,C,,WEEK 8,6,2025-04-11,56
STUDY001,VS,STUDY001-SUBJ0009,29,BP,Blood Pressure,106/93,mmHg,106/93,,mmHg,,WEEK 8,6,2025-04-11,56
STUDY001,VS,STUDY001-SUBJ0009,30,HR,Heart Rate,74,beats/min,74,74.0,beats/min,,WEEK 8,6,2025-04-11,56
STUDY001,VS,STUDY001-SUBJ0009,31,HEIGHT,Height,165.4,cm,165.4,165.4,cm,,WEEK 12,7,2025-05-09,84
STUDY001,VS,STUDY001-SUBJ0009,32,WEIGHT,Weight,101.2,kg,101.2,101.2,kg,,WEEK 12,7,2025-05-09,84
STUDY001,VS,STUDY001-SUBJ0009,33,TEMP,Temperature,36.5,C,36.5,36.5,C,,WEEK 12,7,2025-05-09,84
STUDY001,VS,STUDY001-SUBJ0009,34,BP,Blood Pressure,98/95,mmHg,98/95,,mmHg,,WEEK 12,7,2025-05-09,84
STUDY001,VS,STUDY001-SUBJ0009,35,HR,Heart Rate,79,beats/min,79,79.0,beats/min,,WEEK 12,7,2025-05-09,84
STUDY001,VS,STUDY001-SUBJ0009,36,HEIGHT,Height,165.1,cm,165.1,165.1,cm,,WEEK 16,8,2025-06-06,112
STUDY001,VS,STUDY001-SUBJ0009,37,WEIGHT,Weight,100.8,kg,100.8,100.8,kg,,WEEK 16,8,2025-06-06,112
STUDY001,VS,STUDY001-SUBJ0009,38,TEMP,Temperature,36.5,C,36.5,36.5,C,,WEEK 16,8,2025-06-06,112
STUDY001,VS,STUDY001-SUBJ0009,39,BP,Blood Pressure,103/99,mmHg,103/99,,mmHg,,WEEK 16,8,2025-06-06,112
STUDY001,VS,STUDY001-SUBJ0009,40,HR,Heart Rate,81,beats/min,81,81.0,beats/min,,WEEK 16,8,2025-06-06,112
STUDY001,VS,STUDY001-SUBJ0009,41,HEIGHT,Height,165.3,cm,165.3,165.3,cm,,END OF TREATMENT,9,2025-07-04,140
STUDY001,VS,STUDY001-SUBJ0009,42,WEIGHT,Weight,101.4,kg,101.4,101.4,kg,,END OF TREATMENT,9,2025-07-04,140
STUDY001,VS,STUDY001-SUBJ0009,43,TEMP,Temperature,36.7,C,36.7,36.7,C,,END OF TREATMENT,9,2025-07-04,140
STUDY001,VS,STUDY001-SUBJ0009,44,BP,Blood Pressure,98/93,mmHg,98/93,,mmHg,,END OF TREATMENT,9,2025-07-04,140
STUDY001,VS,STUDY001-SUBJ0009,45,HR,Heart Rate,77,beats/min,77,77.0,beats/min,,END OF TREATMENT,9,2025-07-04,140
STUDY001,VS,STUDY001-SUBJ0010,1,HEIGHT,Height,150.5,cm,150.5,150.5,cm,,SCREENING,1,2024-12-06,-14
STUDY001,VS,STUDY001-SUBJ0010,2,WEIGHT,Weight,119.8,kg,119.8,119.8,kg,,SCREENING,1,2024-12-06,-14
STUDY001,VS,STUDY001-SUBJ0010,3,TEMP,Temperature,37.0,C,37.0,37.0,C,,SCREENING,1,2024-12-06,-14
STUDY001,VS,STUDY001-SUBJ0010,4,BP,Blood Pressure,133/72,mmHg,133/72,,mmHg,,SCREENING,1,2024-12-06,-14
STUDY001,VS,STUDY001-SUBJ0010,5,HR,Heart Rate,60,beats/min,60,60.0,beats/min,,SCREENING,1,2024-12-06,-14
STUDY001,VS,STUDY001-SUBJ0010,6,HEIGHT,Height,150.7,cm,150.7,150.7,cm,Y,BASELINE,2,2024-12-20,1
STUDY001,VS,STUDY001-SUBJ0010,7,WEIGHT,Weight,119.9,kg,119.9,119.9,kg,Y,BASELINE,2,2024-12-20,1
STUDY001,VS,STUDY001-SUBJ0010,8,TEMP,Temperature,37.1,C,37.1,37.1,C,Y,BASELINE,2,2024-12-20,1
STUDY001,VS,STUDY001-SUBJ0010,9,BP,Blood Pressure,131/73,mmHg,131/73,,mmHg,Y,BASELINE,2,2024-12-20,1
STUDY001,VS,STUDY001-SUBJ0010,10,HR,Heart Rate,58,beats/min,58,58.0,beats/min,Y,BASELINE,2,2024-12-20,1
STUDY001,VS,STUDY001-SUBJ0010,11,HEIGHT,Height,150.6,cm,150.6,150.6,cm,,WEEK 1,3,2024-12-26,7
STUDY001,VS,STUDY001-SUBJ0010,12,WEIGHT,Weight,119.8,kg,119.8,119.8,kg,,WEEK 1,3,2024-12-26,7
STUDY001,VS,STUDY001-SUBJ0010,13,TEMP,Temperature,36.9,C,36.9,36.9,C,,WEEK 1,3,2024-12-26,7
STUDY001,VS,STUDY001-SUBJ0010,14,BP,Blood Pressure,132/70,mmHg,132/70,,mmHg,,WEEK 1,3,2024-12-26,7
STUDY001,VS,STUDY001-SUBJ0010,15,HR,Heart Rate,58,beats/min,58,58.0,beats/min,,WEEK 1,3,2024-12-26,7
STUDY001,VS,STUDY001-SUBJ0010,16,HEIGHT,Height,150.4,cm,150.4,150.4,cm,,WEEK 2,4,2025-01-02,14
STUDY001,VS,STUDY001-SUBJ0010,17,WEIGHT,Weight,120.2,kg,120.2,120.2,kg,,WEEK 2,4,2025-01-02,14
STUDY001,VS,STUDY001-SUBJ0010,18,TEMP,Temperature,36.8,C,36.8,36.8,C,,WEEK 2,4,2025-01-02,14
STUDY001,VS,STUDY001-SUBJ0010,19,BP,Blood Pressure,127/68,mmHg,127/68,,mmHg,,WEEK 2,4,2025-01-02,14
STUDY001,VS,STUDY001-SUBJ0010,20,HR,Heart Rate,64,beats/min,64,64.0,beats/min,,WEEK 2,4,2025-01-02,14
STUDY001,VS,STUDY001-SUBJ0010,21,HEIGHT,Height,150.4,cm,150.4,150.4,cm,,WEEK 4,5,2025-01-16,28
STUDY001,VS,STUDY001-SUBJ0010,22,WEIGHT,Weight,118.7,kg,118.7,118.7,kg,,WEEK 4,5,2025-01-16,28
STUDY001,VS,STUDY001-SUBJ0010,23,TEMP,Temperature,37.0,C,37.0,37.0,C,,WEEK 4,5,2025-01-16,28
STUDY001,VS,STUDY001-SUBJ0010,24,BP,Blood Pressure,136/70,mmHg,136/70,,mmHg,,WEEK 4,5,2025-01-16,28
STUDY001,VS,STUDY001-SUBJ0010,25,HR,Heart Rate,66,beats/min,66,66.0,beats/min,,WEEK 4,5,2025-01-16,28
STUDY001,VS,STUDY001-SUBJ0010,26,HEIGHT,Height,150.4,cm,150.4,150.4,cm,,WEEK 8,6,2025-02-13,56
STUDY001,VS,STUDY001-SUBJ0010,27,WEIGHT,Weight,120.2,kg,120.2,120.2,kg,,WEEK 8,6,2025-02-13,56
STUDY001,VS,STUDY001-SUBJ0010,28,TEMP,Temperature,36.8,C,36.8,36.8,C,,WEEK 8,6,2025-02-13,56
STUDY001,VS,STUDY001-SUBJ0010,29,BP,Blood Pressure,131/75,mmHg,131/75,,mmHg,,WEEK 8,6,2025-02-13,56
STUDY001,VS,STUDY001-SUBJ0010,30,HR,Heart Rate,62,beats/min,62,62.0,beats/min,,WEEK 8,6,2025-02-13,56
STUDY001,VS,STUDY001-SUBJ0010,31,HEIGHT,Height,150.6,cm,150.6,150.6,cm,,WEEK 12,7,2025-03-13,84
STUDY001,VS,STUDY001-SUBJ0010,32,WEIGHT,Weight,118.5,kg,118.5,118.5,kg,,WEEK 12,7,2025-03-13,84
STUDY001,VS,STUDY001-SUBJ0010,33,TEMP,Temperature,37.1,C,37.1,37.1,C,,WEEK 12,7,2025-03-13,84
STUDY001,VS,STUDY001-SUBJ0010,34,BP,Blood Pressure,129/68,mmHg,129/68,,mmHg,,WEEK 12,7,2025-03-13,84
STUDY001,VS,STUDY001-SUBJ0010,35,HR,Heart Rate,59,beats/min,59,59.0,beats/min,,WEEK 12,7,2025-03-13,84
STUDY001,VS,STUDY001-SUBJ0010,36,HEIGHT,Height,150.6,cm,150.6,150.6,cm,,WEEK 16,8,2025-04-10,112
STUDY001,VS,STUDY001-SUBJ0010,37,WEIGHT,Weight,119.4,kg,119.4,119.4,kg,,WEEK 16,8,2025-04-10,112
STUDY001,VS,STUDY001-SUBJ0010,38,TEMP,Temperature,37.1,C,37.1,37.1,C,,WEEK 16,8,2025-04-10,112
STUDY001,VS,STUDY001-SUBJ0010,39,BP,Blood Pressure,135/70,mmHg,135/70,,mmHg,,WEEK 16,8,2025-04-10,112
STUDY001,VS,STUDY001-SUBJ0010,40,HR,Heart Rate,62,beats/min,62,62.0,beats/min,,WEEK 16,8,2025-04-10,112
STUDY001,VS,STUDY001-SUBJ0010,41,HEIGHT,Height,150.6,cm,150.6,150.6,cm,,END OF TREATMENT,9,2025-05-08,140
STUDY001,VS,STUDY001-SUBJ0010,42,WEIGHT,Weight,118.4,kg,118.4,118.4,kg,,END OF TREATMENT,9,2025-05-08,140
STUDY001,VS,STUDY001-SUBJ0010,43,TEMP,Temperature,37.2,C,37.2,37.2,C,,END OF TREATMENT,9,2025-05-08,140
STUDY001,VS,STUDY001-SUBJ0010,44,BP,Blood Pressure,133/75,mmHg,133/75,,mmHg,,END OF TREATMENT,9,2025-05-08,140
STUDY001,VS,STUDY001-SUBJ0010,45,HR,Heart Rate,66,beats/min,66,66.0,beats/min,,END OF TREATMENT,9,2025-05-08,140
