STUDYID,DOMAIN,USUBJID,VSSEQ,VSTESTCD,VSTEST,VSORRES,VSORRESU,VSSTRESC,VSSTRESN,VSSTRESU,VSBLFL,VISIT,VISITNUM,VSDTC,VSDY
STUDY001,VS,STUDY001-SUBJ0001,1,HEIGHT,Height,164.1,cm,164.1,164.1,cm,,SCREENING,1,2025-04-23,-14
STUDY001,VS,STUDY001-SUBJ0001,2,WEIGHT,Weight,77.0,kg,77.0,77.0,kg,,SCREENING,1,2025-04-23,-14
STUDY001,VS,STUDY001-SUBJ0001,3,TEMP,Temperature,36.5,C,36.5,36.5,C,,SCREENING,1,2025-04-23,-14
STUDY001,VS,STUDY001-SUBJ0001,4,BP,Blood Pressure,103/90,mmHg,103/90,,mmHg,,SCREENING,1,2025-04-23,-14
STUDY001,VS,STUDY001-SUBJ0001,5,HR,Heart Rate,89,beats/min,89,89.0,beats/min,,SCREENING,1,2025-04-23,-14
STUDY001,VS,STUDY001-SUBJ0001,6,HEIGHT,Height,164.1,cm,164.1,164.1,cm,Y,BASELINE,2,2025-05-07,1
STUDY001,VS,STUDY001-SUBJ0001,7,WEIGHT,Weight,77.9,kg,77.9,77.9,kg,Y,BASELINE,2,2025-05-07,1
STUDY001,VS,STUDY001-SUBJ0001,8,TEMP,Temperature,36.4,C,36.4,36.4,C,Y,BASELINE,2,2025-05-07,1
STUDY001,VS,STUDY001-SUBJ0001,9,BP,Blood Pressure,110/93,mmHg,110/93,,mmHg,Y,BASELINE,2,2025-05-07,1
STUDY001,VS,STUDY001-SUBJ0001,10,HR,Heart Rate,83,beats/min,83,83.0,beats/min,Y,BASELINE,2,2025-05-07,1
STUDY001,VS,STUDY001-SUBJ0001,11,HEIGHT,Height,163.9,cm,163.9,163.9,cm,,WEEK 1,3,2025-05-13,7
STUDY001,VS,STUDY001-SUBJ0001,12,WEIGHT,Weight,77.7,kg,77.7,77.7,kg,,WEEK 1,3,2025-05-13,7
STUDY001,VS,STUDY001-SUBJ0001,13,TEMP,Temperature,36.6,C,36.6,36.6,C,,WEEK 1,3,2025-05-13,7
STUDY001,VS,STUDY001-SUBJ0001,14,BP,Blood Pressure,106/87,mmHg,106/87,,mmHg,,WEEK 1,3,2025-05-13,7
STUDY001,VS,STUDY001-SUBJ0001,15,HR,Heart Rate,79,beats/min,79,79.0,beats/min,,WEEK 1,3,2025-05-13,7
STUDY001,VS,STUDY001-SUBJ0001,16,HEIGHT,Height,164.3,cm,164.3,164.3,cm,,WEEK 2,4,2025-05-20,14
STUDY001,VS,STUDY001-SUBJ0001,17,WEIGHT,Weight,77.5,kg,77.5,77.5,kg,,WEEK 2,4,2025-05-20,14
STUDY001,VS,STUDY001-SUBJ0001,18,TEMP,Temperature,36.7,C,36.7,36.7,C,,WEEK 2,4,2025-05-20,14
STUDY001,VS,STUDY001-SUBJ0001,19,BP,Blood Pressure,108/89,mmHg,108/89,,mmHg,,WEEK 2,4,2025-05-20,14
STUDY001,VS,STUDY001-SUBJ0001,20,HR,Heart Rate,88,beats/min,88,88.0,beats/min,,WEEK 2,4,2025-05-20,14
STUDY001,VS,STUDY001-SUBJ0001,21,HEIGHT,Height,164.0,cm,164.0,164.0,cm,,WEEK 4,5,2025-06-03,28
STUDY001,VS,STUDY001-SUBJ0001,22,WEIGHT,Weight,77.9,kg,77.9,77.9,kg,,WEEK 4,5,2025-06-03,28
STUDY001,VS,STUDY001-SUBJ0001,23,TEMP,Temperature,36.4,C,36.4,36.4,C,,WEEK 4,5,2025-06-03,28
STUDY001,VS,STUDY001-SUBJ0001,24,BP,Blood Pressure,103/96,mmHg,103/96,,mmHg,,WEEK 4,5,2025-06-03,28
STUDY001,VS,STUDY001-SUBJ0001,25,HR,Heart Rate,85,beats/min,85,85.0,beats/min,,WEEK 4,5,2025-06-03,28
STUDY001,VS,STUDY001-SUBJ0001,26,HEIGHT,Height,164.1,cm,164.1,164.1,cm,,WEEK 8,6,2025-07-01,56
STUDY001,VS,STUDY001-SUBJ0001,27,WEIGHT,Weight,77.0,kg,77.0,77.0,kg,,WEEK 8,6,2025-07-01,56
STUDY001,VS,STUDY001-SUBJ0001,28,TEMP,Temperature,36.7,C,36.7,36.7,C,,WEEK 8,6,2025-07-01,56
STUDY001,VS,STUDY001-SUBJ0001,29,BP,Blood Pressure,109/91,mmHg,109/91,,mmHg,,WEEK 8,6,2025-07-01,56
STUDY001,VS,STUDY001-SUBJ0001,30,HR,Heart Rate,86,beats/min,86,86.0,beats/min,,WEEK 8,6,2025-07-01,56
STUDY001,VS,STUDY001-SUBJ0001,31,HEIGHT,Height,164.1,cm,164.1,164.1,cm,,WEEK 12,7,2025-07-29,84
STUDY001,VS,STUDY001-SUBJ0001,32,WEIGHT,Weight,78.0,kg,78.0,78.0,kg,,WEEK 12,7,2025-07-29,84
STUDY001,VS,STUDY001-SUBJ0001,33,TEMP,Temperature,36.6,C,36.6,36.6,C,,WEEK 12,7,2025-07-29,84
STUDY001,VS,STUDY001-SUBJ0001,34,BP,Blood Pressure,108/93,mmHg,108/93,,mmHg,,WEEK 12,7,2025-07-29,84
STUDY001,VS,STUDY001-SUBJ0001,35,HR,Heart Rate,85,beats/min,85,85.0,beats/min,,WEEK 12,7,2025-07-29,84
STUDY001,VS,STUDY001-SUBJ0001,36,HEIGHT,Height,164.3,cm,164.3,164.3,cm,,WEEK 16,8,2025-08-26,112
STUDY001,VS,STUDY001-SUBJ0001,37,WEIGHT,Weight,77.8,kg,77.8,77.8,kg,,WEEK 16,8,2025-08-26,112
STUDY001,VS,STUDY001-SUBJ0001,38,TEMP,Temperature,36.8,C,36.8,36.8,C,,WEEK 16,8,2025-08-26,112
STUDY001,VS,STUDY001-SUBJ0001,39,BP,Blood Pressure,105/96,mmHg,105/96,,mmHg,,WEEK 16,8,2025-08-26,112
STUDY001,VS,STUDY001-SUBJ0001,40,HR,Heart Rate,86,beats/min,86,86.0,beats/min,,WEEK 16,8,2025-08-26,112
STUDY001,VS,STUDY001-SUBJ0001,41,HEIGHT,Height,164.0,cm,164.0,164.0,cm,,END OF TREATMENT,9,2025-09-23,140
STUDY001,VS,STUDY001-SUBJ0001,42,WEIGHT,Weight,77.8,kg,77.8,77.8,kg,,END OF TREATMENT,9,2025-09-23,140
STUDY001,VS,STUDY001-SUBJ0001,43,TEMP,Temperature,36.7,C,36.7,36.7,C,,END OF TREATMENT,9,2025-09-23,140
STUDY001,VS,STUDY001-SUBJ0001,44,BP,Blood Pressure,105/94,mmHg,105/94,,mmHg,,END OF TREATMENT,9,2025-09-23,140
STUDY001,VS,STUDY001-SUBJ0001,45,HR,Heart Rate,87,beats/min,87,87.0,beats/min,,END OF TREATMENT,9,2025-09-23,140
STUDY001,VS,STUDY001-SUBJ0002,1,HEIGHT,Height,169.7,cm,169.7,169.7,cm,,SCREENING,1,2025-06-13,-14
STUDY001,VS,STUDY001-SUBJ0002,2,WEIGHT,Weight,88.5,kg,88.5,88.5,kg,,SCREENING,1,2025-06-13,-14
STUDY001,VS,STUDY001-SUBJ0002,3,TEMP,Temperature,36.1,C,36.1,36.1,C,,SCREENING,1,2025-06-13,-14
STUDY001,VS,STUDY001-SUBJ0002,4,BP,Blood Pressure,123/87,mmHg,123/87,,mmHg,,SCREENING,1,2025-06-13,-14
STUDY001,VS,STUDY001-SUBJ0002,5,HR,Heart Rate,69,beats/min,69,69.0,beats/min,,SCREENING,1,2025-06-13,-14
STUDY001,VS,STUDY001-SUBJ0002,6,HEIGHT,Height,169.9,cm,169.9,169.9,cm,Y,BASELINE,2,2025-06-27,1
STUDY001,VS,STUDY001-SUBJ0002,7,WEIGHT,Weight,88.0,kg,88.0,88.0,kg,Y,BASELINE,2,2025-06-27,1
STUDY001,VS,STUDY001-SUBJ0002,8,TEMP,Temperature,36.2,C,36.2,36.2,C,Y,BASELINE,2,2025-06-27,1
STUDY001,VS,STUDY001-SUBJ0002,9,BP,Blood Pressure,126/81,mmHg,126/81,,mmHg,Y,BASELINE,2,2025-06-27,1
STUDY001,VS,STUDY001-SUBJ0002,10,HR,Heart Rate,70,beats/min,70,70.0,beats/min,Y,BASELINE,2,2025-06-27,1
STUDY001,VS,STUDY001-SUBJ0002,11,HEIGHT,Height,169.8,cm,169.8,169.8,cm,,WEEK 1,3,2025-07-03,7
STUDY001,VS,STUDY001-SUBJ0002,12,WEIGHT,Weight,88.2,kg,88.2,88.2,kg,,WEEK 1,3,2025-07-03,7
STUDY001,VS,STUDY001-SUBJ0002,13,TEMP,Temperature,36.6,C,36.6,36.6,C,,WEEK 1,3,2025-07-03,7
STUDY001,VS,STUDY001-SUBJ0002,14,BP,Blood Pressure,124/84,mmHg,124/84,,mmHg,,WEEK 1,3,2025-07-03,7
STUDY001,VS,STUDY001-SUBJ0002,15,HR,Heart Rate,76,beats/min,76,76.0,beats/min,,WEEK 1,3,2025-07-03,7
STUDY001,VS,STUDY001-SUBJ0002,16,HEIGHT,Height,169.7,cm,169.7,169.7,cm,,WEEK 2,4,2025-07-10,14
STUDY001,VS,STUDY001-SUBJ0002,17,WEIGHT,Weight,88.4,kg,88.4,88.4,kg,,WEEK 2,4,2025-07-10,14
STUDY001,VS,STUDY001-SUBJ0002,18,TEMP,Temperature,36.2,C,36.2,36.2,C,,WEEK 2,4,2025-07-10,14
STUDY001,VS,STUDY001-SUBJ0002,19,BP,Blood Pressure,117/83,mmHg,117/83,,mmHg,,WEEK 2,4,2025-07-10,14
STUDY001,VS,STUDY001-SUBJ0002,20,HR,Heart Rate,71,beats/min,71,71.0,beats/min,,WEEK 2,4,2025-07-10,14
STUDY001,VS,STUDY001-SUBJ0002,21,HEIGHT,Height,169.7,cm,169.7,169.7,cm,,WEEK 4,5,2025-07-24,28
STUDY001,VS,STUDY001-SUBJ0002,22,WEIGHT,Weight,88.5,kg,88.5,88.5,kg,,WEEK 4,5,2025-07-24,28
STUDY001,VS,STUDY001-SUBJ0002,23,TEMP,Temperature,36.6,C,36.6,36.6,C,,WEEK 4,5,2025-07-24,28
STUDY001,VS,STUDY001-SUBJ0002,24,BP,Blood Pressure,117/87,mmHg,117/87,,mmHg,,WEEK 4,5,2025-07-24,28
STUDY001,VS,STUDY001-SUBJ0002,25,HR,Heart Rate,75,beats/min,75,75.0,beats/min,,WEEK 4,5,2025-07-24,28
STUDY001,VS,STUDY001-SUBJ0002,26,HEIGHT,Height,169.6,cm,169.6,169.6,cm,,WEEK 8,6,2025-08-21,56
STUDY001,VS,STUDY001-SUBJ0002,27,WEIGHT,Weight,88.0,kg,88.0,88.0,kg,,WEEK 8,6,2025-08-21,56
STUDY001,VS,STUDY001-SUBJ0002,28,TEMP,Temperature,36.5,C,36.5,36.5,C,,WEEK 8,6,2025-08-21,56
STUDY001,VS,STUDY001-SUBJ0002,29,BP,Blood Pressure,122/84,mmHg,122/84,,mmHg,,WEEK 8,6,2025-08-21,56
STUDY001,VS,STUDY001-SUBJ0002,30,HR,Heart Rate,77,beats/min,77,77.0,beats/min,,WEEK 8,6,2025-08-21,56
STUDY001,VS,STUDY001-SUBJ0002,31,HEIGHT,Height,169.7,cm,169.7,169.7,cm,,WEEK 12,7,2025-09-18,84
STUDY001,VS,STUDY001-SUBJ0002,32,WEIGHT,Weight,88.7,kg,88.7,88.7,kg,,WEEK 12,7,2025-09-18,84
STUDY001,VS,STUDY001-SUBJ0002,33,TEMP,Temperature,36.2,C,36.2,36.2,C,,WEEK 12,7,2025-09-18,84
STUDY001,VS,STUDY001-SUBJ0002,34,BP,Blood Pressure,121/82,mmHg,121/82,,mmHg,,WEEK 12,7,2025-09-18,84
STUDY001,VS,STUDY001-SUBJ0002,35,HR,Heart Rate,74,beats/min,74,74.0,beats/min,,WEEK 12,7,2025-09-18,84
STUDY001,VS,STUDY001-SUBJ0002,36,HEIGHT,Height,169.7,cm,169.7,169.7,cm,,WEEK 16,8,2025-10-16,112
STUDY001,VS,STUDY001-SUBJ0002,37,WEIGHT,Weight,88.6,kg,88.6,88.6,kg,,WEEK 16,8,2025-10-16,112
STUDY001,VS,STUDY001-SUBJ0002,38,TEMP,Temperature,36.3,C,36.3,36.3,C,,WEEK 16,8,2025-10-16,112
STUDY001,VS,STUDY001-SUBJ0002,39,BP,Blood Pressure,121/89,mmHg,121/89,,mmHg,,WEEK 16,8,2025-10-16,112
STUDY001,VS,STUDY001-SUBJ0002,40,HR,Heart Rate,74,beats/min,74,74.0,beats/min,,WEEK 16,8,2025-10-16,112
STUDY001,VS,STUDY001-SUBJ0002,41,HEIGHT,Height,169.8,cm,169.8,169.8,cm,,END OF TREATMENT,9,2025-11-13,140
STUDY001,VS,STUDY001-SUBJ0002,42,WEIGHT,Weight,87.9,kg,87.9,87.9,kg,,END OF TREATMENT,9,2025-11-13,140
STUDY001,VS,STUDY001-SUBJ0002,43,TEMP,Temperature,36.6,C,36.6,36.6,C,,END OF TREATMENT,9,2025-11-13,140
STUDY001,VS,STUDY001-SUBJ0002,44,BP,Blood Pressure,123/90,mmHg,123/90,,mmHg,,END OF TREATMENT,9,2025-11-13,140
STUDY001,VS,STUDY001-SUBJ0002,45,HR,Heart Rate,78,beats/min,78,78.0,beats/min,,END OF TREATMENT,9,2025-11-13,140
STUDY001,VS,STUDY001-SUBJ0003,1,HEIGHT,Height,150.3,cm,150.3,150.3,cm,,SCREENING,1,2025-06-16,-14
STUDY001,VS,STUDY001-SUBJ0003,2,WEIGHT,Weight,68.3,kg,68.3,68.3,kg,,SCREENING,1,2025-06-16,-14
STUDY001,VS,STUDY001-SUBJ0003,3,TEMP,Temperature,36.0,C,36.0,36.0,C,,SCREENING,1,2025-06-16,-14
STUDY001,VS,STUDY001-SUBJ0003,4,BP,Blood Pressure,137/79,mmHg,137/79,,mmHg,,SCREENING,1,2025-06-16,-14
STUDY001,VS,STUDY001-SUBJ0003,5,HR,Heart Rate,84,beats/min,84,84.0,beats/min,,SCREENING,1,2025-06-16,-14
STUDY001,VS,STUDY001-SUBJ0003,6,HEIGHT,Height,150.4,cm,150.4,150.4,cm,Y,BASELINE,2,2025-06-30,1
STUDY001,VS,STUDY001-SUBJ0003,7,WEIGHT,Weight,69.8,kg,69.8,69.8,kg,Y,BASELINE,2,2025-06-30,1
STUDY001,VS,STUDY001-SUBJ0003,8,TEMP,Temperature,35.9,C,35.9,35.9,C,Y,BASELINE,2,2025-06-30,1
STUDY001,VS,STUDY001-SUBJ0003,9,BP,Blood Pressure,145/81,mmHg,145/81,,mmHg,Y,BASELINE,2,2025-06-30,1
STUDY001,VS,STUDY001-SUBJ0003,10,HR,Heart Rate,86,beats/min,86,86.0,beats/min,Y,BASELINE,2,2025-06-30,1
STUDY001,VS,STUDY001-SUBJ0003,11,HEIGHT,Height,150.3,cm,150.3,150.3,cm,,WEEK 1,3,2025-07-06,7
STUDY001,VS,STUDY001-SUBJ0003,12,WEIGHT,Weight,68.6,kg,68.6,68.6,kg,,WEEK 1,3,2025-07-06,7
STUDY001,VS,STUDY001-SUBJ0003,13,TEMP,Temperature,36.3,C,36.3,36.3,C,,WEEK 1,3,2025-07-06,7
STUDY001,VS,STUDY001-SUBJ0003,14,BP,Blood Pressure,139/79,mmHg,139/79,,mmHg,,WEEK 1,3,2025-07-06,7
STUDY001,VS,STUDY001-SUBJ0003,15,HR,Heart Rate,80,beats/min,80,80.0,beats/min,,WEEK 1,3,2025-07-06,7
STUDY001,VS,STUDY001-SUBJ0003,16,HEIGHT,Height,150.4,cm,150.4,150.4,cm,,WEEK 2,4,2025-07-13,14
STUDY001,VS,STUDY001-SUBJ0003,17,WEIGHT,Weight,70.0,kg,70.0,70.0,kg,,WEEK 2,4,2025-07-13,14
STUDY001,VS,STUDY001-SUBJ0003,18,TEMP,Temperature,36.1,C,36.1,36.1,C,,WEEK 2,4,2025-07-13,14
STUDY001,VS,STUDY001-SUBJ0003,19,BP,Blood Pressure,137/76,mmHg,137/76,,mmHg,,WEEK 2,4,2025-07-13,14
STUDY001,VS,STUDY001-SUBJ0003,20,HR,Heart Rate,87,beats/min,87,87.0,beats/min,,WEEK 2,4,2025-07-13,14
STUDY001,VS,STUDY001-SUBJ0003,21,HEIGHT,Height,150.4,cm,150.4,150.4,cm,,WEEK 4,5,2025-07-27,28
STUDY001,VS,STUDY001-SUBJ0003,22,WEIGHT,Weight,69.2,kg,69.2,69.2,kg,,WEEK 4,5,2025-07-27,28
STUDY001,VS,STUDY001-SUBJ0003,23,TEMP,Temperature,36.1,C,36.1,36.1,C,,WEEK 4,5,2025-07-27,28
STUDY001,VS,STUDY001-SUBJ0003,24,BP,Blood Pressure,138/72,mmHg,138/72,,mmHg,,WEEK 4,5,2025-07-27,28
STUDY001,VS,STUDY001-SUBJ0003,25,HR,Heart Rate,88,beats/min,88,88.0,beats/min,,WEEK 4,5,2025-07-27,28
STUDY001,VS,STUDY001-SUBJ0003,26,HEIGHT,Height,150.3,cm,150.3,150.3,cm,,WEEK 8,6,2025-08-24,56
STUDY001,VS,STUDY001-SUBJ0003,27,WEIGHT,Weight,70.0,kg,70.0,70.0,kg,,WEEK 8,6,2025-08-24,56
STUDY001,VS,STUDY001-SUBJ0003,28,TEMP,Temperature,36.4,C,36.4,36.4,C,,WEEK 8,6,2025-08-24,56
STUDY001,VS,STUDY001-SUBJ0003,29,BP,Blood Pressure,146/78,mmHg,146/78,,mmHg,,WEEK 8,6,2025-08-24,56
STUDY001,VS,STUDY001-SUBJ0003,30,HR,Heart Rate,82,beats/min,82,82.0,beats/min,,WEEK 8,6,2025-08-24,56
STUDY001,VS,STUDY001-SUBJ0003,31,HEIGHT,Height,150.1,cm,150.1,150.1,cm,,WEEK 12,7,2025-09-21,84
STUDY001,VS,STUDY001-SUBJ0003,32,WEIGHT,Weight,70.2,kg,70.2,70.2,kg,,WEEK 12,7,2025-09-21,84
STUDY001,VS,STUDY001-SUBJ0003,33,TEMP,Temperature,36.0,C,36.0,36.0,C,,WEEK 12,7,2025-09-21,84
STUDY001,VS,STUDY001-SUBJ0003,34,BP,Blood Pressure,138/79,mmHg,138/79,,mmHg,,WEEK 12,7,2025-09-21,84
STUDY001,VS,STUDY001-SUBJ0003,35,HR,Heart Rate,86,beats/min,86,86.0,beats/min,,WEEK 12,7,2025-09-21,84
STUDY001,VS,STUDY001-SUBJ0003,36,HEIGHT,Height,150.2,cm,150.2,150.2,cm,,WEEK 16,8,2025-10-19,112
STUDY001,VS,STUDY001-SUBJ0003,37,WEIGHT,Weight,69.7,kg,69.7,69.7,kg,,WEEK 16,8,2025-10-19,112
STUDY001,VS,STUDY001-SUBJ0003,38,TEMP,Temperature,36.4,C,36.4,36.4,C,,WEEK 16,8,2025-10-19,112
STUDY001,VS,STUDY001-SUBJ0003,39,BP,Blood Pressure,141/80,mmHg,141/80,,mmHg,,WEEK 16,8,2025-10-19,112
STUDY001,VS,STUDY001-SUBJ0003,40,HR,Heart Rate,79,beats/min,79,79.0,beats/min,,WEEK 16,8,2025-10-19,112
STUDY001,VS,STUDY001-SUBJ0003,41,HEIGHT,Height,150.4,cm,150.4,150.4,cm,,END OF TREATMENT,9,2025-11-16,140
STUDY001,VS,STUDY001-SUBJ0003,42,WEIGHT,Weight,68.3,kg,68.3,68.3,kg,,END OF TREATMENT,9,2025-11-16,140
STUDY001,VS,STUDY001-SUBJ0003,43,TEMP,Temperature,36.4,C,36.4,36.4,C,,END OF TREATMENT,9,2025-11-16,140
STUDY001,VS,STUDY001-SUBJ0003,44,BP,Blood Pressure,144/78,mmHg,144/78,,mmHg,,END OF TREATMENT,9,2025-11-16,140
STUDY001,VS,STUDY001-SUBJ0003,45,HR,Heart Rate,82,beats/min,82,82.0,beats/min,,END OF TREATMENT,9,2025-11-16,140
STUDY001,VS,STUDY001-SUBJ0004,1,HEIGHT,Height,171.6,cm,171.6,171.6,cm,,SCREENING,1,2024-08-10,-14
STUDY001,VS,STUDY001-SUBJ0004,2,WEIGHT,Weight,66.3,kg,66.3,66.3,kg,,SCREENING,1,2024-08-10,-14
STUDY001,VS,STUDY001-SUBJ0004,3,TEMP,Temperature,36.5,C,36.5,36.5,C,,SCREENING,1,2024-08-10,-14
STUDY001,VS,STUDY001-SUBJ0004,4,BP,Blood Pressure,121/72,mmHg,121/72,,mmHg,,SCREENING,1,2024-08-10,-14
STUDY001,VS,STUDY001-SUBJ0004,5,HR,Heart Rate,69,beats/min,69,69.0,beats/min,,SCREENING,1,2024-08-10,-14
STUDY001,VS,STUDY001-SUBJ0004,6,HEIGHT,Height,171.5,cm,171.5,171.5,cm,Y,BASELINE,2,2024-08-24,1
STUDY001,VS,STUDY001-SUBJ0004,7,WEIGHT,Weight,65.9,kg,65.9,65.9,kg,Y,BASELINE,2,2024-08-24,1
STUDY001,VS,STUDY001-SUBJ0004,8,TEMP,Temperature,36.8,C,36.8,36.8,C,Y,BASELINE,2,2024-08-24,1
STUDY001,VS,STUDY001-SUBJ0004,9,BP,Blood Pressure,130/70,mmHg,130/70,,mmHg,Y,BASELINE,2,2024-08-24,1
STUDY001,VS,STUDY001-SUBJ0004,10,HR,Heart Rate,69,beats/min,69,69.0,beats/min,Y,BASELINE,2,2024-08-24,1
STUDY001,VS,STUDY001-SUBJ0004,11,HEIGHT,Height,171.7,cm,171.7,171.7,cm,,WEEK 1,3,2024-08-30,7
STUDY001,VS,STUDY001-SUBJ0004,12,WEIGHT,Weight,65.4,kg,65.4,65.4,kg,,WEEK 1,3,2024-08-30,7
STUDY001,VS,STUDY001-SUBJ0004,13,TEMP,Temperature,36.7,C,36.7,36.7,C,,WEEK 1,3,2024-08-30,7
STUDY001,VS,STUDY001-SUBJ0004,14,BP,Blood Pressure,130/75,mmHg,130/75,,mmHg,,WEEK 1,3,2024-08-30,7
STUDY001,VS,STUDY001-SUBJ0004,15,HR,Heart Rate,67,beats/min,67,67.0,beats/min,,WEEK 1,3,2024-08-30,7
STUDY001,VS,STUDY001-SUBJ0004,16,HEIGHT,Height,171.6,cm,171.6,171.6,cm,,WEEK 2,4,2024-09-06,14
STUDY001,VS,STUDY001-SUBJ0004,17,WEIGHT,Weight,66.3,kg,66.3,66.3,kg,,WEEK 2,4,2024-09-06,14
STUDY001,VS,STUDY001-SUBJ0004,18,TEMP,Temperature,36.8,C,36.8,36.8,C,,WEEK 2,4,2024-09-06,14
STUDY001,VS,STUDY001-SUBJ0004,19,BP,Blood Pressure,120/67,mmHg,120/67,,mmHg,,WEEK 2,4,2024-09-06,14
STUDY001,VS,STUDY001-SUBJ0004,20,HR,Heart Rate,64,beats/min,64,64.0,beats/min,,WEEK 2,4,2024-09-06,14
STUDY001,VS,STUDY001-SUBJ0004,21,HEIGHT,Height,171.7,cm,171.7,171.7,cm,,WEEK 4,5,2024-09-20,28
STUDY001,VS,STUDY001-SUBJ0004,22,WEIGHT,Weight,66.6,kg,66.6,66.6,kg,,WEEK 4,5,2024-09-20,28
STUDY001,VS,STUDY001-SUBJ0004,23,TEMP,Temperature,36.4,C,36.4,36.4,C,,WEEK 4,5,2024-09-20,28
STUDY001,VS,STUDY001-SUBJ0004,24,BP,Blood Pressure,127/77,mmHg,127/77,,mmHg,,WEEK 4,5,2024-09-20,28
STUDY001,VS,STUDY001-SUBJ0004,25,HR,Heart Rate,69,beats/min,69,69.0,beats/min,,WEEK 4,5,2024-09-20,28
STUDY001,VS,STUDY001-SUBJ0004,26,HEIGHT,Height,171.4,cm,171.4,171.4,cm,,WEEK 8,6,2024-10-18,56
STUDY001,VS,STUDY001-SUBJ0004,27,WEIGHT,Weight,66.0,kg,66.0,66.0,kg,,WEEK 8,6,2024-10-18,56
STUDY001,VS,STUDY001-SUBJ0004,28,TEMP,Temperature,36.4,C,36.4,36.4,C,,WEEK 8,6,2024-10-18,56
STUDY001,VS,STUDY001-SUBJ0004,29,BP,Blood Pressure,129/76,mmHg,129/76,,mmHg,,WEEK 8,6,2024-10-18,56
STUDY001,VS,STUDY001-SUBJ0004,30,HR,Heart Rate,62,beats/min,62,62.0,beats/min,,WEEK 8,6,2024-10-18,56
STUDY001,VS,STUDY001-SUBJ0004,31,HEIGHT,Height,171.5,cm,171.5,171.5,cm,,WEEK 12,7,2024-11-15,84
STUDY001,VS,STUDY001-SUBJ0004,32,WEIGHT,Weight,64.8,kg,64.8,64.8,kg,,WEEK 12,7,2024-11-15,84
STUDY001,VS,STUDY001-SUBJ0004,33,TEMP,Temperature,36.4,C,36.4,36.4,C,,WEEK 12,7,2024-11-15,84
STUDY001,VS,STUDY001-SUBJ0004,34,BP,Blood Pressure,122/77,mmHg,122/77,,mmHg,,WEEK 12,7,2024-11-15,84
STUDY001,VS,STUDY001-SUBJ0004,35,HR,Heart Rate,63,beats/min,63,63.0,beats/min,,WEEK 12,7,2024-11-15,84
STUDY001,VS,STUDY001-SUBJ0004,36,HEIGHT,Height,171.7,cm,171.7,171.7,cm,,WEEK 16,8,2024-12-13,112
STUDY001,VS,STUDY001-SUBJ0004,37,WEIGHT,Weight,65.7,kg,65.7,65.7,kg,,WEEK 16,8,2024-12-13,112
STUDY001,VS,STUDY001-SUBJ0004,38,TEMP,Temperature,36.5,C,36.5,36.5,C,,WEEK 16,8,2024-12-13,112
STUDY001,VS,STUDY001-SUBJ0004,39,BP,Blood Pressure,121/70,mmHg,121/70,,mmHg,,WEEK 16,8,2024-12-13,112
STUDY001,VS,STUDY001-SUBJ0004,40,HR,Heart Rate,65,beats/min,65,65.0,beats/min,,WEEK 16,8,2024-12-13,112
STUDY001,VS,STUDY001-SUBJ0004,41,HEIGHT,Height,171.5,cm,171.5,171.5,cm,,END OF TREATMENT,9,2025-01-10,140
STUDY001,VS,STUDY001-SUBJ0004,42,WEIGHT,Weight,64.8,kg,64.8,64.8,kg,,END OF TREATMENT,9,2025-01-10,140
STUDY001,VS,STUDY001-SUBJ0004,43,TEMP,Temperature,36.7,C,36.7,36.7,C,,END OF TREATMENT,9,2025-01-10,140
STUDY001,VS,STUDY001-SUBJ0004,44,BP,Blood Pressure,127/76,mmHg,127/76,,mmHg,,END OF TREATMENT,9,2025-01-10,140
STUDY001,VS,STUDY001-SUBJ0004,45,HR,Heart Rate,72,beats/min,72,72.0,beats/min,,END OF TREATMENT,9,2025-01-10,140
STUDY001,VS,STUDY001-SUBJ0005,1,HEIGHT,Height,155.4,cm,155.4,155.4,cm,,SCREENING,1,2024-10-31,-14
STUDY001,VS,STUDY001-SUBJ0005,2,WEIGHT,Weight,78.7,kg,78.7,78.7,kg,,SCREENING,1,2024-10-31,-14
STUDY001,VS,STUDY001-SUBJ0005,3,TEMP,Temperature,36.6,C,36.6,36.6,C,,SCREENING,1,2024-10-31,-14
STUDY001,VS,STUDY001-SUBJ0005,4,BP,Blood Pressure,143/73,mmHg,143/73,,mmHg,,SCREENING,1,2024-10-31,-14
STUDY001,VS,STUDY001-SUBJ0005,5,HR,Heart Rate,60,beats/min,60,60.0,beats/min,,SCREENING,1,2024-10-31,-14
STUDY001,VS,STUDY001-SUBJ0005,6,HEIGHT,Height,155.6,cm,155.6,155.6,cm,Y,BASELINE,2,2024-11-14,1
STUDY001,VS,STUDY001-SUBJ0005,7,WEIGHT,Weight,78.3,kg,78.3,78.3,kg,Y,BASELINE,2,2024-11-14,1
STUDY001,VS,STUDY001-SUBJ0005,8,TEMP,Temperature,36.8,C,36.8,36.8,C,Y,BASELINE,2,2024-11-14,1
STUDY001,VS,STUDY001-SUBJ0005,9,BP,Blood Pressure,148/74,mmHg,148/74,,mmHg,Y,BASELINE,2,2024-11-14,1
STUDY001,VS,STUDY001-SUBJ0005,10,HR,Heart Rate,61,beats/min,61,61.0,beats/min,Y,BASELINE,2,2024-11-14,1
STUDY001,VS,STUDY001-SUBJ0005,11,HEIGHT,Height,155.4,cm,155.4,155.4,cm,,WEEK 1,3,2024-11-20,7
STUDY001,VS,STUDY001-SUBJ0005,12,WEIGHT,Weight,78.8,kg,78.8,78.8,kg,,WEEK 1,3,2024-11-20,7
STUDY001,VS,STUDY001-SUBJ0005,13,TEMP,Temperature,36.4,C,36.4,36.4,C,,WEEK 1,3,2024-11-20,7
STUDY001,VS,STUDY001-SUBJ0005,14,BP,Blood Pressure,138/77,mmHg,138/77,,mmHg,,WEEK 1,3,2024-11-20,7
STUDY001,VS,STUDY001-SUBJ0005,15,HR,Heart Rate,69,beats/min,69,69.0,beats/min,,WEEK 1,3,2024-11-20,7
STUDY001,VS,STUDY001-SUBJ0005,16,HEIGHT,Height,155.6,cm,155.6,155.6,cm,,WEEK 2,4,2024-11-27,14
STUDY001,VS,STUDY001-SUBJ0005,17,WEIGHT,Weight,79.8,kg,79.8,79.8,kg,,WEEK 2,4,2024-11-27,14
STUDY001,VS,STUDY001-SUBJ0005,18,TEMP,Temperature,36.5,C,36.5,36.5,C,,WEEK 2,4,2024-11-27,14
STUDY001,VS,STUDY001-SUBJ0005,19,BP,Blood Pressure,140/78,mmHg,140/78,,mmHg,,WEEK 2,4,2024-11-27,14
STUDY001,VS,STUDY001-SUBJ0005,20,HR,Heart Rate,67,beats/min,67,67.0,beats/min,,WEEK 2,4,2024-11-27,14
STUDY001,VS,STUDY001-SUBJ0005,21,HEIGHT,Height,155.3,cm,155.3,155.3,cm,,WEEK 4,5,2024-12-11,28
STUDY001,VS,STUDY001-SUBJ0005,22,WEIGHT,Weight,78.9,kg,78.9,78.9,kg,,WEEK 4,5,2024-12-11,28
STUDY001,VS,STUDY001-SUBJ0005,23,TEMP,Temperature,36.8,C,36.8,36.8,C,,WEEK 4,5,2024-12-11,28
STUDY001,VS,STUDY001-SUBJ0005,24,BP,Blood Pressure,145/78,mmHg,145/78,,mmHg,,WEEK 4,5,2024-12-11,28
STUDY001,VS,STUDY001-SUBJ0005,25,HR,Heart Rate,68,beats/min,68,68.0,beats/min,,WEEK 4,5,2024-12-11,28
STUDY001,VS,STUDY001-SUBJ0005,26,HEIGHT,Height,155.5,cm,155.5,155.5,cm,,WEEK 8,6,2025-01-08,56
STUDY001,VS,STUDY001-SUBJ0005,27,WEIGHT,Weight,78.9,kg,78.9,78.9,kg,,WEEK 8,6,2025-01-08,56
STUDY001,VS,STUDY001-SUBJ0005,28,TEMP,Temperature,36.3,C,36.3,36.3,C,,WEEK 8,6,2025-01-08,56
STUDY001,VS,STUDY001-SUBJ0005,29,BP,Blood Pressure,138/81,mmHg,138/81,,mmHg,,WEEK 8,6,2025-01-08,56
STUDY001,VS,STUDY001-SUBJ0005,30,HR,Heart Rate,68,beats/min,68,68.0,beats/min,,WEEK 8,6,2025-01-08,56
STUDY001,VS,STUDY001-SUBJ0005,31,HEIGHT,Height,155.2,cm,155.2,155.2,cm,,WEEK 12,7,2025-02-05,84
STUDY001,VS,STUDY001-SUBJ0005,32,WEIGHT,Weight,78.5,kg,78.5,78.5,kg,,WEEK 12,7,2025-02-05,84
STUDY001,VS,STUDY001-SUBJ0005,33,TEMP,Temperature,36.8,C,36.8,36.8,C,,WEEK 12,7,2025-02-05,84
STUDY001,VS,STUDY001-SUBJ0005,34,BP,Blood Pressure,147/72,mmHg,147/72,,mmHg,,WEEK 12,7,2025-02-05,84
STUDY001,VS,STUDY001-SUBJ0005,35,HR,Heart Rate,62,beats/min,62,62.0,beats/min,,WEEK 12,7,2025-02-05,84
STUDY001,VS,STUDY001-SUBJ0005,36,HEIGHT,Height,155.3,cm,155.3,155.3,cm,,WEEK 16,8,2025-03-05,112
STUDY001,VS,STUDY001-SUBJ0005,37,WEIGHT,Weight,79.0,kg,79.0,79.0,kg,,WEEK 16,8,2025-03-05,112
STUDY001,VS,STUDY001-SUBJ0005,38,TEMP,Temperature,36.8,C,36.8,36.8,C,,WEEK 16,8,2025-03-05,112
STUDY001,VS,STUDY001-SUBJ0005,39,BP,Blood Pressure,144/76,mmHg,144/76,,mmHg,,WEEK 16,8,2025-03-05,112
STUDY001,VS,STUDY001-SUBJ0005,40,HR,Heart Rate,61,beats/min,61,61.0,beats/min,,WEEK 16,8,2025-03-05,112
STUDY001,VS,STUDY001-SUBJ0005,41,HEIGHT,Height,155.5,cm,155.5,155.5,cm,,END OF TREATMENT,9,2025-04-02,140
STUDY001,VS,STUDY001-SUBJ0005,42,WEIGHT,Weight,79.5,kg,79.5,79.5,kg,,END OF TREATMENT,9,2025-04-02,140
STUDY001,VS,STUDY001-SUBJ0005,43,TEMP,Temperature,36.6,C,36.6,36.6,C,,END OF TREATMENT,9,2025-04-02,140
STUDY001,VS,STUDY001-SUBJ0005,44,BP,Blood Pressure,139/74,mmHg,139/74,,mmHg,,END OF TREATMENT,9,2025-04-02,140
STUDY001,VS,STUDY001-SUBJ0005,45,HR,Heart Rate,61,beats/min,61,61.0,beats/min,,END OF TREATMENT,9,2025-04-02,140
STUDY001,VS,STUDY001-SUBJ0006,1,HEIGHT,Height,158.5,cm,158.5,158.5,cm,,SCREENING,1,2024-11-25,-14
STUDY001,VS,STUDY001-SUBJ0006,2,WEIGHT,Weight,61.3,kg,61.3,61.3,kg,,SCREENING,1,2024-11-25,-14
STUDY001,VS,STUDY001-SUBJ0006,3,TEMP,Temperature,36.9,C,36.9,36.9,C,,SCREENING,1,2024-11-25,-14
STUDY001,VS,STUDY001-SUBJ0006,4,BP,Blood Pressure,120/74,mmHg,120/74,,mmHg,,SCREENING,1,2024-11-25,-14
STUDY001,VS,STUDY001-SUBJ0006,5,HR,Heart Rate,70,beats/min,70,70.0,beats/min,,SCREENING,1,2024-11-25,-14
STUDY001,VS,STUDY001-SUBJ0006,6,HEIGHT,Height,158.5,cm,158.5,158.5,cm,Y,BASELINE,2,2024-12-09,1
STUDY001,VS,STUDY001-SUBJ0006,7,WEIGHT,Weight,60.4,kg,60.4,60.4,kg,Y,BASELINE,2,2024-12-09,1
STUDY001,VS,STUDY001-SUBJ0006,8,TEMP,Temperature,36.8,C,36.8,36.8,C,Y,BASELINE,2,2024-12-09,1
STUDY001,VS,STUDY001-SUBJ0006,9,BP,Blood Pressure,116/72,mmHg,116/72,,mmHg,Y,BASELINE,2,2024-12-09,1
STUDY001,VS,STUDY001-SUBJ0006,10,HR,Heart Rate,69,beats/min,69,69.0,beats/min,Y,BASELINE,2,2024-12-09,1
STUDY001,VS,STUDY001-SUBJ0006,11,HEIGHT,Height,158.6,cm,158.6,158.6,cm,,WEEK 1,3,2024-12-15,7
STUDY001,VS,STUDY001-SUBJ0006,12,WEIGHT,Weight,61.6,kg,61.6,61.6,kg,,WEEK 1,3,2024-12-15,7
STUDY001,VS,STUDY001-SUBJ0006,13,TEMP,Temperature,36.9,C,36.9,36.9,C,,WEEK 1,3,2024-12-15,7
STUDY001,VS,STUDY001-SUBJ0006,14,BP,Blood Pressure,121/73,mmHg,121/73,,mmHg,,WEEK 1,3,2024-12-15,7
STUDY001,VS,STUDY001-SUBJ0006,15,HR,Heart Rate,68,beats/min,68,68.0,beats/min,,WEEK 1,3,2024-12-15,7
STUDY001,VS,STUDY001-SUBJ0006,16,HEIGHT,Height,158.4,cm,158.4,158.4,cm,,WEEK 2,4,2024-12-22,14
STUDY001,VS,STUDY001-SUBJ0006,17,WEIGHT,Weight,61.6,kg,61.6,61.6,kg,,WEEK 2,4,2024-12-22,14
STUDY001,VS,STUDY001-SUBJ0006,18,TEMP,Temperature,36.8,C,36.8,36.8,C,,WEEK 2,4,2024-12-22,14
STUDY001,VS,STUDY001-SUBJ0006,19,BP,Blood Pressure,124/66,mmHg,124/66,,mmHg,,WEEK 2,4,2024-12-22,14
STUDY001,VS,STUDY001-SUBJ0006,20,HR,Heart Rate,68,beats/min,68,68.0,beats/min,,WEEK 2,4,2024-12-22,14
STUDY001,VS,STUDY001-SUBJ0006,21,HEIGHT,Height,158.4,cm,158.4,158.4,cm,,WEEK 4,5,2025-01-05,28
STUDY001,VS,STUDY001-SUBJ0006,22,WEIGHT,Weight,61.6,kg,61.6,61.6,kg,,WEEK 4,5,2025-01-05,28
STUDY001,VS,STUDY001-SUBJ0006,23,TEMP,Temperature,36.9,C,36.9,36.9,C,,WEEK 4,5,2025-01-05,28
STUDY001,VS,STUDY001-SUBJ0006,24,BP,Blood Pressure,117/68,mmHg,117/68,,mmHg,,WEEK 4,5,2025-01-05,28
STUDY001,VS,STUDY001-SUBJ0006,25,HR,Heart Rate,67,beats/min,67,67.0,beats/min,,WEEK 4,5,2025-01-05,28
STUDY001,VS,STUDY001-SUBJ0006,26,HEIGHT,Height,158.3,cm,158.3,158.3,cm,,WEEK 8,6,2025-02-02,56
STUDY001,VS,STUDY001-SUBJ0006,27,WEIGHT,Weight,61.5,kg,61.5,61.5,kg,,WEEK 8,6,2025-02-02,56
STUDY001,VS,STUDY001-SUBJ0006,28,TEMP,Temperature,36.8,C,36.8,36.8,C,,WEEK 8,6,2025-02-02,56
STUDY001,VS,STUDY001-SUBJ0006,29,BP,Blood Pressure,125/68,mmHg,125/68,,mmHg,,WEEK 8,6,2025-02-02,56
STUDY001,VS,STUDY001-SUBJ0006,30,HR,Heart Rate,67,beats/min,67,67.0,beats/min,,WEEK 8,6,2025-02-02,56
STUDY001,VS,STUDY001-SUBJ0006,31,HEIGHT,Height,158.5,cm,158.5,158.5,cm,,WEEK 12,7,2025-03-02,84
STUDY001,VS,STUDY001-SUBJ0006,32,WEIGHT,Weight,60.2,kg,60.2,60.2,kg,,WEEK 12,7,2025-03-02,84
STUDY001,VS,STUDY001-SUBJ0006,33,TEMP,Temperature,36.7,C,36.7,36.7,C,,WEEK 12,7,2025-03-02,84
STUDY001,VS,STUDY001-SUBJ0006,34,BP,Blood Pressure,123/65,mmHg,123/65,,mmHg,,WEEK 12,7,2025-03-02,84
STUDY001,VS,STUDY001-SUBJ0006,35,HR,Heart Rate,67,beats/min,67,67.0,beats/min,,WEEK 12,7,2025-03-02,84
STUDY001,VS,STUDY001-SUBJ0006,36,HEIGHT,Height,158.4,cm,158.4,158.4,cm,,WEEK 16,8,2025-03-30,112
STUDY001,VS,STUDY001-SUBJ0006,37,WEIGHT,Weight,61.1,kg,61.1,61.1,kg,,WEEK 16,8,2025-03-30,112
STUDY001,VS,STUDY001-SUBJ0006,38,TEMP,Temperature,36.9,C,36.9,36.9,C,,WEEK 16,8,2025-03-30,112
STUDY001,VS,STUDY001-SUBJ0006,39,BP,Blood Pressure,122/74,mmHg,122/74,,mmHg,,WEEK 16,8,2025-03-30,112
STUDY001,VS,STUDY001-SUBJ0006,40,HR,Heart Rate,70,beats/min,70,70.0,beats/min,,WEEK 16,8,2025-03-30,112
STUDY001,VS,STUDY001-SUBJ0006,41,HEIGHT,Height,158.6,cm,158.6,158.6,cm,,END OF TREATMENT,9,2025-04-27,140
STUDY001,VS,STUDY001-SUBJ0006,42,WEIGHT,Weight,60.5,kg,60.5,60.5,kg,,END OF TREATMENT,9,2025-04-27,140
STUDY001,VS,STUDY001-SUBJ0006,43,TEMP,Temperature,37.0,C,37.0,37.0,C,,END OF TREATMENT,9,2025-04-27,140
STUDY001,VS,STUDY001-SUBJ0006,44,BP,Blood Pressure,121/70,mmHg,121/70,,mmHg,,END OF TREATMENT,9,2025-04-27,140
STUDY001,VS,STUDY001-SUBJ0006,45,HR,Heart Rate,71,beats/min,71,71.0,beats/min,,END OF TREATMENT,9,2025-04-27,140
STUDY001,VS,STUDY001-SUBJ0007,1,HEIGHT,Height,189.8,cm,189.8,189.8,cm,,SCREENING,1,2025-05-09,-14
STUDY001,VS,STUDY001-SUBJ0007,2,WEIGHT,Weight,55.0,kg,55.0,55.0,kg,,SCREENING,1,2025-05-09,-14
STUDY001,VS,STUDY001-SUBJ0007,3,TEMP,Temperature,37.1,C,37.1,37.1,C,,SCREENING,1,2025-05-09,-14
STUDY001,VS,STUDY001-SUBJ0007,4,BP,Blood Pressure,124/96,mmHg,124/96,,mmHg,,SCREENING,1,2025-05-09,-14
STUDY001,VS,STUDY001-SUBJ0007,5,HR,Heart Rate,64,beats/min,64,64.0,beats/min,,SCREENING,1,2025-05-09,-14
STUDY001,VS,STUDY001-SUBJ0007,6,HEIGHT,Height,189.9,cm,189.9,189.9,cm,Y,BASELINE,2,2025-05-23,1
STUDY001,VS,STUDY001-SUBJ0007,7,WEIGHT,Weight,53.8,kg,53.8,53.8,kg,Y,BASELINE,2,2025-05-23,1
STUDY001,VS,STUDY001-SUBJ0007,8,TEMP,Temperature,36.7,C,36.7,36.7,C,Y,BASELINE,2,2025-05-23,1
STUDY001,VS,STUDY001-SUBJ0007,9,BP,Blood Pressure,119/99,mmHg,119/99,,mmHg,Y,BASELINE,2,2025-05-23,1
STUDY001,VS,STUDY001-SUBJ0007,10,HR,Heart Rate,64,beats/min,64,64.0,beats/min,Y,BASELINE,2,2025-05-23,1
STUDY001,VS,STUDY001-SUBJ0007,11,HEIGHT,Height,189.9,cm,189.9,189.9,cm,,WEEK 1,3,2025-05-29,7
STUDY001,VS,STUDY001-SUBJ0007,12,WEIGHT,Weight,54.2,kg,54.2,54.2,kg,,WEEK 1,3,2025-05-29,7
STUDY001,VS,STUDY001-SUBJ0007,13,TEMP,Temperature,37.1,C,37.1,37.1,C,,WEEK 1,3,2025-05-29,7
STUDY001,VS,STUDY001-SUBJ0007,14,BP,Blood Pressure,124/101,mmHg,124/101,,mmHg,,WEEK 1,3,2025-05-29,7
STUDY001,VS,STUDY001-SUBJ0007,15,HR,Heart Rate,66,beats/min,66,66.0,beats/min,,WEEK 1,3,2025-05-29,7
STUDY001,VS,STUDY001-SUBJ0007,16,HEIGHT,Height,189.8,cm,189.8,189.8,cm,,WEEK 2,4,2025-06-05,14
STUDY001,VS,STUDY001-SUBJ0007,17,WEIGHT,Weight,54.1,kg,54.1,54.1,kg,,WEEK 2,4,2025-06-05,14
STUDY001,VS,STUDY001-SUBJ0007,18,TEMP,Temperature,37.1,C,37.1,37.1,C,,WEEK 2,4,2025-06-05,14
STUDY001,VS,STUDY001-SUBJ0007,19,BP,Blood Pressure,127/102,mmHg,127/102,,mmHg,,WEEK 2,4,2025-06-05,14
STUDY001,VS,STUDY001-SUBJ0007,20,HR,Heart Rate,68,beats/min,68,68.0,beats/min,,WEEK 2,4,2025-06-05,14
STUDY001,VS,STUDY001-SUBJ0007,21,HEIGHT,Height,189.9,cm,189.9,189.9,cm,,WEEK 4,5,2025-06-19,28
STUDY001,VS,STUDY001-SUBJ0007,22,WEIGHT,Weight,55.1,kg,55.1,55.1,kg,,WEEK 4,5,2025-06-19,28
STUDY001,VS,STUDY001-SUBJ0007,23,TEMP,Temperature,37.0,C,37.0,37.0,C,,WEEK 4,5,2025-06-19,28
STUDY001,VS,STUDY001-SUBJ0007,24,BP,Blood Pressure,124/94,mmHg,124/94,,mmHg,,WEEK 4,5,2025-06-19,28
STUDY001,VS,STUDY001-SUBJ0007,25,HR,Heart Rate,60,beats/min,60,60.0,beats/min,,WEEK 4,5,2025-06-19,28
STUDY001,VS,STUDY001-SUBJ0007,26,HEIGHT,Height,189.8,cm,189.8,189.8,cm,,WEEK 8,6,2025-07-17,56
STUDY001,VS,STUDY001-SUBJ0007,27,WEIGHT,Weight,54.4,kg,54.4,54.4,kg,,WEEK 8,6,2025-07-17,56
STUDY001,VS,STUDY001-SUBJ0007,28,TEMP,Temperature,37.1,C,37.1,37.1,C,,WEEK 8,6,2025-07-17,56
STUDY001,VS,STUDY001-SUBJ0007,29,BP,Blood Pressure,127/99,mmHg,127/99,,mmHg,,WEEK 8,6,2025-07-17,56
STUDY001,VS,STUDY001-SUBJ0007,30,HR,Heart Rate,66,beats/min,66,66.0,beats/min,,WEEK 8,6,2025-07-17,56
STUDY001,VS,STUDY001-SUBJ0007,31,HEIGHT,Height,189.8,cm,189.8,189.8,cm,,WEEK 12,7,2025-08-14,84
STUDY001,VS,STUDY001-SUBJ0007,32,WEIGHT,Weight,55.5,kg,55.5,55.5,kg,,WEEK 12,7,2025-08-14,84
STUDY001,VS,STUDY001-SUBJ0007,33,TEMP,Temperature,36.6,C,36.6,36.6,C,,WEEK 12,7,2025-08-14,84
STUDY001,VS,STUDY001-SUBJ0007,34,BP,Blood Pressure,127/96,mmHg,127/96,,mmHg,,WEEK 12,7,2025-08-14,84
STUDY001,VS,STUDY001-SUBJ0007,35,HR,Heart Rate,69,beats/min,69,69.0,beats/min,,WEEK 12,7,2025-08-14,84
STUDY001,VS,STUDY001-SUBJ0007,36,HEIGHT,Height,189.8,cm,189.8,189.8,cm,,WEEK 16,8,2025-09-11,112
STUDY001,VS,STUDY001-SUBJ0007,37,WEIGHT,Weight,55.0,kg,55.0,55.0,kg,,WEEK 16,8,2025-09-11,112
STUDY001,VS,STUDY001-SUBJ0007,38,TEMP,Temperature,37.0,C,37.0,37.0,C,,WEEK 16,8,2025-09-11,112
STUDY001,VS,STUDY001-SUBJ0007,39,BP,Blood Pressure,125/96,mmHg,125/96,,mmHg,,WEEK 16,8,2025-09-11,112
STUDY001,VS,STUDY001-SUBJ0007,40,HR,Heart Rate,63,beats/min,63,63.0,beats/min,,WEEK 16,8,2025-09-11,112
STUDY001,VS,STUDY001-SUBJ0007,41,HEIGHT,Height,189.9,cm,189.9,189.9,cm,,END OF TREATMENT,9,2025-10-09,140
STUDY001,VS,STUDY001-SUBJ0007,42,WEIGHT,Weight,54.6,kg,54.6,54.6,kg,,END OF TREATMENT,9,2025-10-09,140
STUDY001,VS,STUDY001-SUBJ0007,43,TEMP,Temperature,36.8,C,36.8,36.8,C,,END OF TREATMENT,9,2025-10-09,140
STUDY001,VS,STUDY001-SUBJ0007,44,BP,Blood Pressure,126/102,mmHg,126/102,,mmHg,,END OF TREATMENT,9,2025-10-09,140
STUDY001,VS,STUDY001-SUBJ0007,45,HR,Heart Rate,65,beats/min,65,65.0,beats/min,,END OF TREATMENT,9,2025-10-09,140
STUDY001,VS,STUDY001-SUBJ0008,1,HEIGHT,Height,176.1,cm,176.1,176.1,cm,,SCREENING,1,2025-02-19,-14
STUDY001,VS,STUDY001-SUBJ0008,2,WEIGHT,Weight,79.6,kg,79.6,79.6,kg,,SCREENING,1,2025-02-19,-14
STUDY001,VS,STUDY001-SUBJ0008,3,TEMP,Temperature,36.7,C,36.7,36.7,C,,SCREENING,1,2025-02-19,-14
STUDY001,VS,STUDY001-SUBJ0008,4,BP,Blood Pressure,98/89,mmHg,98/89,,mmHg,,SCREENING,1,2025-02-19,-14
STUDY001,VS,STUDY001-SUBJ0008,5,HR,Heart Rate,66,beats/min,66,66.0,beats/min,,SCREENING,1,2025-02-19,-14
STUDY001,VS,STUDY001-SUBJ0008,6,HEIGHT,Height,176.2,cm,176.2,176.2,cm,Y,BASELINE,2,2025-03-05,1
STUDY001,VS,STUDY001-SUBJ0008,7,WEIGHT,Weight,79.8,kg,79.8,79.8,kg,Y,BASELINE,2,2025-03-05,1
STUDY001,VS,STUDY001-SUBJ0008,8,TEMP,Temperature,36.4,C,36.4,36.4,C,Y,BASELINE,2,2025-03-05,1
STUDY001,VS,STUDY001-SUBJ0008,9,BP,Blood Pressure,97/89,mmHg,97/89,,mmHg,Y,BASELINE,2,2025-03-05,1
STUDY001,VS,STUDY001-SUBJ0008,10,HR,Heart Rate,76,beats/min,76,76.0,beats/min,Y,BASELINE,2,2025-03-05,1
STUDY001,VS,STUDY001-SUBJ0008,11,HEIGHT,Height,176.1,cm,176.1,176.1,cm,,WEEK 1,3,2025-03-11,7
STUDY001,VS,STUDY001-SUBJ0008,12,WEIGHT,Weight,79.9,kg,79.9,79.9,kg,,WEEK 1,3,2025-03-11,7
STUDY001,VS,STUDY001-SUBJ0008,13,TEMP,Temperature,36.3,C,36.3,36.3,C,,WEEK 1,3,2025-03-11,7
STUDY001,VS,STUDY001-SUBJ0008,14,BP,Blood Pressure,103/84,mmHg,103/84,,mmHg,,WEEK 1,3,2025-03-11,7
STUDY001,VS,STUDY001-SUBJ0008,15,HR,Heart Rate,74,beats/min,74,74.0,beats/min,,WEEK 1,3,2025-03-11,7
STUDY001,VS,STUDY001-SUBJ0008,16,HEIGHT,Height,176.0,cm,176.0,176.0,cm,,WEEK 2,4,2025-03-18,14
STUDY001,VS,STUDY001-SUBJ0008,17,WEIGHT,Weight,81.1,kg,81.1,81.1,kg,,WEEK 2,4,2025-03-18,14
STUDY001,VS,STUDY001-SUBJ0008,18,TEMP,Temperature,36.2,C,36.2,36.2,C,,WEEK 2,4,2025-03-18,14
STUDY001,VS,STUDY001-SUBJ0008,19,BP,Blood Pressure,96/90,mmHg,96/90,,mmHg,,WEEK 2,4,2025-03-18,14
STUDY001,VS,STUDY001-SUBJ0008,20,HR,Heart Rate,70,beats/min,70,70.0,beats/min,,WEEK 2,4,2025-03-18,14
STUDY001,VS,STUDY001-SUBJ0008,21,HEIGHT,Height,176.2,cm,176.2,176.2,cm,,WEEK 4,5,2025-04-01,28
STUDY001,VS,STUDY001-SUBJ0008,22,WEIGHT,Weight,80.7,kg,80.7,80.7,kg,,WEEK 4,5,2025-04-01,28
STUDY001,VS,STUDY001-SUBJ0008,23,TEMP,Temperature,36.5,C,36.5,36.5,C,,WEEK 4,5,2025-04-01,28
STUDY001,VS,STUDY001-SUBJ0008,24,BP,Blood Pressure,96/85,mmHg,96/85,,mmHg,,WEEK 4,5,2025-04-01,28
STUDY001,VS,STUDY001-SUBJ0008,25,HR,Heart Rate,72,beats/min,72,72.0,beats/min,,WEEK 4,5,2025-04-01,28
STUDY001,VS,STUDY001-SUBJ0008,26,HEIGHT,Height,176.3,cm,176.3,176.3,cm,,WEEK 8,6,2025-04-29,56
STUDY001,VS,STUDY001-SUBJ0008,27,WEIGHT,Weight,80.7,kg,80.7,80.7,kg,,WEEK 8,6,2025-04-29,56
STUDY001,VS,STUDY001-SUBJ0008,28,TEMP,Temperature,36.5,C,36.5,36.5,C,,WEEK 8,6,2025-04-29,56
STUDY001,VS,STUDY001-SUBJ0008,29,BP,Blood Pressure,104/85,mmHg,104/85,,mmHg,,WEEK 8,6,2025-04-29,56
STUDY001,VS,STUDY001-SUBJ0008,30,HR,Heart Rate,73,beats/min,73,73.0,beats/min,,WEEK 8,6,2025-04-29,56
STUDY001,VS,STUDY001-SUBJ0008,31,HEIGHT,Height,176.3,cm,176.3,176.3,cm,,WEEK 12,7,2025-05-27,84
STUDY001,VS,STUDY001-SUBJ0008,32,WEIGHT,Weight,79.9,kg,79.9,79.9,kg,,WEEK 12,7,2025-05-27,84
STUDY001,VS,STUDY001-SUBJ0008,33,TEMP,Temperature,36.6,C,36.6,36.6,C,,WEEK 12,7,2025-05-27,84
STUDY001,VS,STUDY001-SUBJ0008,34,BP,Blood Pressure,103/91,mmHg,103/91,,mmHg,,WEEK 12,7,2025-05-27,84
STUDY001,VS,STUDY001-SUBJ0008,35,HR,Heart Rate,69,beats/min,69,69.0,beats/min,,WEEK 12,7,2025-05-27,84
STUDY001,VS,STUDY001-SUBJ0008,36,HEIGHT,Height,176.0,cm,176.0,176.0,cm,,WEEK 16,8,2025-06-24,112
STUDY001,VS,STUDY001-SUBJ0008,37,WEIGHT,Weight,80.1,kg,80.1,80.1,kg,,WEEK 16,8,2025-06-24,112
STUDY001,VS,STUDY001-SUBJ0008,38,TEMP,Temperature,36.1,C,36.1,36.1,C,,WEEK 16,8,2025-06-24,112
STUDY001,VS,STUDY001-SUBJ0008,39,BP,Blood Pressure,97/85,mmHg,97/85,,mmHg,,WEEK 16,8,2025-06-24,112
STUDY001,VS,STUDY001-SUBJ0008,40,HR,Heart Rate,71,beats/min,71,71.0,beats/min,,WEEK 16,8,2025-06-24,112
STUDY001,VS,STUDY001-SUBJ0008,41,HEIGHT,Height,176.2,cm,176.2,176.2,cm,,END OF TREATMENT,9,2025-07-22,140
STUDY001,VS,STUDY001-SUBJ0008,42,WEIGHT,Weight,79.7,kg,79.7,79.7,kg,,END OF TREATMENT,9,2025-07-22,140
STUDY001,VS,STUDY001-SUBJ0008,43,TEMP,Temperature,36.7,C,36.7,36.7,C,,END OF TREATMENT,9,2025-07-22,140
STUDY001,VS,STUDY001-SUBJ0008,44,BP,Blood Pressure,101/92,mmHg,101/92,,mmHg,,END OF TREATMENT,9,2025-07-22,140
STUDY001,VS,STUDY001-SUBJ0008,45,HR,Heart Rate,75,beats/min,75,75.0,beats/min,,END OF TREATMENT,9,2025-07-22,140
STUDY001,VS,STUDY001-SUBJ0009,1,HEIGHT,Height,157.5,cm,157.5,157.5,cm,,SCREENING,1,2024-10-09,-14
STUDY001,VS,STUDY001-SUBJ0009,2,WEIGHT,Weight,104.8,kg,104.8,104.8,kg,,SCREENING,1,2024-10-09,-14
STUDY001,VS,STUDY001-SUBJ0009,3,TEMP,Temperature,36.4,C,36.4,36.4,C,,SCREENING,1,2024-10-09,-14
STUDY001,VS,STUDY001-SUBJ0009,4,BP,Blood Pressure,126/73,mmHg,126/73,,mmHg,,SCREENING,1,2024-10-09,-14
STUDY001,VS,STUDY001-SUBJ0009,5,HR,Heart Rate,73,beats/min,73,73.0,beats/min,,SCREENING,1,2024-10-09,-14
STUDY001,VS,STUDY001-SUBJ0009,6,HEIGHT,Height,157.6,cm,157.6,157.6,cm,Y,BASELINE,2,2024-10-23,1
STUDY001,VS,STUDY001-SUBJ0009,7,WEIGHT,Weight,105.1,kg,105.1,105.1,kg,Y,BASELINE,2,2024-10-23,1
STUDY001,VS,STUDY001-SUBJ0009,8,TEMP,Temperature,36.3,C,36.3,36.3,C,Y,BASELINE,2,2024-10-23,1
STUDY001,VS,STUDY001-SUBJ0009,9,BP,Blood Pressure,129/75,mmHg,129/75,,mmHg,Y,BASELINE,2,2024-10-23,1
STUDY001,VS,STUDY001-SUBJ0009,10,HR,Heart Rate,75,beats/min,75,75.0,beats/min,Y,BASELINE,2,2024-10-23,1
STUDY001,VS,STUDY001-SUBJ0009,11,HEIGHT,Height,157.5,cm,157.5,157.5,cm,,WEEK 1,3,2024-10-29,7
STUDY001,VS,STUDY001-SUBJ0009,12,WEIGHT,Weight,104.2,kg,104.2,104.2,kg,,WEEK 1,3,2024-10-29,7
STUDY001,VS,STUDY001-SUBJ0009,13,TEMP,Temperature,36.1,C,36.1,36.1,C,,WEEK 1,3,2024-10-29,7
STUDY001,VS,STUDY001-SUBJ0009,14,BP,Blood Pressure,124/82,mmHg,124/82,,mmHg,,WEEK 1,3,2024-10-29,7
STUDY001,VS,STUDY001-SUBJ0009,15,HR,Heart Rate,75,beats/min,75,75.0,beats/min,,WEEK 1,3,2024-10-29,7
STUDY001,VS,STUDY001-SUBJ0009,16,HEIGHT,Height,157.5,cm,157.5,157.5,cm,,WEEK 2,4,2024-11-05,14
STUDY001,VS,STUDY001-SUBJ0009,17,WEIGHT,Weight,105.2,kg,105.2,105.2,kg,,WEEK 2,4,2024-11-05,14
STUDY001,VS,STUDY001-SUBJ0009,18,TEMP,Temperature,36.0,C,36.0,36.0,C,,WEEK 2,4,2024-11-05,14
STUDY001,VS,STUDY001-SUBJ0009,19,BP,Blood Pressure,121/74,mmHg,121/74,,mmHg,,WEEK 2,4,2024-11-05,14
STUDY001,VS,STUDY001-SUBJ0009,20,HR,Heart Rate,75,beats/min,75,75.0,beats/min,,WEEK 2,4,2024-11-05,14
STUDY001,VS,STUDY001-SUBJ0009,21,HEIGHT,Height,157.3,cm,157.3,157.3,cm,,WEEK 4,5,2024-11-19,28
STUDY001,VS,STUDY001-SUBJ0009,22,WEIGHT,Weight,104.2,kg,104.2,104.2,kg,,WEEK 4,5,2024-11-19,28
STUDY001,VS,STUDY001-SUBJ0009,23,TEMP,Temperature,36.0,C,36.0,36.0,C,,WEEK 4,5,2024-11-19,28
STUDY001,VS,STUDY001-SUBJ0009,24,BP,Blood Pressure,126/78,mmHg,126/78,,mmHg,,WEEK 4,5,2024-11-19,28
STUDY001,VS,STUDY001-SUBJ0009,25,HR,Heart Rate,70,beats/min,70,70.0,beats/min,,WEEK 4,5,2024-11-19,28
STUDY001,VS,STUDY001-SUBJ0009,26,HEIGHT,Height,157.5,cm,157.5,157.5,cm,,WEEK 8,6,2024-12-17,56
STUDY001,VS,STUDY001-SUBJ0009,27,WEIGHT,Weight,103.6,kg,103.6,103.6,kg,,WEEK 8,6,2024-12-17,56
STUDY001,VS,STUDY001-SUBJ0009,28,TEMP,Temperature,36.3,C,36.3,36.3,C,,WEEK 8,6,2024-12-17,56
STUDY001,VS,STUDY001-SUBJ0009,29,BP,Blood Pressure,121/74,mmHg,121/74,,mmHg,,WEEK 8,6,2024-12-17,56
STUDY001,VS,STUDY001-SUBJ0009,30,HR,Heart Rate,76,beats/min,76,76.0,beats/min,,WEEK 8,6,2024-12-17,56
STUDY001,VS,STUDY001-SUBJ0009,31,HEIGHT,Height,157.4,cm,157.4,157.4,cm,,WEEK 12,7,2025-01-14,84
STUDY001,VS,STUDY001-SUBJ0009,32,WEIGHT,Weight,103.7,kg,103.7,103.7,kg,,WEEK 12,7,2025-01-14,84
STUDY001,VS,STUDY001-SUBJ0009,33,TEMP,Temperature,36.2,C,36.2,36.2,C,,WEEK 12,7,2025-01-14,84
STUDY001,VS,STUDY001-SUBJ0009,34,BP,Blood Pressure,128/81,mmHg,128/81,,mmHg,,WEEK 12,7,2025-01-14,84
STUDY001,VS,STUDY001-SUBJ0009,35,HR,Heart Rate,75,beats/min,75,75.0,beats/min,,WEEK 12,7,2025-01-14,84
STUDY001,VS,STUDY001-SUBJ0009,36,HEIGHT,Height,157.4,cm,157.4,157.4,cm,,WEEK 16,8,2025-02-11,112
STUDY001,VS,STUDY001-SUBJ0009,37,WEIGHT,Weight,105.1,kg,105.1,105.1,kg,,WEEK 16,8,2025-02-11,112
STUDY001,VS,STUDY001-SUBJ0009,38,TEMP,Temperature,36.0,C,36.0,36.0,C,,WEEK 16,8,2025-02-11,112
STUDY001,VS,STUDY001-SUBJ0009,39,BP,Blood Pressure,122/79,mmHg,122/79,,mmHg,,WEEK 16,8,2025-02-11,112
STUDY001,VS,STUDY001-SUBJ0009,40,HR,Heart Rate,73,beats/min,73,73.0,beats/min,,WEEK 16,8,2025-02-11,112
STUDY001,VS,STUDY001-SUBJ0009,41,HEIGHT,Height,157.6,cm,157.6,157.6,cm,,END OF TREATMENT,9,2025-03-11,140
STUDY001,VS,STUDY001-SUBJ0009,42,WEIGHT,Weight,103.8,kg,103.8,103.8,kg,,END OF TREATMENT,9,2025-03-11,140
STUDY001,VS,STUDY001-SUBJ0009,43,TEMP,Temperature,36.0,C,36.0,36.0,C,,END OF TREATMENT,9,2025-03-11,140
STUDY001,VS,STUDY001-SUBJ0009,44,BP,Blood Pressure,124/78,mmHg,124/78,,mmHg,,END OF TREATMENT,9,2025-03-11,140
STUDY001,VS,STUDY001-SUBJ0009,45,HR,Heart Rate,69,beats/min,69,69.0,beats/min,,END OF TREATMENT,9,2025-03-11,140
STUDY001,VS,STUDY001-SUBJ0010,1,HEIGHT,Height,152.2,cm,152.2,152.2,cm,,SCREENING,1,2025-02-19,-14
STUDY001,VS,STUDY001-SUBJ0010,2,WEIGHT,Weight,55.7,kg,55.7,55.7,kg,,SCREENING,1,2025-02-19,-14
STUDY001,VS,STUDY001-SUBJ0010,3,TEMP,Temperature,36.3,C,36.3,36.3,C,,SCREENING,1,2025-02-19,-14
STUDY001,VS,STUDY001-SUBJ0010,4,BP,Blood Pressure,103/90,mmHg,103/90,,mmHg,,SCREENING,1,2025-02-19,-14
STUDY001,VS,STUDY001-SUBJ0010,5,HR,Heart Rate,85,beats/min,85,85.0,beats/min,,SCREENING,1,2025-02-19,-14
STUDY001,VS,STUDY001-SUBJ0010,6,HEIGHT,Height,152.2,cm,152.2,152.2,cm,Y,BASELINE,2,2025-03-05,1
STUDY001,VS,STUDY001-SUBJ0010,7,WEIGHT,Weight,55.3,kg,55.3,55.3,kg,Y,BASELINE,2,2025-03-05,1
STUDY001,VS,STUDY001-SUBJ0010,8,TEMP,Temperature,35.9,C,35.9,35.9,C,Y,BASELINE,2,2025-03-05,1
STUDY001,VS,STUDY001-SUBJ0010,9,BP,Blood Pressure,113/93,mmHg,113/93,,mmHg,Y,BASELINE,2,2025-03-05,1
STUDY001,VS,STUDY001-SUBJ0010,10,HR,Heart Rate,84,beats/min,84,84.0,beats/min,Y,BASELINE,2,2025-03-05,1
STUDY001,VS,STUDY001-SUBJ0010,11,HEIGHT,Height,152.1,cm,152.1,152.1,cm,,WEEK 1,3,2025-03-11,7
STUDY001,VS,STUDY001-SUBJ0010,12,WEIGHT,Weight,55.5,kg,55.5,55.5,kg,,WEEK 1,3,2025-03-11,7
STUDY001,VS,STUDY001-SUBJ0010,13,TEMP,Temperature,36.2,C,36.2,36.2,C,,WEEK 1,3,2025-03-11,7
STUDY001,VS,STUDY001-SUBJ0010,14,BP,Blood Pressure,110/91,mmHg,110/91,,mmHg,,WEEK 1,3,2025-03-11,7
STUDY001,VS,STUDY001-SUBJ0010,15,HR,Heart Rate,84,beats/min,84,84.0,beats/min,,WEEK 1,3,2025-03-11,7
STUDY001,VS,STUDY001-SUBJ0010,16,HEIGHT,Height,152.4,cm,152.4,152.4,cm,,WEEK 2,4,2025-03-18,14
STUDY001,VS,STUDY001-SUBJ0010,17,WEIGHT,Weight,54.3,kg,54.3,54.3,kg,,WEEK 2,4,2025-03-18,14
STUDY001,VS,STUDY001-SUBJ0010,18,TEMP,Temperature,36.3,C,36.3,36.3,C,,WEEK 2,4,2025-03-18,14
STUDY001,VS,STUDY001-SUBJ0010,19,BP,Blood Pressure,105/93,mmHg,105/93,,mmHg,,WEEK 2,4,2025-03-18,14
STUDY001,VS,STUDY001-SUBJ0010,20,HR,Heart Rate,84,beats/min,84,84.0,beats/min,,WEEK 2,4,2025-03-18,14
STUDY001,VS,STUDY001-SUBJ0010,21,HEIGHT,Height,152.1,cm,152.1,152.1,cm,,WEEK 4,5,2025-04-01,28
STUDY001,VS,STUDY001-SUBJ0010,22,WEIGHT,Weight,55.8,kg,55.8,55.8,kg,,WEEK 4,5,2025-04-01,28
STUDY001,VS,STUDY001-SUBJ0010,23,TEMP,Temperature,36.0,C,36.0,36.0,C,,WEEK 4,5,2025-04-01,28
STUDY001,VS,STUDY001-SUBJ0010,24,BP,Blood Pressure,110/94,mmHg,110/94,,mmHg,,WEEK 4,5,2025-04-01,28
STUDY001,VS,STUDY001-SUBJ0010,25,HR,Heart Rate,79,beats/min,79,79.0,beats/min,,WEEK 4,5,2025-04-01,28
STUDY001,VS,STUDY001-SUBJ0010,26,HEIGHT,Height,152.3,cm,152.3,152.3,cm,,WEEK 8,6,2025-04-29,56
STUDY001,VS,STUDY001-SUBJ0010,27,WEIGHT,Weight,54.7,kg,54.7,54.7,kg,,WEEK 8,6,2025-04-29,56
STUDY001,VS,STUDY001-SUBJ0010,28,TEMP,Temperature,36.1,C,36.1,36.1,C,,WEEK 8,6,2025-04-29,56
STUDY001,VS,STUDY001-SUBJ0010,29,BP,Blood Pressure,105/93,mmHg,105/93,,mmHg,,WEEK 8,6,2025-04-29,56
STUDY001,VS,STUDY001-SUBJ0010,30,HR,Heart Rate,86,beats/min,86,86.0,beats/min,,WEEK 8,6,2025-04-29,56
STUDY001,VS,STUDY001-SUBJ0010,31,HEIGHT,Height,152.4,cm,152.4,152.4,cm,,WEEK 12,7,2025-05-27,84
STUDY001,VS,STUDY001-SUBJ0010,32,WEIGHT,Weight,54.4,kg,54.4,54.4,kg,,WEEK 12,7,2025-05-27,84
STUDY001,VS,STUDY001-SUBJ0010,33,TEMP,Temperature,36.1,C,36.1,36.1,C,,WEEK 12,7,2025-05-27,84
STUDY001,VS,STUDY001-SUBJ0010,34,BP,Blood Pressure,107/93,mmHg,107/93,,mmHg,,WEEK 12,7,2025-05-27,84
STUDY001,VS,STUDY001-SUBJ0010,35,HR,Heart Rate,83,beats/min,83,83.0,beats/min,,WEEK 12,7,2025-05-27,84
STUDY001,VS,STUDY001-SUBJ0010,36,HEIGHT,Height,152.3,cm,152.3,152.3,cm,,WEEK 16,8,2025-06-24,112
STUDY001,VS,STUDY001-SUBJ0010,37,WEIGHT,Weight,54.3,kg,54.3,54.3,kg,,WEEK 16,8,2025-06-24,112
STUDY001,VS,STUDY001-SUBJ0010,38,TEMP,Temperature,36.4,C,36.4,36.4,C,,WEEK 16,8,2025-06-24,112
STUDY001,VS,STUDY001-SUBJ0010,39,BP,Blood Pressure,109/91,mmHg,109/91,,mmHg,,WEEK 16,8,2025-06-24,112
STUDY001,VS,STUDY001-SUBJ0010,40,HR,Heart Rate,86,beats/min,86,86.0,beats/min,,WEEK 16,8,2025-06-24,112
STUDY001,VS,STUDY001-SUBJ0010,41,HEIGHT,Height,152.1,cm,152.1,152.1,cm,,END OF TREATMENT,9,2025-07-22,140
STUDY001,VS,STUDY001-SUBJ0010,42,WEIGHT,Weight,54.4,kg,54.4,54.4,kg,,END OF TREATMENT,9,2025-07-22,140
STUDY001,VS,STUDY001-SUBJ0010,43,TEMP,Temperature,36.2,C,36.2,36.2,C,,END OF TREATMENT,9,2025-07-22,140
STUDY001,VS,STUDY001-SUBJ0010,44,BP,Blood Pressure,109/92,mmHg,109/92,,mmHg,,END OF TREATMENT,9,2025-07-22,140
STUDY001,VS,STUDY001-SUBJ0010,45,HR,Heart Rate,82,beats/min,82,82.0,beats/min,,END OF TREATMENT,9,2025-07-22,140
