STUDYID,DOMAIN,USUBJID,VSSEQ,VSTESTCD,VSTEST,VSORRES,VSORRESU,VSSTRESC,VSSTRESN,VSSTRESU,VSBLFL,VISIT,VISITNUM,VSDTC,VSDY
STUDY001,VS,STUDY001-SUBJ0001,1,HEIGHT,Height,165.3,cm,165.3,165.3,cm,,SCREENING,1,2025-03-09,-14
STUDY001,VS,STUDY001-SUBJ0001,2,WEIGHT,Weight,98.2,kg,98.2,98.2,kg,,SCREENING,1,2025-03-09,-14
STUDY001,VS,STUDY001-SUBJ0001,3,TEMP,Temperature,37.0,C,37.0,37.0,C,,SCREENING,1,2025-03-09,-14
STUDY001,VS,STUDY001-SUBJ0001,4,BP,Blood Pressure,128/77,mmHg,128/77,,mmHg,,SCREENING,1,2025-03-09,-14
STUDY001,VS,STUDY001-SUBJ0001,5,HR,Heart Rate,65,beats/min,65,65.0,beats/min,,SCREENING,1,2025-03-09,-14
STUDY001,VS,STUDY001-SUBJ0001,6,HEIGHT,Height,165.5,cm,165.5,165.5,cm,Y,BASELINE,2,2025-03-23,1
STUDY001,VS,STUDY001-SUBJ0001,7,WEIGHT,Weight,98.3,kg,98.3,98.3,kg,Y,BASELINE,2,2025-03-23,1
STUDY001,VS,STUDY001-SUBJ0001,8,TEMP,Temperature,37.0,C,37.0,37.0,C,Y,BASELINE,2,2025-03-23,1
STUDY001,VS,STUDY001-SUBJ0001,9,BP,Blood Pressure,124/81,mmHg,124/81,,mmHg,Y,BASELINE,2,2025-03-23,1
STUDY001,VS,STUDY001-SUBJ0001,10,HR,Heart Rate,61,beats/min,61,61.0,beats/min,Y,BASELINE,2,2025-03-23,1
STUDY001,VS,STUDY001-SUBJ0001,11,HEIGHT,Height,165.4,cm,165.4,165.4,cm,,WEEK 1,3,2025-03-29,7
STUDY001,VS,STUDY001-SUBJ0001,12,WEIGHT,Weight,98.1,kg,98.1,98.1,kg,,WEEK 1,3,2025-03-29,7
STUDY001,VS,STUDY001-SUBJ0001,13,TEMP,Temperature,37.1,C,37.1,37.1,C,,WEEK 1,3,2025-03-29,7
STUDY001,VS,STUDY001-SUBJ0001,14,BP,Blood Pressure,124/78,mmHg,124/78,,mmHg,,WEEK 1,3,2025-03-29,7
STUDY001,VS,STUDY001-SUBJ0001,15,HR,Heart Rate,63,beats/min,63,63.0,beats/min,,WEEK 1,3,2025-03-29,7
STUDY001,VS,STUDY001-SUBJ0001,16,HEIGHT,Height,165.3,cm,165.3,165.3,cm,,WEEK 2,4,2025-04-05,14
STUDY001,VS,STUDY001-SUBJ0001,17,WEIGHT,Weight,98.9,kg,98.9,98.9,kg,,WEEK 2,4,2025-04-05,14
STUDY001,VS,STUDY001-SUBJ0001,18,TEMP,Temperature,37.0,C,37.0,37.0,C,,WEEK 2,4,2025-04-05,14
STUDY001,VS,STUDY001-SUBJ0001,19,BP,Blood Pressure,125/75,mmHg,125/75,,mmHg,,WEEK 2,4,2025-04-05,14
STUDY001,VS,STUDY001-SUBJ0001,20,HR,Heart Rate,68,beats/min,68,68.0,beats/min,,WEEK 2,4,2025-04-05,14
STUDY001,VS,STUDY001-SUBJ0001,21,HEIGHT,Height,165.4,cm,165.4,165.4,cm,,WEEK 4,5,2025-04-19,28
STUDY001,VS,STUDY001-SUBJ0001,22,WEIGHT,Weight,98.0,kg,98.0,98.0,kg,,WEEK 4,5,2025-04-19,28
STUDY001,VS,STUDY001-SUBJ0001,23,TEMP,Temperature,36.7,C,36.7,36.7,C,,WEEK 4,5,2025-04-19,28
STUDY001,VS,STUDY001-SUBJ0001,24,BP,Blood Pressure,128/79,mmHg,128/79,,mmHg,,WEEK 4,5,2025-04-19,28
STUDY001,VS,STUDY001-SUBJ0001,25,HR,Heart Rate,67,beats/min,67,67.0,beats/min,,WEEK 4,5,2025-04-19,28
STUDY001,VS,STUDY001-SUBJ0001,26,HEIGHT,Height,165.4,cm,165.4,165.4,cm,,WEEK 8,6,2025-05-17,56
STUDY001,VS,STUDY001-SUBJ0001,27,WEIGHT,Weight,99.1,kg,99.1,99.1,kg,,WEEK 8,6,2025-05-17,56
STUDY001,VS,STUDY001-SUBJ0001,28,TEMP,Temperature,36.7,C,36.7,36.7,C,,WEEK 8,6,2025-05-17,56
STUDY001,VS,STUDY001-SUBJ0001,29,BP,Blood Pressure,130/76,mmHg,130/76,,mmHg,,WEEK 8,6,2025-05-17,56
STUDY001,VS,STUDY001-SUBJ0001,30,HR,Heart Rate,64,beats/min,64,64.0,beats/min,,WEEK 8,6,2025-05-17,56
STUDY001,VS,STUDY001-SUBJ0001,31,HEIGHT,Height,165.5,cm,165.5,165.5,cm,,WEEK 12,7,2025-06-14,84
STUDY001,VS,STUDY001-SUBJ0001,32,WEIGHT,Weight,97.6,kg,97.6,97.6,kg,,WEEK 12,7,2025-06-14,84
STUDY001,VS,STUDY001-SUBJ0001,33,TEMP,Temperature,37.1,C,37.1,37.1,C,,WEEK 12,7,2025-06-14,84
STUDY001,VS,STUDY001-SUBJ0001,34,BP,Blood Pressure,123/78,mmHg,123/78,,mmHg,,WEEK 12,7,2025-06-14,84
STUDY001,VS,STUDY001-SUBJ0001,35,HR,Heart Rate,67,beats/min,67,67.0,beats/min,,WEEK 12,7,2025-06-14,84
STUDY001,VS,STUDY001-SUBJ0001,36,HEIGHT,Height,165.3,cm,165.3,165.3,cm,,WEEK 16,8,2025-07-12,112
STUDY001,VS,STUDY001-SUBJ0001,37,WEIGHT,Weight,98.7,kg,98.7,98.7,kg,,WEEK 16,8,2025-07-12,112
STUDY001,VS,STUDY001-SUBJ0001,38,TEMP,Temperature,37.1,C,37.1,37.1,C,,WEEK 16,8,2025-07-12,112
STUDY001,VS,STUDY001-SUBJ0001,39,BP,Blood Pressure,131/80,mmHg,131/80,,mmHg,,WEEK 16,8,2025-07-12,112
STUDY001,VS,STUDY001-SUBJ0001,40,HR,Heart Rate,63,beats/min,63,63.0,beats/min,,WEEK 16,8,2025-07-12,112
STUDY001,VS,STUDY001-SUBJ0001,41,HEIGHT,Height,165.2,cm,165.2,165.2,cm,,END OF TREATMENT,9,2025-08-09,140
STUDY001,VS,STUDY001-SUBJ0001,42,WEIGHT,Weight,97.5,kg,97.5,97.5,kg,,END OF TREATMENT,9,2025-08-09,140
STUDY001,VS,STUDY001-SUBJ0001,43,TEMP,Temperature,37.1,C,37.1,37.1,C,,END OF TREATMENT,9,2025-08-09,140
STUDY001,VS,STUDY001-SUBJ0001,44,BP,Blood Pressure,127/79,mmHg,127/79,,mmHg,,END OF TREATMENT,9,2025-08-09,140
STUDY001,VS,STUDY001-SUBJ0001,45,HR,Heart Rate,64,beats/min,64,64.0,beats/min,,END OF TREATMENT,9,2025-08-09,140
STUDY001,VS,STUDY001-SUBJ0002,1,HEIGHT,Height,153.1,cm,153.1,153.1,cm,,SCREENING,1,2025-04-26,-14
STUDY001,VS,STUDY001-SUBJ0002,2,WEIGHT,Weight,79.6,kg,79.6,79.6,kg,,SCREENING,1,2025-04-26,-14
STUDY001,VS,STUDY001-SUBJ0002,3,TEMP,Temperature,36.4,C,36.4,36.4,C,,SCREENING,1,2025-04-26,-14
STUDY001,VS,STUDY001-SUBJ0002,4,BP,Blood Pressure,112/77,mmHg,112/77,,mmHg,,SCREENING,1,2025-04-26,-14
STUDY001,VS,STUDY001-SUBJ0002,5,HR,Heart Rate,68,beats/min,68,68.0,beats/min,,SCREENING,1,2025-04-26,-14
STUDY001,VS,STUDY001-SUBJ0002,6,HEIGHT,Height,152.9,cm,152.9,152.9,cm,Y,BASELINE,2,2025-05-10,1
STUDY001,VS,STUDY001-SUBJ0002,7,WEIGHT,Weight,78.4,kg,78.4,78.4,kg,Y,BASELINE,2,2025-05-10,1
STUDY001,VS,STUDY001-SUBJ0002,8,TEMP,Temperature,36.6,C,36.6,36.6,C,Y,BASELINE,2,2025-05-10,1
STUDY001,VS,STUDY001-SUBJ0002,9,BP,Blood Pressure,115/74,mmHg,115/74,,mmHg,Y,BASELINE,2,2025-05-10,1
STUDY001,VS,STUDY001-SUBJ0002,10,HR,Heart Rate,72,beats/min,72,72.0,beats/min,Y,BASELINE,2,2025-05-10,1
STUDY001,VS,STUDY001-SUBJ0002,11,HEIGHT,Height,153.1,cm,153.1,153.1,cm,,WEEK 1,3,2025-05-16,7
STUDY001,VS,STUDY001-SUBJ0002,12,WEIGHT,Weight,78.3,kg,78.3,78.3,kg,,WEEK 1,3,2025-05-16,7
STUDY001,VS,STUDY001-SUBJ0002,13,TEMP,Temperature,36.9,C,36.9,36.9,C,,WEEK 1,3,2025-05-16,7
STUDY001,VS,STUDY001-SUBJ0002,14,BP,Blood Pressure,110/76,mmHg,110/76,,mmHg,,WEEK 1,3,2025-05-16,7
STUDY001,VS,STUDY001-SUBJ0002,15,HR,Heart Rate,75,beats/min,75,75.0,beats/min,,WEEK 1,3,2025-05-16,7
STUDY001,VS,STUDY001-SUBJ0002,16,HEIGHT,Height,153.0,cm,153.0,153.0,cm,,WEEK 2,4,2025-05-23,14
STUDY001,VS,STUDY001-SUBJ0002,17,WEIGHT,Weight,78.0,kg,78.0,78.0,kg,,WEEK 2,4,2025-05-23,14
STUDY001,VS,STUDY001-SUBJ0002,18,TEMP,Temperature,36.9,C,36.9,36.9,C,,WEEK 2,4,2025-05-23,14
STUDY001,VS,STUDY001-SUBJ0002,19,BP,Blood Pressure,115/82,mmHg,115/82,,mmHg,,WEEK 2,4,2025-05-23,14
STUDY001,VS,STUDY001-SUBJ0002,20,HR,Heart Rate,75,beats/min,75,75.0,beats/min,,WEEK 2,4,2025-05-23,14
STUDY001,VS,STUDY001-SUBJ0002,21,HEIGHT,Height,153.0,cm,153.0,153.0,cm,,WEEK 4,5,2025-06-06,28
STUDY001,VS,STUDY001-SUBJ0002,22,WEIGHT,Weight,78.7,kg,78.7,78.7,kg,,WEEK 4,5,2025-06-06,28
STUDY001,VS,STUDY001-SUBJ0002,23,TEMP,Temperature,36.8,C,36.8,36.8,C,,WEEK 4,5,2025-06-06,28
STUDY001,VS,STUDY001-SUBJ0002,24,BP,Blood Pressure,111/80,mmHg,111/80,,mmHg,,WEEK 4,5,2025-06-06,28
STUDY001,VS,STUDY001-SUBJ0002,25,HR,Heart Rate,73,beats/min,73,73.0,beats/min,,WEEK 4,5,2025-06-06,28
STUDY001,VS,STUDY001-SUBJ0002,26,HEIGHT,Height,152.9,cm,152.9,152.9,cm,,WEEK 8,6,2025-07-04,56
STUDY001,VS,STUDY001-SUBJ0002,27,WEIGHT,Weight,78.7,kg,78.7,78.7,kg,,WEEK 8,6,2025-07-04,56
STUDY001,VS,STUDY001-SUBJ0002,28,TEMP,Temperature,36.6,C,36.6,36.6,C,,WEEK 8,6,2025-07-04,56
STUDY001,VS,STUDY001-SUBJ0002,29,BP,Blood Pressure,114/84,mmHg,114/84,,mmHg,,WEEK 8,6,2025-07-04,56
STUDY001,VS,STUDY001-SUBJ0002,30,HR,Heart Rate,69,beats/min,69,69.0,beats/min,,WEEK 8,6,2025-07-04,56
STUDY001,VS,STUDY001-SUBJ0002,31,HEIGHT,Height,153.1,cm,153.1,153.1,cm,,WEEK 12,7,2025-08-01,84
STUDY001,VS,STUDY001-SUBJ0002,32,WEIGHT,Weight,78.7,kg,78.7,78.7,kg,,WEEK 12,7,2025-08-01,84
STUDY001,VS,STUDY001-SUBJ0002,33,TEMP,Temperature,36.4,C,36.4,36.4,C,,WEEK 12,7,2025-08-01,84
STUDY001,VS,STUDY001-SUBJ0002,34,BP,Blood Pressure,110/77,mmHg,110/77,,mmHg,,WEEK 12,7,2025-08-01,84
STUDY001,VS,STUDY001-SUBJ0002,35,HR,Heart Rate,69,beats/min,69,69.0,beats/min,,WEEK 12,7,2025-08-01,84
STUDY001,VS,STUDY001-SUBJ0002,36,HEIGHT,Height,153.1,cm,153.1,153.1,cm,,WEEK 16,8,2025-08-29,112
STUDY001,VS,STUDY001-SUBJ0002,37,WEIGHT,Weight,79.8,kg,79.8,79.8,kg,,WEEK 16,8,2025-08-29,112
STUDY001,VS,STUDY001-SUBJ0002,38,TEMP,Temperature,36.5,C,36.5,36.5,C,,WEEK 16,8,2025-08-29,112
STUDY001,VS,STUDY001-SUBJ0002,39,BP,Blood Pressure,108/75,mmHg,108/75,,mmHg,,WEEK 16,8,2025-08-29,112
STUDY001,VS,STUDY001-SUBJ0002,40,HR,Heart Rate,76,beats/min,76,76.0,beats/min,,WEEK 16,8,2025-08-29,112
STUDY001,VS,STUDY001-SUBJ0002,41,HEIGHT,Height,152.9,cm,152.9,152.9,cm,,END OF TREATMENT,9,2025-09-26,140
STUDY001,VS,STUDY001-SUBJ0002,42,WEIGHT,Weight,79.4,kg,79.4,79.4,kg,,END OF TREATMENT,9,2025-09-26,140
STUDY001,VS,STUDY001-SUBJ0002,43,TEMP,Temperature,36.7,C,36.7,36.7,C,,END OF TREATMENT,9,2025-09-26,140
STUDY001,VS,STUDY001-SUBJ0002,44,BP,Blood Pressure,113/75,mmHg,113/75,,mmHg,,END OF TREATMENT,9,2025-09-26,140
STUDY001,VS,STUDY001-SUBJ0002,45,HR,Heart Rate,71,beats/min,71,71.0,beats/min,,END OF TREATMENT,9,2025-09-26,140
STUDY001,VS,STUDY001-SUBJ0003,1,HEIGHT,Height,181.3,cm,181.3,181.3,cm,,SCREENING,1,2025-06-26,-14
STUDY001,VS,STUDY001-SUBJ0003,2,WEIGHT,Weight,69.7,kg,69.7,69.7,kg,,SCREENING,1,2025-06-26,-14
STUDY001,VS,STUDY001-SUBJ0003,3,TEMP,Temperature,37.1,C,37.1,37.1,C,,SCREENING,1,2025-06-26,-14
STUDY001,VS,STUDY001-SUBJ0003,4,BP,Blood Pressure,120/69,mmHg,120/69,,mmHg,,SCREENING,1,2025-06-26,-14
STUDY001,VS,STUDY001-SUBJ0003,5,HR,Heart Rate,62,beats/min,62,62.0,beats/min,,SCREENING,1,2025-06-26,-14
STUDY001,VS,STUDY001-SUBJ0003,6,HEIGHT,Height,181.4,cm,181.4,181.4,cm,Y,BASELINE,2,2025-07-10,1
STUDY001,VS,STUDY001-SUBJ0003,7,WEIGHT,Weight,70.9,kg,70.9,70.9,kg,Y,BASELINE,2,2025-07-10,1
STUDY001,VS,STUDY001-SUBJ0003,8,TEMP,Temperature,36.8,C,36.8,36.8,C,Y,BASELINE,2,2025-07-10,1
STUDY001,VS,STUDY001-SUBJ0003,9,BP,Blood Pressure,121/69,mmHg,121/69,,mmHg,Y,BASELINE,2,2025-07-10,1
STUDY001,VS,STUDY001-SUBJ0003,10,HR,Heart Rate,64,beats/min,64,64.0,beats/min,Y,BASELINE,2,2025-07-10,1
STUDY001,VS,STUDY001-SUBJ0003,11,HEIGHT,Height,181.2,cm,181.2,181.2,cm,,WEEK 1,3,2025-07-16,7
STUDY001,VS,STUDY001-SUBJ0003,12,WEIGHT,Weight,69.8,kg,69.8,69.8,kg,,WEEK 1,3,2025-07-16,7
STUDY001,VS,STUDY001-SUBJ0003,13,TEMP,Temperature,37.0,C,37.0,37.0,C,,WEEK 1,3,2025-07-16,7
STUDY001,VS,STUDY001-SUBJ0003,14,BP,Blood Pressure,121/67,mmHg,121/67,,mmHg,,WEEK 1,3,2025-07-16,7
STUDY001,VS,STUDY001-SUBJ0003,15,HR,Heart Rate,62,beats/min,62,62.0,beats/min,,WEEK 1,3,2025-07-16,7
STUDY001,VS,STUDY001-SUBJ0003,16,HEIGHT,Height,181.4,cm,181.4,181.4,cm,,WEEK 2,4,2025-07-23,14
STUDY001,VS,STUDY001-SUBJ0003,17,WEIGHT,Weight,70.4,kg,70.4,70.4,kg,,WEEK 2,4,2025-07-23,14
STUDY001,VS,STUDY001-SUBJ0003,18,TEMP,Temperature,37.0,C,37.0,37.0,C,,WEEK 2,4,2025-07-23,14
STUDY001,VS,STUDY001-SUBJ0003,19,BP,Blood Pressure,119/73,mmHg,119/73,,mmHg,,WEEK 2,4,2025-07-23,14
STUDY001,VS,STUDY001-SUBJ0003,20,HR,Heart Rate,67,beats/min,67,67.0,beats/min,,WEEK 2,4,2025-07-23,14
STUDY001,VS,STUDY001-SUBJ0003,21,HEIGHT,Height,181.3,cm,181.3,181.3,cm,,WEEK 4,5,2025-08-06,28
STUDY001,VS,STUDY001-SUBJ0003,22,WEIGHT,Weight,69.8,kg,69.8,69.8,kg,,WEEK 4,5,2025-08-06,28
STUDY001,VS,STUDY001-SUBJ0003,23,TEMP,Temperature,36.8,C,36.8,36.8,C,,WEEK 4,5,2025-08-06,28
STUDY001,VS,STUDY001-SUBJ0003,24,BP,Blood Pressure,113/71,mmHg,113/71,,mmHg,,WEEK 4,5,2025-08-06,28
STUDY001,VS,STUDY001-SUBJ0003,25,HR,Heart Rate,69,beats/min,69,69.0,beats/min,,WEEK 4,5,2025-08-06,28
STUDY001,VS,STUDY001-SUBJ0003,26,HEIGHT,Height,181.2,cm,181.2,181.2,cm,,WEEK 8,6,2025-09-03,56
STUDY001,VS,STUDY001-SUBJ0003,27,WEIGHT,Weight,71.1,kg,71.1,71.1,kg,,WEEK 8,6,2025-09-03,56
STUDY001,VS,STUDY001-SUBJ0003,28,TEMP,Temperature,36.7,C,36.7,36.7,C,,WEEK 8,6,2025-09-03,56
STUDY001,VS,STUDY001-SUBJ0003,29,BP,Blood Pressure,114/74,mmHg,114/74,,mmHg,,WEEK 8,6,2025-09-03,56
STUDY001,VS,STUDY001-SUBJ0003,30,HR,Heart Rate,62,beats/min,62,62.0,beats/min,,WEEK 8,6,2025-09-03,56
STUDY001,VS,STUDY001-SUBJ0003,31,HEIGHT,Height,181.1,cm,181.1,181.1,cm,,WEEK 12,7,2025-10-01,84
STUDY001,VS,STUDY001-SUBJ0003,32,WEIGHT,Weight,69.6,kg,69.6,69.6,kg,,WEEK 12,7,2025-10-01,84
STUDY001,VS,STUDY001-SUBJ0003,33,TEMP,Temperature,37.0,C,37.0,37.0,C,,WEEK 12,7,2025-10-01,84
STUDY001,VS,STUDY001-SUBJ0003,34,BP,Blood Pressure,116/71,mmHg,116/71,,mmHg,,WEEK 12,7,2025-10-01,84
STUDY001,VS,STUDY001-SUBJ0003,35,HR,Heart Rate,70,beats/min,70,70.0,beats/min,,WEEK 12,7,2025-10-01,84
STUDY001,VS,STUDY001-SUBJ0003,36,HEIGHT,Height,181.5,cm,181.5,181.5,cm,,WEEK 16,8,2025-10-29,112
STUDY001,VS,STUDY001-SUBJ0003,37,WEIGHT,Weight,71.3,kg,71.3,71.3,kg,,WEEK 16,8,2025-10-29,112
STUDY001,VS,STUDY001-SUBJ0003,38,TEMP,Temperature,37.0,C,37.0,37.0,C,,WEEK 16,8,2025-10-29,112
STUDY001,VS,STUDY001-SUBJ0003,39,BP,Blood Pressure,115/73,mmHg,115/73,,mmHg,,WEEK 16,8,2025-10-29,112
STUDY001,VS,STUDY001-SUBJ0003,40,HR,Heart Rate,63,beats/min,63,63.0,beats/min,,WEEK 16,8,2025-10-29,112
STUDY001,VS,STUDY001-SUBJ0003,41,HEIGHT,Height,181.3,cm,181.3,181.3,cm,,END OF TREATMENT,9,2025-11-26,140
STUDY001,VS,STUDY001-SUBJ0003,42,WEIGHT,Weight,70.6,kg,70.6,70.6,kg,,END OF TREATMENT,9,2025-11-26,140
STUDY001,VS,STUDY001-SUBJ0003,43,TEMP,Temperature,37.0,C,37.0,37.0,C,,END OF TREATMENT,9,2025-11-26,140
STUDY001,VS,STUDY001-SUBJ0003,44,BP,Blood Pressure,113/69,mmHg,113/69,,mmHg,,END OF TREATMENT,9,2025-11-26,140
STUDY001,VS,STUDY001-SUBJ0003,45,HR,Heart Rate,66,beats/min,66,66.0,beats/min,,END OF TREATMENT,9,2025-11-26,140
STUDY001,VS,STUDY001-SUBJ0004,1,HEIGHT,Height,189.5,cm,189.5,189.5,cm,,SCREENING,1,2024-08-29,-14
STUDY001,VS,STUDY001-SUBJ0004,2,WEIGHT,Weight,68.6,kg,68.6,68.6,kg,,SCREENING,1,2024-08-29,-14
STUDY001,VS,STUDY001-SUBJ0004,3,TEMP,Temperature,36.1,C,36.1,36.1,C,,SCREENING,1,2024-08-29,-14
STUDY001,VS,STUDY001-SUBJ0004,4,BP,Blood Pressure,142/90,mmHg,142/90,,mmHg,,SCREENING,1,2024-08-29,-14
STUDY001,VS,STUDY001-SUBJ0004,5,HR,Heart Rate,65,beats/min,65,65.0,beats/min,,SCREENING,1,2024-08-29,-14
STUDY001,VS,STUDY001-SUBJ0004,6,HEIGHT,Height,189.6,cm,189.6,189.6,cm,Y,BASELINE,2,2024-09-12,1
STUDY001,VS,STUDY001-SUBJ0004,7,WEIGHT,Weight,69.3,kg,69.3,69.3,kg,Y,BASELINE,2,2024-09-12,1
STUDY001,VS,STUDY001-SUBJ0004,8,TEMP,Temperature,36.0,C,36.0,36.0,C,Y,BASELINE,2,2024-09-12,1
STUDY001,VS,STUDY001-SUBJ0004,9,BP,Blood Pressure,140/89,mmHg,140/89,,mmHg,Y,BASELINE,2,2024-09-12,1
STUDY001,VS,STUDY001-SUBJ0004,10,HR,Heart Rate,62,beats/min,62,62.0,beats/min,Y,BASELINE,2,2024-09-12,1
STUDY001,VS,STUDY001-SUBJ0004,11,HEIGHT,Height,189.5,cm,189.5,189.5,cm,,WEEK 1,3,2024-09-18,7
STUDY001,VS,STUDY001-SUBJ0004,12,WEIGHT,Weight,69.6,kg,69.6,69.6,kg,,WEEK 1,3,2024-09-18,7
STUDY001,VS,STUDY001-SUBJ0004,13,TEMP,Temperature,36.1,C,36.1,36.1,C,,WEEK 1,3,2024-09-18,7
STUDY001,VS,STUDY001-SUBJ0004,14,BP,Blood Pressure,141/90,mmHg,141/90,,mmHg,,WEEK 1,3,2024-09-18,7
STUDY001,VS,STUDY001-SUBJ0004,15,HR,Heart Rate,65,beats/min,65,65.0,beats/min,,WEEK 1,3,2024-09-18,7
STUDY001,VS,STUDY001-SUBJ0004,16,HEIGHT,Height,189.3,cm,189.3,189.3,cm,,WEEK 2,4,2024-09-25,14
STUDY001,VS,STUDY001-SUBJ0004,17,WEIGHT,Weight,69.3,kg,69.3,69.3,kg,,WEEK 2,4,2024-09-25,14
STUDY001,VS,STUDY001-SUBJ0004,18,TEMP,Temperature,36.1,C,36.1,36.1,C,,WEEK 2,4,2024-09-25,14
STUDY001,VS,STUDY001-SUBJ0004,19,BP,Blood Pressure,141/90,mmHg,141/90,,mmHg,,WEEK 2,4,2024-09-25,14
STUDY001,VS,STUDY001-SUBJ0004,20,HR,Heart Rate,57,beats/min,57,57.0,beats/min,,WEEK 2,4,2024-09-25,14
STUDY001,VS,STUDY001-SUBJ0004,21,HEIGHT,Height,189.6,cm,189.6,189.6,cm,,WEEK 4,5,2024-10-09,28
STUDY001,VS,STUDY001-SUBJ0004,22,WEIGHT,Weight,69.1,kg,69.1,69.1,kg,,WEEK 4,5,2024-10-09,28
STUDY001,VS,STUDY001-SUBJ0004,23,TEMP,Temperature,36.4,C,36.4,36.4,C,,WEEK 4,5,2024-10-09,28
STUDY001,VS,STUDY001-SUBJ0004,24,BP,Blood Pressure,143/94,mmHg,143/94,,mmHg,,WEEK 4,5,2024-10-09,28
STUDY001,VS,STUDY001-SUBJ0004,25,HR,Heart Rate,63,beats/min,63,63.0,beats/min,,WEEK 4,5,2024-10-09,28
STUDY001,VS,STUDY001-SUBJ0004,26,HEIGHT,Height,189.5,cm,189.5,189.5,cm,,WEEK 8,6,2024-11-06,56
STUDY001,VS,STUDY001-SUBJ0004,27,WEIGHT,Weight,68.6,kg,68.6,68.6,kg,,WEEK 8,6,2024-11-06,56
STUDY001,VS,STUDY001-SUBJ0004,28,TEMP,Temperature,36.3,C,36.3,36.3,C,,WEEK 8,6,2024-11-06,56
STUDY001,VS,STUDY001-SUBJ0004,29,BP,Blood Pressure,141/89,mmHg,141/89,,mmHg,,WEEK 8,6,2024-11-06,56
STUDY001,VS,STUDY001-SUBJ0004,30,HR,Heart Rate,64,beats/min,64,64.0,beats/min,,WEEK 8,6,2024-11-06,56
STUDY001,VS,STUDY001-SUBJ0004,31,HEIGHT,Height,189.5,cm,189.5,189.5,cm,,WEEK 12,7,2024-12-04,84
STUDY001,VS,STUDY001-SUBJ0004,32,WEIGHT,Weight,69.1,kg,69.1,69.1,kg,,WEEK 12,7,2024-12-04,84
STUDY001,VS,STUDY001-SUBJ0004,33,TEMP,Temperature,36.2,C,36.2,36.2,C,,WEEK 12,7,2024-12-04,84
STUDY001,VS,STUDY001-SUBJ0004,34,BP,Blood Pressure,149/95,mmHg,149/95,,mmHg,,WEEK 12,7,2024-12-04,84
STUDY001,VS,STUDY001-SUBJ0004,35,HR,Heart Rate,64,beats/min,64,64.0,beats/min,,WEEK 12,7,2024-12-04,84
STUDY001,VS,STUDY001-SUBJ0004,36,HEIGHT,Height,189.4,cm,189.4,189.4,cm,,WEEK 16,8,2025-01-01,112
STUDY001,VS,STUDY001-SUBJ0004,37,WEIGHT,Weight,70.0,kg,70.0,70.0,kg,,WEEK 16,8,2025-01-01,112
STUDY001,VS,STUDY001-SUBJ0004,38,TEMP,Temperature,36.4,C,36.4,36.4,C,,WEEK 16,8,2025-01-01,112
STUDY001,VS,STUDY001-SUBJ0004,39,BP,Blood Pressure,145/92,mmHg,145/92,,mmHg,,WEEK 16,8,2025-01-01,112
STUDY001,VS,STUDY001-SUBJ0004,40,HR,Heart Rate,59,beats/min,59,59.0,beats/min,,WEEK 16,8,2025-01-01,112
STUDY001,VS,STUDY001-SUBJ0004,41,HEIGHT,Height,189.3,cm,189.3,189.3,cm,,END OF TREATMENT,9,2025-01-29,140
STUDY001,VS,STUDY001-SUBJ0004,42,WEIGHT,Weight,69.6,kg,69.6,69.6,kg,,END OF TREATMENT,9,2025-01-29,140
STUDY001,VS,STUDY001-SUBJ0004,43,TEMP,Temperature,36.3,C,36.3,36.3,C,,END OF TREATMENT,9,2025-01-29,140
STUDY001,VS,STUDY001-SUBJ0004,44,BP,Blood Pressure,139/90,mmHg,139/90,,mmHg,,END OF TREATMENT,9,2025-01-29,140
STUDY001,VS,STUDY001-SUBJ0004,45,HR,Heart Rate,58,beats/min,58,58.0,beats/min,,END OF TREATMENT,9,2025-01-29,140
STUDY001,VS,STUDY001-SUBJ0005,1,HEIGHT,Height,192.8,cm,192.8,192.8,cm,,SCREENING,1,2024-09-20,-14
STUDY001,VS,STUDY001-SUBJ0005,2,WEIGHT,Weight,57.3,kg,57.3,57.3,kg,,SCREENING,1,2024-09-20,-14
STUDY001,VS,STUDY001-SUBJ0005,3,TEMP,Temperature,36.8,C,36.8,36.8,C,,SCREENING,1,2024-09-20,-14
STUDY001,VS,STUDY001-SUBJ0005,4,BP,Blood Pressure,139/96,mmHg,139/96,,mmHg,,SCREENING,1,2024-09-20,-14
STUDY001,VS,STUDY001-SUBJ0005,5,HR,Heart Rate,74,beats/min,74,74.0,beats/min,,SCREENING,1,2024-09-20,-14
STUDY001,VS,STUDY001-SUBJ0005,6,HEIGHT,Height,192.9,cm,192.9,192.9,cm,Y,BASELINE,2,2024-10-04,1
STUDY001,VS,STUDY001-SUBJ0005,7,WEIGHT,Weight,58.3,kg,58.3,58.3,kg,Y,BASELINE,2,2024-10-04,1
STUDY001,VS,STUDY001-SUBJ0005,8,TEMP,Temperature,36.5,C,36.5,36.5,C,Y,BASELINE,2,2024-10-04,1
STUDY001,VS,STUDY001-SUBJ0005,9,BP,Blood Pressure,134/95,mmHg,134/95,,mmHg,Y,BASELINE,2,2024-10-04,1
STUDY001,VS,STUDY001-SUBJ0005,10,HR,Heart Rate,74,beats/min,74,74.0,beats/min,Y,BASELINE,2,2024-10-04,1
STUDY001,VS,STUDY001-SUBJ0005,11,HEIGHT,Height,192.8,cm,192.8,192.8,cm,,WEEK 1,3,2024-10-10,7
STUDY001,VS,STUDY001-SUBJ0005,12,WEIGHT,Weight,57.4,kg,57.4,57.4,kg,,WEEK 1,3,2024-10-10,7
STUDY001,VS,STUDY001-SUBJ0005,13,TEMP,Temperature,36.8,C,36.8,36.8,C,,WEEK 1,3,2024-10-10,7
STUDY001,VS,STUDY001-SUBJ0005,14,BP,Blood Pressure,133/99,mmHg,133/99,,mmHg,,WEEK 1,3,2024-10-10,7
STUDY001,VS,STUDY001-SUBJ0005,15,HR,Heart Rate,71,beats/min,71,71.0,beats/min,,WEEK 1,3,2024-10-10,7
STUDY001,VS,STUDY001-SUBJ0005,16,HEIGHT,Height,192.8,cm,192.8,192.8,cm,,WEEK 2,4,2024-10-17,14
STUDY001,VS,STUDY001-SUBJ0005,17,WEIGHT,Weight,58.1,kg,58.1,58.1,kg,,WEEK 2,4,2024-10-17,14
STUDY001,VS,STUDY001-SUBJ0005,18,TEMP,Temperature,37.0,C,37.0,37.0,C,,WEEK 2,4,2024-10-17,14
STUDY001,VS,STUDY001-SUBJ0005,19,BP,Blood Pressure,133/100,mmHg,133/100,,mmHg,,WEEK 2,4,2024-10-17,14
STUDY001,VS,STUDY001-SUBJ0005,20,HR,Heart Rate,67,beats/min,67,67.0,beats/min,,WEEK 2,4,2024-10-17,14
STUDY001,VS,STUDY001-SUBJ0005,21,HEIGHT,Height,192.8,cm,192.8,192.8,cm,,WEEK 4,5,2024-10-31,28
STUDY001,VS,STUDY001-SUBJ0005,22,WEIGHT,Weight,58.9,kg,58.9,58.9,kg,,WEEK 4,5,2024-10-31,28
STUDY001,VS,STUDY001-SUBJ0005,23,TEMP,Temperature,36.7,C,36.7,36.7,C,,WEEK 4,5,2024-10-31,28
STUDY001,VS,STUDY001-SUBJ0005,24,BP,Blood Pressure,136/94,mmHg,136/94,,mmHg,,WEEK 4,5,2024-10-31,28
STUDY001,VS,STUDY001-SUBJ0005,25,HR,Heart Rate,70,beats/min,70,70.0,beats/min,,WEEK 4,5,2024-10-31,28
STUDY001,VS,STUDY001-SUBJ0005,26,HEIGHT,Height,192.8,cm,192.8,192.8,cm,,WEEK 8,6,2024-11-28,56
STUDY001,VS,STUDY001-SUBJ0005,27,WEIGHT,Weight,58.6,kg,58.6,58.6,kg,,WEEK 8,6,2024-11-28,56
STUDY001,VS,STUDY001-SUBJ0005,28,TEMP,Temperature,36.6,C,36.6,36.6,C,,WEEK 8,6,2024-11-28,56
STUDY001,VS,STUDY001-SUBJ0005,29,BP,Blood Pressure,141/100,mmHg,141/100,,mmHg,,WEEK 8,6,2024-11-28,56
STUDY001,VS,STUDY001-SUBJ0005,30,HR,Heart Rate,73,beats/min,73,73.0,beats/min,,WEEK 8,6,2024-11-28,56
STUDY001,VS,STUDY001-SUBJ0005,31,HEIGHT,Height,192.7,cm,192.7,192.7,cm,,WEEK 12,7,2024-12-26,84
STUDY001,VS,STUDY001-SUBJ0005,32,WEIGHT,Weight,58.1,kg,58.1,58.1,kg,,WEEK 12,7,2024-12-26,84
STUDY001,VS,STUDY001-SUBJ0005,33,TEMP,Temperature,36.4,C,36.4,36.4,C,,WEEK 12,7,2024-12-26,84
STUDY001,VS,STUDY001-SUBJ0005,34,BP,Blood Pressure,141/96,mmHg,141/96,,mmHg,,WEEK 12,7,2024-12-26,84
STUDY001,VS,STUDY001-SUBJ0005,35,HR,Heart Rate,74,beats/min,74,74.0,beats/min,,WEEK 12,7,2024-12-26,84
STUDY001,VS,STUDY001-SUBJ0005,36,HEIGHT,Height,192.9,cm,192.9,192.9,cm,,WEEK 16,8,2025-01-23,112
STUDY001,VS,STUDY001-SUBJ0005,37,WEIGHT,Weight,58.1,kg,58.1,58.1,kg,,WEEK 16,8,2025-01-23,112
STUDY001,VS,STUDY001-SUBJ0005,38,TEMP,Temperature,36.7,C,36.7,36.7,C,,WEEK 16,8,2025-01-23,112
STUDY001,VS,STUDY001-SUBJ0005,39,BP,Blood Pressure,140/95,mmHg,140/95,,mmHg,,WEEK 16,8,2025-01-23,112
STUDY001,VS,STUDY001-SUBJ0005,40,HR,Heart Rate,74,beats/min,74,74.0,beats/min,,WEEK 16,8,2025-01-23,112
STUDY001,VS,STUDY001-SUBJ0005,41,HEIGHT,Height,192.6,cm,192.6,192.6,cm,,END OF TREATMENT,9,2025-02-20,140
STUDY001,VS,STUDY001-SUBJ0005,42,WEIGHT,Weight,57.2,kg,57.2,57.2,kg,,END OF TREATMENT,9,2025-02-20,140
STUDY001,VS,STUDY001-SUBJ0005,43,TEMP,Temperature,36.8,C,36.8,36.8,C,,END OF TREATMENT,9,2025-02-20,140
STUDY001,VS,STUDY001-SUBJ0005,44,BP,Blood Pressure,136/100,mmHg,136/100,,mmHg,,END OF TREATMENT,9,2025-02-20,140
STUDY001,VS,STUDY001-SUBJ0005,45,HR,Heart Rate,67,beats/min,67,67.0,beats/min,,END OF TREATMENT,9,2025-02-20,140
STUDY001,VS,STUDY001-SUBJ0006,1,HEIGHT,Height,168.1,cm,168.1,168.1,cm,,SCREENING,1,2024-10-03,-14
STUDY001,VS,STUDY001-SUBJ0006,2,WEIGHT,Weight,104.8,kg,104.8,104.8,kg,,SCREENING,1,2024-10-03,-14
STUDY001,VS,STUDY001-SUBJ0006,3,TEMP,Temperature,36.9,C,36.9,36.9,C,,SCREENING,1,2024-10-03,-14
STUDY001,VS,STUDY001-SUBJ0006,4,BP,Blood Pressure,145/68,mmHg,145/68,,mmHg,,SCREENING,1,2024-10-03,-14
STUDY001,VS,STUDY001-SUBJ0006,5,HR,Heart Rate,85,beats/min,85,85.0,beats/min,,SCREENING,1,2024-10-03,-14
STUDY001,VS,STUDY001-SUBJ0006,6,HEIGHT,Height,168.2,cm,168.2,168.2,cm,Y,BASELINE,2,2024-10-17,1
STUDY001,VS,STUDY001-SUBJ0006,7,WEIGHT,Weight,104.8,kg,104.8,104.8,kg,Y,BASELINE,2,2024-10-17,1
STUDY001,VS,STUDY001-SUBJ0006,8,TEMP,Temperature,37.0,C,37.0,37.0,C,Y,BASELINE,2,2024-10-17,1
STUDY001,VS,STUDY001-SUBJ0006,9,BP,Blood Pressure,143/70,mmHg,143/70,,mmHg,Y,BASELINE,2,2024-10-17,1
STUDY001,VS,STUDY001-SUBJ0006,10,HR,Heart Rate,85,beats/min,85,85.0,beats/min,Y,BASELINE,2,2024-10-17,1
STUDY001,VS,STUDY001-SUBJ0006,11,HEIGHT,Height,168.1,cm,168.1,168.1,cm,,WEEK 1,3,2024-10-23,7
STUDY001,VS,STUDY001-SUBJ0006,12,WEIGHT,Weight,104.2,kg,104.2,104.2,kg,,WEEK 1,3,2024-10-23,7
STUDY001,VS,STUDY001-SUBJ0006,13,TEMP,Temperature,36.9,C,36.9,36.9,C,,WEEK 1,3,2024-10-23,7
STUDY001,VS,STUDY001-SUBJ0006,14,BP,Blood Pressure,146/74,mmHg,146/74,,mmHg,,WEEK 1,3,2024-10-23,7
STUDY001,VS,STUDY001-SUBJ0006,15,HR,Heart Rate,78,beats/min,78,78.0,beats/min,,WEEK 1,3,2024-10-23,7
STUDY001,VS,STUDY001-SUBJ0006,16,HEIGHT,Height,168.0,cm,168.0,168.0,cm,,WEEK 2,4,2024-10-30,14
STUDY001,VS,STUDY001-SUBJ0006,17,WEIGHT,Weight,105.0,kg,105.0,105.0,kg,,WEEK 2,4,2024-10-30,14
STUDY001,VS,STUDY001-SUBJ0006,18,TEMP,Temperature,37.0,C,37.0,37.0,C,,WEEK 2,4,2024-10-30,14
STUDY001,VS,STUDY001-SUBJ0006,19,BP,Blood Pressure,145/74,mmHg,145/74,,mmHg,,WEEK 2,4,2024-10-30,14
STUDY001,VS,STUDY001-SUBJ0006,20,HR,Heart Rate,85,beats/min,85,85.0,beats/min,,WEEK 2,4,2024-10-30,14
STUDY001,VS,STUDY001-SUBJ0006,21,HEIGHT,Height,168.1,cm,168.1,168.1,cm,,WEEK 4,5,2024-11-13,28
STUDY001,VS,STUDY001-SUBJ0006,22,WEIGHT,Weight,105.4,kg,105.4,105.4,kg,,WEEK 4,5,2024-11-13,28
STUDY001,VS,STUDY001-SUBJ0006,23,TEMP,Temperature,36.6,C,36.6,36.6,C,,WEEK 4,5,2024-11-13,28
STUDY001,VS,STUDY001-SUBJ0006,24,BP,Blood Pressure,146/74,mmHg,146/74,,mmHg,,WEEK 4,5,2024-11-13,28
STUDY001,VS,STUDY001-SUBJ0006,25,HR,Heart Rate,87,beats/min,87,87.0,beats/min,,WEEK 4,5,2024-11-13,28
STUDY001,VS,STUDY001-SUBJ0006,26,HEIGHT,Height,168.2,cm,168.2,168.2,cm,,WEEK 8,6,2024-12-11,56
STUDY001,VS,STUDY001-SUBJ0006,27,WEIGHT,Weight,104.2,kg,104.2,104.2,kg,,WEEK 8,6,2024-12-11,56
STUDY001,VS,STUDY001-SUBJ0006,28,TEMP,Temperature,36.8,C,36.8,36.8,C,,WEEK 8,6,2024-12-11,56
STUDY001,VS,STUDY001-SUBJ0006,29,BP,Blood Pressure,148/71,mmHg,148/71,,mmHg,,WEEK 8,6,2024-12-11,56
STUDY001,VS,STUDY001-SUBJ0006,30,HR,Heart Rate,88,beats/min,88,88.0,beats/min,,WEEK 8,6,2024-12-11,56
STUDY001,VS,STUDY001-SUBJ0006,31,HEIGHT,Height,168.1,cm,168.1,168.1,cm,,WEEK 12,7,2025-01-08,84
STUDY001,VS,STUDY001-SUBJ0006,32,WEIGHT,Weight,104.2,kg,104.2,104.2,kg,,WEEK 12,7,2025-01-08,84
STUDY001,VS,STUDY001-SUBJ0006,33,TEMP,Temperature,36.7,C,36.7,36.7,C,,WEEK 12,7,2025-01-08,84
STUDY001,VS,STUDY001-SUBJ0006,34,BP,Blood Pressure,147/76,mmHg,147/76,,mmHg,,WEEK 12,7,2025-01-08,84
STUDY001,VS,STUDY001-SUBJ0006,35,HR,Heart Rate,78,beats/min,78,78.0,beats/min,,WEEK 12,7,2025-01-08,84
STUDY001,VS,STUDY001-SUBJ0006,36,HEIGHT,Height,168.0,cm,168.0,168.0,cm,,WEEK 16,8,2025-02-05,112
STUDY001,VS,STUDY001-SUBJ0006,37,WEIGHT,Weight,105.1,kg,105.1,105.1,kg,,WEEK 16,8,2025-02-05,112
STUDY001,VS,STUDY001-SUBJ0006,38,TEMP,Temperature,36.6,C,36.6,36.6,C,,WEEK 16,8,2025-02-05,112
STUDY001,VS,STUDY001-SUBJ0006,39,BP,Blood Pressure,143/68,mmHg,143/68,,mmHg,,WEEK 16,8,2025-02-05,112
STUDY001,VS,STUDY001-SUBJ0006,40,HR,Heart Rate,83,beats/min,83,83.0,beats/min,,WEEK 16,8,2025-02-05,112
STUDY001,VS,STUDY001-SUBJ0006,41,HEIGHT,Height,168.0,cm,168.0,168.0,cm,,END OF TREATMENT,9,2025-03-05,140
STUDY001,VS,STUDY001-SUBJ0006,42,WEIGHT,Weight,105.1,kg,105.1,105.1,kg,,END OF TREATMENT,9,2025-03-05,140
STUDY001,VS,STUDY001-SUBJ0006,43,TEMP,Temperature,36.5,C,36.5,36.5,C,,END OF TREATMENT,9,2025-03-05,140
STUDY001,VS,STUDY001-SUBJ0006,44,BP,Blood Pressure,147/66,mmHg,147/66,,mmHg,,END OF TREATMENT,9,2025-03-05,140
STUDY001,VS,STUDY001-SUBJ0006,45,HR,Heart Rate,82,beats/min,82,82.0,beats/min,,END OF TREATMENT,9,2025-03-05,140
STUDY001,VS,STUDY001-SUBJ0007,1,HEIGHT,Height,170.4,cm,170.4,170.4,cm,,SCREENING,1,2024-11-11,-14
STUDY001,VS,STUDY001-SUBJ0007,2,WEIGHT,Weight,108.1,kg,108.1,108.1,kg,,SCREENING,1,2024-11-11,-14
STUDY001,VS,STUDY001-SUBJ0007,3,TEMP,Temperature,36.2,C,36.2,36.2,C,,SCREENING,1,2024-11-11,-14
STUDY001,VS,STUDY001-SUBJ0007,4,BP,Blood Pressure,139/90,mmHg,139/90,,mmHg,,SCREENING,1,2024-11-11,-14
STUDY001,VS,STUDY001-SUBJ0007,5,HR,Heart Rate,61,beats/min,61,61.0,beats/min,,SCREENING,1,2024-11-11,-14
STUDY001,VS,STUDY001-SUBJ0007,6,HEIGHT,Height,170.2,cm,170.2,170.2,cm,Y,BASELINE,2,2024-11-25,1
STUDY001,VS,STUDY001-SUBJ0007,7,WEIGHT,Weight,109.1,kg,109.1,109.1,kg,Y,BASELINE,2,2024-11-25,1
STUDY001,VS,STUDY001-SUBJ0007,8,TEMP,Temperature,36.2,C,36.2,36.2,C,Y,BASELINE,2,2024-11-25,1
STUDY001,VS,STUDY001-SUBJ0007,9,BP,Blood Pressure,137/87,mmHg,137/87,,mmHg,Y,BASELINE,2,2024-11-25,1
STUDY001,VS,STUDY001-SUBJ0007,10,HR,Heart Rate,61,beats/min,61,61.0,beats/min,Y,BASELINE,2,2024-11-25,1
STUDY001,VS,STUDY001-SUBJ0007,11,HEIGHT,Height,170.6,cm,170.6,170.6,cm,,WEEK 1,3,2024-12-01,7
STUDY001,VS,STUDY001-SUBJ0007,12,WEIGHT,Weight,107.8,kg,107.8,107.8,kg,,WEEK 1,3,2024-12-01,7
STUDY001,VS,STUDY001-SUBJ0007,13,TEMP,Temperature,36.5,C,36.5,36.5,C,,WEEK 1,3,2024-12-01,7
STUDY001,VS,STUDY001-SUBJ0007,14,BP,Blood Pressure,134/92,mmHg,134/92,,mmHg,,WEEK 1,3,2024-12-01,7
STUDY001,VS,STUDY001-SUBJ0007,15,HR,Heart Rate,63,beats/min,63,63.0,beats/min,,WEEK 1,3,2024-12-01,7
STUDY001,VS,STUDY001-SUBJ0007,16,HEIGHT,Height,170.2,cm,170.2,170.2,cm,,WEEK 2,4,2024-12-08,14
STUDY001,VS,STUDY001-SUBJ0007,17,WEIGHT,Weight,109.0,kg,109.0,109.0,kg,,WEEK 2,4,2024-12-08,14
STUDY001,VS,STUDY001-SUBJ0007,18,TEMP,Temperature,36.2,C,36.2,36.2,C,,WEEK 2,4,2024-12-08,14
STUDY001,VS,STUDY001-SUBJ0007,19,BP,Blood Pressure,130/90,mmHg,130/90,,mmHg,,WEEK 2,4,2024-12-08,14
STUDY001,VS,STUDY001-SUBJ0007,20,HR,Heart Rate,63,beats/min,63,63.0,beats/min,,WEEK 2,4,2024-12-08,14
STUDY001,VS,STUDY001-SUBJ0007,21,HEIGHT,Height,170.4,cm,170.4,170.4,cm,,WEEK 4,5,2024-12-22,28
STUDY001,VS,STUDY001-SUBJ0007,22,WEIGHT,Weight,108.6,kg,108.6,108.6,kg,,WEEK 4,5,2024-12-22,28
STUDY001,VS,STUDY001-SUBJ0007,23,TEMP,Temperature,36.5,C,36.5,36.5,C,,WEEK 4,5,2024-12-22,28
STUDY001,VS,STUDY001-SUBJ0007,24,BP,Blood Pressure,137/87,mmHg,137/87,,mmHg,,WEEK 4,5,2024-12-22,28
STUDY001,VS,STUDY001-SUBJ0007,25,HR,Heart Rate,68,beats/min,68,68.0,beats/min,,WEEK 4,5,2024-12-22,28
STUDY001,VS,STUDY001-SUBJ0007,26,HEIGHT,Height,170.5,cm,170.5,170.5,cm,,WEEK 8,6,2025-01-19,56
STUDY001,VS,STUDY001-SUBJ0007,27,WEIGHT,Weight,108.0,kg,108.0,108.0,kg,,WEEK 8,6,2025-01-19,56
STUDY001,VS,STUDY001-SUBJ0007,28,TEMP,Temperature,36.2,C,36.2,36.2,C,,WEEK 8,6,2025-01-19,56
STUDY001,VS,STUDY001-SUBJ0007,29,BP,Blood Pressure,135/86,mmHg,135/86,,mmHg,,WEEK 8,6,2025-01-19,56
STUDY001,VS,STUDY001-SUBJ0007,30,HR,Heart Rate,63,beats/min,63,63.0,beats/min,,WEEK 8,6,2025-01-19,56
STUDY001,VS,STUDY001-SUBJ0007,31,HEIGHT,Height,170.4,cm,170.4,170.4,cm,,WEEK 12,7,2025-02-16,84
STUDY001,VS,STUDY001-SUBJ0007,32,WEIGHT,Weight,109.1,kg,109.1,109.1,kg,,WEEK 12,7,2025-02-16,84
STUDY001,VS,STUDY001-SUBJ0007,33,TEMP,Temperature,36.4,C,36.4,36.4,C,,WEEK 12,7,2025-02-16,84
STUDY001,VS,STUDY001-SUBJ0007,34,BP,Blood Pressure,138/86,mmHg,138/86,,mmHg,,WEEK 12,7,2025-02-16,84
STUDY001,VS,STUDY001-SUBJ0007,35,HR,Heart Rate,61,beats/min,61,61.0,beats/min,,WEEK 12,7,2025-02-16,84
STUDY001,VS,STUDY001-SUBJ0007,36,HEIGHT,Height,170.3,cm,170.3,170.3,cm,,WEEK 16,8,2025-03-16,112
STUDY001,VS,STUDY001-SUBJ0007,37,WEIGHT,Weight,109.2,kg,109.2,109.2,kg,,WEEK 16,8,2025-03-16,112
STUDY001,VS,STUDY001-SUBJ0007,38,TEMP,Temperature,36.4,C,36.4,36.4,C,,WEEK 16,8,2025-03-16,112
STUDY001,VS,STUDY001-SUBJ0007,39,BP,Blood Pressure,134/94,mmHg,134/94,,mmHg,,WEEK 16,8,2025-03-16,112
STUDY001,VS,STUDY001-SUBJ0007,40,HR,Heart Rate,66,beats/min,66,66.0,beats/min,,WEEK 16,8,2025-03-16,112
STUDY001,VS,STUDY001-SUBJ0007,41,HEIGHT,Height,170.3,cm,170.3,170.3,cm,,END OF TREATMENT,9,2025-04-13,140
STUDY001,VS,STUDY001-SUBJ0007,42,WEIGHT,Weight,109.3,kg,109.3,109.3,kg,,END OF TREATMENT,9,2025-04-13,140
STUDY001,VS,STUDY001-SUBJ0007,43,TEMP,Temperature,36.1,C,36.1,36.1,C,,END OF TREATMENT,9,2025-04-13,140
STUDY001,VS,STUDY001-SUBJ0007,44,BP,Blood Pressure,131/89,mmHg,131/89,,mmHg,,END OF TREATMENT,9,2025-04-13,140
STUDY001,VS,STUDY001-SUBJ0007,45,HR,Heart Rate,68,beats/min,68,68.0,beats/min,,END OF TREATMENT,9,2025-04-13,140
STUDY001,VS,STUDY001-SUBJ0008,1,HEIGHT,Height,199.8,cm,199.8,199.8,cm,,SCREENING,1,2025-06-25,-14
STUDY001,VS,STUDY001-SUBJ0008,2,WEIGHT,Weight,104.4,kg,104.4,104.4,kg,,SCREENING,1,2025-06-25,-14
STUDY001,VS,STUDY001-SUBJ0008,3,TEMP,Temperature,37.0,C,37.0,37.0,C,,SCREENING,1,2025-06-25,-14
STUDY001,VS,STUDY001-SUBJ0008,4,BP,Blood Pressure,142/76,mmHg,142/76,,mmHg,,SCREENING,1,2025-06-25,-14
STUDY001,VS,STUDY001-SUBJ0008,5,HR,Heart Rate,68,beats/min,68,68.0,beats/min,,SCREENING,1,2025-06-25,-14
STUDY001,VS,STUDY001-SUBJ0008,6,HEIGHT,Height,199.6,cm,199.6,199.6,cm,Y,BASELINE,2,2025-07-09,1
STUDY001,VS,STUDY001-SUBJ0008,7,WEIGHT,Weight,103.8,kg,103.8,103.8,kg,Y,BASELINE,2,2025-07-09,1
STUDY001,VS,STUDY001-SUBJ0008,8,TEMP,Temperature,36.8,C,36.8,36.8,C,Y,BASELINE,2,2025-07-09,1
STUDY001,VS,STUDY001-SUBJ0008,9,BP,Blood Pressure,144/72,mmHg,144/72,,mmHg,Y,BASELINE,2,2025-07-09,1
STUDY001,VS,STUDY001-SUBJ0008,10,HR,Heart Rate,69,beats/min,69,69.0,beats/min,Y,BASELINE,2,2025-07-09,1
STUDY001,VS,STUDY001-SUBJ0008,11,HEIGHT,Height,199.7,cm,199.7,199.7,cm,,WEEK 1,3,2025-07-15,7
STUDY001,VS,STUDY001-SUBJ0008,12,WEIGHT,Weight,104.7,kg,104.7,104.7,kg,,WEEK 1,3,2025-07-15,7
STUDY001,VS,STUDY001-SUBJ0008,13,TEMP,Temperature,37.1,C,37.1,37.1,C,,WEEK 1,3,2025-07-15,7
STUDY001,VS,STUDY001-SUBJ0008,14,BP,Blood Pressure,142/76,mmHg,142/76,,mmHg,,WEEK 1,3,2025-07-15,7
STUDY001,VS,STUDY001-SUBJ0008,15,HR,Heart Rate,67,beats/min,67,67.0,beats/min,,WEEK 1,3,2025-07-15,7
STUDY001,VS,STUDY001-SUBJ0008,16,HEIGHT,Height,199.8,cm,199.8,199.8,cm,,WEEK 2,4,2025-07-22,14
STUDY001,VS,STUDY001-SUBJ0008,17,WEIGHT,Weight,103.6,kg,103.6,103.6,kg,,WEEK 2,4,2025-07-22,14
STUDY001,VS,STUDY001-SUBJ0008,18,TEMP,Temperature,36.8,C,36.8,36.8,C,,WEEK 2,4,2025-07-22,14
STUDY001,VS,STUDY001-SUBJ0008,19,BP,Blood Pressure,146/80,mmHg,146/80,,mmHg,,WEEK 2,4,2025-07-22,14
STUDY001,VS,STUDY001-SUBJ0008,20,HR,Heart Rate,71,beats/min,71,71.0,beats/min,,WEEK 2,4,2025-07-22,14
STUDY001,VS,STUDY001-SUBJ0008,21,HEIGHT,Height,199.6,cm,199.6,199.6,cm,,WEEK 4,5,2025-08-05,28
STUDY001,VS,STUDY001-SUBJ0008,22,WEIGHT,Weight,105.3,kg,105.3,105.3,kg,,WEEK 4,5,2025-08-05,28
STUDY001,VS,STUDY001-SUBJ0008,23,TEMP,Temperature,36.9,C,36.9,36.9,C,,WEEK 4,5,2025-08-05,28
STUDY001,VS,STUDY001-SUBJ0008,24,BP,Blood Pressure,144/73,mmHg,144/73,,mmHg,,WEEK 4,5,2025-08-05,28
STUDY001,VS,STUDY001-SUBJ0008,25,HR,Heart Rate,70,beats/min,70,70.0,beats/min,,WEEK 4,5,2025-08-05,28
STUDY001,VS,STUDY001-SUBJ0008,26,HEIGHT,Height,199.6,cm,199.6,199.6,cm,,WEEK 8,6,2025-09-02,56
STUDY001,VS,STUDY001-SUBJ0008,27,WEIGHT,Weight,104.1,kg,104.1,104.1,kg,,WEEK 8,6,2025-09-02,56
STUDY001,VS,STUDY001-SUBJ0008,28,TEMP,Temperature,37.1,C,37.1,37.1,C,,WEEK 8,6,2025-09-02,56
STUDY001,VS,STUDY001-SUBJ0008,29,BP,Blood Pressure,141/76,mmHg,141/76,,mmHg,,WEEK 8,6,2025-09-02,56
STUDY001,VS,STUDY001-SUBJ0008,30,HR,Heart Rate,71,beats/min,71,71.0,beats/min,,WEEK 8,6,2025-09-02,56
STUDY001,VS,STUDY001-SUBJ0008,31,HEIGHT,Height,199.7,cm,199.7,199.7,cm,,WEEK 12,7,2025-09-30,84
STUDY001,VS,STUDY001-SUBJ0008,32,WEIGHT,Weight,103.6,kg,103.6,103.6,kg,,WEEK 12,7,2025-09-30,84
STUDY001,VS,STUDY001-SUBJ0008,33,TEMP,Temperature,37.1,C,37.1,37.1,C,,WEEK 12,7,2025-09-30,84
STUDY001,VS,STUDY001-SUBJ0008,34,BP,Blood Pressure,144/74,mmHg,144/74,,mmHg,,WEEK 12,7,2025-09-30,84
STUDY001,VS,STUDY001-SUBJ0008,35,HR,Heart Rate,69,beats/min,69,69.0,beats/min,,WEEK 12,7,2025-09-30,84
STUDY001,VS,STUDY001-SUBJ0008,36,HEIGHT,Height,199.7,cm,199.7,199.7,cm,,WEEK 16,8,2025-10-28,112
STUDY001,VS,STUDY001-SUBJ0008,37,WEIGHT,Weight,105.1,kg,105.1,105.1,kg,,WEEK 16,8,2025-10-28,112
STUDY001,VS,STUDY001-SUBJ0008,38,TEMP,Temperature,37.1,C,37.1,37.1,C,,WEEK 16,8,2025-10-28,112
STUDY001,VS,STUDY001-SUBJ0008,39,BP,Blood Pressure,147/71,mmHg,147/71,,mmHg,,WEEK 16,8,2025-10-28,112
STUDY001,VS,STUDY001-SUBJ0008,40,HR,Heart Rate,72,beats/min,72,72.0,beats/min,,WEEK 16,8,2025-10-28,112
STUDY001,VS,STUDY001-SUBJ0008,41,HEIGHT,Height,199.9,cm,199.9,199.9,cm,,END OF TREATMENT,9,2025-11-25,140
STUDY001,VS,STUDY001-SUBJ0008,42,WEIGHT,Weight,103.4,kg,103.4,103.4,kg,,END OF TREATMENT,9,2025-11-25,140
STUDY001,VS,STUDY001-SUBJ0008,43,TEMP,Temperature,36.9,C,36.9,36.9,C,,END OF TREATMENT,9,2025-11-25,140
STUDY001,VS,STUDY001-SUBJ0008,44,BP,Blood Pressure,142/74,mmHg,142/74,,mmHg,,END OF TREATMENT,9,2025-11-25,140
STUDY001,VS,STUDY001-SUBJ0008,45,HR,Heart Rate,73,beats/min,73,73.0,beats/min,,END OF TREATMENT,9,2025-11-25,140
STUDY001,VS,STUDY001-SUBJ0009,1,HEIGHT,Height,188.8,cm,188.8,188.8,cm,,SCREENING,1,2024-11-16,-14
STUDY001,VS,STUDY001-SUBJ0009,2,WEIGHT,Weight,114.5,kg,114.5,114.5,kg,,SCREENING,1,2024-11-16,-14
STUDY001,VS,STUDY001-SUBJ0009,3,TEMP,Temperature,36.9,C,36.9,36.9,C,,SCREENING,1,2024-11-16,-14
STUDY001,VS,STUDY001-SUBJ0009,4,BP,Blood Pressure,139/92,mmHg,139/92,,mmHg,,SCREENING,1,2024-11-16,-14
STUDY001,VS,STUDY001-SUBJ0009,5,HR,Heart Rate,78,beats/min,78,78.0,beats/min,,SCREENING,1,2024-11-16,-14
STUDY001,VS,STUDY001-SUBJ0009,6,HEIGHT,Height,188.7,cm,188.7,188.7,cm,Y,BASELINE,2,2024-11-30,1
STUDY001,VS,STUDY001-SUBJ0009,7,WEIGHT,Weight,114.3,kg,114.3,114.3,kg,Y,BASELINE,2,2024-11-30,1
STUDY001,VS,STUDY001-SUBJ0009,8,TEMP,Temperature,36.9,C,36.9,36.9,C,Y,BASELINE,2,2024-11-30,1
STUDY001,VS,STUDY001-SUBJ0009,9,BP,Blood Pressure,133/87,mmHg,133/87,,mmHg,Y,BASELINE,2,2024-11-30,1
STUDY001,VS,STUDY001-SUBJ0009,10,HR,Heart Rate,77,beats/min,77,77.0,beats/min,Y,BASELINE,2,2024-11-30,1
STUDY001,VS,STUDY001-SUBJ0009,11,HEIGHT,Height,188.8,cm,188.8,188.8,cm,,WEEK 1,3,2024-12-06,7
STUDY001,VS,STUDY001-SUBJ0009,12,WEIGHT,Weight,113.4,kg,113.4,113.4,kg,,WEEK 1,3,2024-12-06,7
STUDY001,VS,STUDY001-SUBJ0009,13,TEMP,Temperature,36.7,C,36.7,36.7,C,,WEEK 1,3,2024-12-06,7
STUDY001,VS,STUDY001-SUBJ0009,14,BP,Blood Pressure,131/86,mmHg,131/86,,mmHg,,WEEK 1,3,2024-12-06,7
STUDY001,VS,STUDY001-SUBJ0009,15,HR,Heart Rate,78,beats/min,78,78.0,beats/min,,WEEK 1,3,2024-12-06,7
STUDY001,VS,STUDY001-SUBJ0009,16,HEIGHT,Height,188.9,cm,188.9,188.9,cm,,WEEK 2,4,2024-12-13,14
STUDY001,VS,STUDY001-SUBJ0009,17,WEIGHT,Weight,114.0,kg,114.0,114.0,kg,,WEEK 2,4,2024-12-13,14
STUDY001,VS,STUDY001-SUBJ0009,18,TEMP,Temperature,36.9,C,36.9,36.9,C,,WEEK 2,4,2024-12-13,14
STUDY001,VS,STUDY001-SUBJ0009,19,BP,Blood Pressure,134/86,mmHg,134/86,,mmHg,,WEEK 2,4,2024-12-13,14
STUDY001,VS,STUDY001-SUBJ0009,20,HR,Heart Rate,79,beats/min,79,79.0,beats/min,,WEEK 2,4,2024-12-13,14
STUDY001,VS,STUDY001-SUBJ0009,21,HEIGHT,Height,189.0,cm,189.0,189.0,cm,,WEEK 4,5,2024-12-27,28
STUDY001,VS,STUDY001-SUBJ0009,22,WEIGHT,Weight,113.6,kg,113.6,113.6,kg,,WEEK 4,5,2024-12-27,28
STUDY001,VS,STUDY001-SUBJ0009,23,TEMP,Temperature,36.6,C,36.6,36.6,C,,WEEK 4,5,2024-12-27,28
STUDY001,VS,STUDY001-SUBJ0009,24,BP,Blood Pressure,136/92,mmHg,136/92,,mmHg,,WEEK 4,5,2024-12-27,28
STUDY001,VS,STUDY001-SUBJ0009,25,HR,Heart Rate,81,beats/min,81,81.0,beats/min,,WEEK 4,5,2024-12-27,28
STUDY001,VS,STUDY001-SUBJ0009,26,HEIGHT,Height,188.7,cm,188.7,188.7,cm,,WEEK 8,6,2025-01-24,56
STUDY001,VS,STUDY001-SUBJ0009,27,WEIGHT,Weight,114.6,kg,114.6,114.6,kg,,WEEK 8,6,2025-01-24,56
STUDY001,VS,STUDY001-SUBJ0009,28,TEMP,Temperature,36.7,C,36.7,36.7,C,,WEEK 8,6,2025-01-24,56
STUDY001,VS,STUDY001-SUBJ0009,29,BP,Blood Pressure,137/90,mmHg,137/90,,mmHg,,WEEK 8,6,2025-01-24,56
STUDY001,VS,STUDY001-SUBJ0009,30,HR,Heart Rate,84,beats/min,84,84.0,beats/min,,WEEK 8,6,2025-01-24,56
STUDY001,VS,STUDY001-SUBJ0009,31,HEIGHT,Height,188.8,cm,188.8,188.8,cm,,WEEK 12,7,2025-02-21,84
STUDY001,VS,STUDY001-SUBJ0009,32,WEIGHT,Weight,113.5,kg,113.5,113.5,kg,,WEEK 12,7,2025-02-21,84
STUDY001,VS,STUDY001-SUBJ0009,33,TEMP,Temperature,36.7,C,36.7,36.7,C,,WEEK 12,7,2025-02-21,84
STUDY001,VS,STUDY001-SUBJ0009,34,BP,Blood Pressure,131/91,mmHg,131/91,,mmHg,,WEEK 12,7,2025-02-21,84
STUDY001,VS,STUDY001-SUBJ0009,35,HR,Heart Rate,84,beats/min,84,84.0,beats/min,,WEEK 12,7,2025-02-21,84
STUDY001,VS,STUDY001-SUBJ0009,36,HEIGHT,Height,188.6,cm,188.6,188.6,cm,,WEEK 16,8,2025-03-21,112
STUDY001,VS,STUDY001-SUBJ0009,37,WEIGHT,Weight,113.5,kg,113.5,113.5,kg,,WEEK 16,8,2025-03-21,112
STUDY001,VS,STUDY001-SUBJ0009,38,TEMP,Temperature,37.2,C,37.2,37.2,C,,WEEK 16,8,2025-03-21,112
STUDY001,VS,STUDY001-SUBJ0009,39,BP,Blood Pressure,136/92,mmHg,136/92,,mmHg,,WEEK 16,8,2025-03-21,112
STUDY001,VS,STUDY001-SUBJ0009,40,HR,Heart Rate,79,beats/min,79,79.0,beats/min,,WEEK 16,8,2025-03-21,112
STUDY001,VS,STUDY001-SUBJ0009,41,HEIGHT,Height,188.8,cm,188.8,188.8,cm,,END OF TREATMENT,9,2025-04-18,140
STUDY001,VS,STUDY001-SUBJ0009,42,WEIGHT,Weight,113.3,kg,113.3,113.3,kg,,END OF TREATMENT,9,2025-04-18,140
STUDY001,VS,STUDY001-SUBJ0009,43,TEMP,Temperature,36.9,C,36.9,36.9,C,,END OF TREATMENT,9,2025-04-18,140
STUDY001,VS,STUDY001-SUBJ0009,44,BP,Blood Pressure,137/85,mmHg,137/85,,mmHg,,END OF TREATMENT,9,2025-04-18,140
STUDY001,VS,STUDY001-SUBJ0009,45,HR,Heart Rate,80,beats/min,80,80.0,beats/min,,END OF TREATMENT,9,2025-04-18,140
STUDY001,VS,STUDY001-SUBJ0010,1,HEIGHT,Height,182.0,cm,182.0,182.0,cm,,SCREENING,1,2024-09-16,-14
STUDY001,VS,STUDY001-SUBJ0010,2,WEIGHT,Weight,104.5,kg,104.5,104.5,kg,,SCREENING,1,2024-09-16,-14
STUDY001,VS,STUDY001-SUBJ0010,3,TEMP,Temperature,36.1,C,36.1,36.1,C,,SCREENING,1,2024-09-16,-14
STUDY001,VS,STUDY001-SUBJ0010,4,BP,Blood Pressure,98/86,mmHg,98/86,,mmHg,,SCREENING,1,2024-09-16,-14
STUDY001,VS,STUDY001-SUBJ0010,5,HR,Heart Rate,59,beats/min,59,59.0,beats/min,,SCREENING,1,2024-09-16,-14
STUDY001,VS,STUDY001-SUBJ0010,6,HEIGHT,Height,181.8,cm,181.8,181.8,cm,Y,BASELINE,2,2024-09-30,1
STUDY001,VS,STUDY001-SUBJ0010,7,WEIGHT,Weight,103.0,kg,103.0,103.0,kg,Y,BASELINE,2,2024-09-30,1
STUDY001,VS,STUDY001-SUBJ0010,8,TEMP,Temperature,36.0,C,36.0,36.0,C,Y,BASELINE,2,2024-09-30,1
STUDY001,VS,STUDY001-SUBJ0010,9,BP,Blood Pressure,101/87,mmHg,101/87,,mmHg,Y,BASELINE,2,2024-09-30,1
STUDY001,VS,STUDY001-SUBJ0010,10,HR,Heart Rate,64,beats/min,64,64.0,beats/min,Y,BASELINE,2,2024-09-30,1
STUDY001,VS,STUDY001-SUBJ0010,11,HEIGHT,Height,182.0,cm,182.0,182.0,cm,,WEEK 1,3,2024-10-06,7
STUDY001,VS,STUDY001-SUBJ0010,12,WEIGHT,Weight,103.0,kg,103.0,103.0,kg,,WEEK 1,3,2024-10-06,7
STUDY001,VS,STUDY001-SUBJ0010,13,TEMP,Temperature,36.2,C,36.2,36.2,C,,WEEK 1,3,2024-10-06,7
STUDY001,VS,STUDY001-SUBJ0010,14,BP,Blood Pressure,106/90,mmHg,106/90,,mmHg,,WEEK 1,3,2024-10-06,7
STUDY001,VS,STUDY001-SUBJ0010,15,HR,Heart Rate,61,beats/min,61,61.0,beats/min,,WEEK 1,3,2024-10-06,7
STUDY001,VS,STUDY001-SUBJ0010,16,HEIGHT,Height,181.9,cm,181.9,181.9,cm,,WEEK 2,4,2024-10-13,14
STUDY001,VS,STUDY001-SUBJ0010,17,WEIGHT,Weight,103.5,kg,103.5,103.5,kg,,WEEK 2,4,2024-10-13,14
STUDY001,VS,STUDY001-SUBJ0010,18,TEMP,Temperature,35.9,C,35.9,35.9,C,,WEEK 2,4,2024-10-13,14
STUDY001,VS,STUDY001-SUBJ0010,19,BP,Blood Pressure,102/87,mmHg,102/87,,mmHg,,WEEK 2,4,2024-10-13,14
STUDY001,VS,STUDY001-SUBJ0010,20,HR,Heart Rate,61,beats/min,61,61.0,beats/min,,WEEK 2,4,2024-10-13,14
STUDY001,VS,STUDY001-SUBJ0010,21,HEIGHT,Height,182.0,cm,182.0,182.0,cm,,WEEK 4,5,2024-10-27,28
STUDY001,VS,STUDY001-SUBJ0010,22,WEIGHT,Weight,103.4,kg,103.4,103.4,kg,,WEEK 4,5,2024-10-27,28
STUDY001,VS,STUDY001-SUBJ0010,23,TEMP,Temperature,36.2,C,36.2,36.2,C,,WEEK 4,5,2024-10-27,28
STUDY001,VS,STUDY001-SUBJ0010,24,BP,Blood Pressure,101/88,mmHg,101/88,,mmHg,,WEEK 4,5,2024-10-27,28
STUDY001,VS,STUDY001-SUBJ0010,25,HR,Heart Rate,65,beats/min,65,65.0,beats/min,,WEEK 4,5,2024-10-27,28
STUDY001,VS,STUDY001-SUBJ0010,26,HEIGHT,Height,182.0,cm,182.0,182.0,cm,,WEEK 8,6,2024-11-24,56
STUDY001,VS,STUDY001-SUBJ0010,27,WEIGHT,Weight,104.1,kg,104.1,104.1,kg,,WEEK 8,6,2024-11-24,56
STUDY001,VS,STUDY001-SUBJ0010,28,TEMP,Temperature,36.2,C,36.2,36.2,C,,WEEK 8,6,2024-11-24,56
STUDY001,VS,STUDY001-SUBJ0010,29,BP,Blood Pressure,97/86,mmHg,97/86,,mmHg,,WEEK 8,6,2024-11-24,56
STUDY001,VS,STUDY001-SUBJ0010,30,HR,Heart Rate,60,beats/min,60,60.0,beats/min,,WEEK 8,6,2024-11-24,56
STUDY001,VS,STUDY001-SUBJ0010,31,HEIGHT,Height,182.2,cm,182.2,182.2,cm,,WEEK 12,7,2024-12-22,84
STUDY001,VS,STUDY001-SUBJ0010,32,WEIGHT,Weight,104.3,kg,104.3,104.3,kg,,WEEK 12,7,2024-12-22,84
STUDY001,VS,STUDY001-SUBJ0010,33,TEMP,Temperature,36.0,C,36.0,36.0,C,,WEEK 12,7,2024-12-22,84
STUDY001,VS,STUDY001-SUBJ0010,34,BP,Blood Pressure,101/83,mmHg,101/83,,mmHg,,WEEK 12,7,2024-12-22,84
STUDY001,VS,STUDY001-SUBJ0010,35,HR,Heart Rate,64,beats/min,64,64.0,beats/min,,WEEK 12,7,2024-12-22,84
STUDY001,VS,STUDY001-SUBJ0010,36,HEIGHT,Height,181.9,cm,181.9,181.9,cm,,WEEK 16,8,2025-01-19,112
STUDY001,VS,STUDY001-SUBJ0010,37,WEIGHT,Weight,102.7,kg,102.7,102.7,kg,,WEEK 16,8,2025-01-19,112
STUDY001,VS,STUDY001-SUBJ0010,38,TEMP,Temperature,36.0,C,36.0,36.0,C,,WEEK 16,8,2025-01-19,112
STUDY001,VS,STUDY001-SUBJ0010,39,BP,Blood Pressure,101/86,mmHg,101/86,,mmHg,,WEEK 16,8,2025-01-19,112
STUDY001,VS,STUDY001-SUBJ0010,40,HR,Heart Rate,59,beats/min,59,59.0,beats/min,,WEEK 16,8,2025-01-19,112
STUDY001,VS,STUDY001-SUBJ0010,41,HEIGHT,Height,182.1,cm,182.1,182.1,cm,,END OF TREATMENT,9,2025-02-16,140
STUDY001,VS,STUDY001-SUBJ0010,42,WEIGHT,Weight,103.0,kg,103.0,103.0,kg,,END OF TREATMENT,9,2025-02-16,140
STUDY001,VS,STUDY001-SUBJ0010,43,TEMP,Temperature,36.2,C,36.2,36.2,C,,END OF TREATMENT,9,2025-02-16,140
STUDY001,VS,STUDY001-SUBJ0010,44,BP,Blood Pressure,102/84,mmHg,102/84,,mmHg,,END OF TREATMENT,9,2025-02-16,140
STUDY001,VS,STUDY001-SUBJ0010,45,HR,Heart Rate,66,beats/min,66,66.0,beats/min,,END OF TREATMENT,9,2025-02-16,140
