STUDYID,DOMAIN,USUBJID,SUBJID,RFSTDTC,RFENDTC,RFXSTDTC,RFXENDTC,RFICDTC,RFPENDTC,DTHDTC,DTHFL,SITEID,AGE,AGEU,SEX,RACE,ETHNIC,ARMCD,ARM,ACTARMCD,ACTARM,COUNTRY,DMDTC,DMDY
STUDY001,DM,STUDY001-SUBJ0001,SUBJ0001,2024-08-26,2025-07-30,2025-05-05,2025-08-09,2025-03-31,2025-07-30,,,21,26,YEARS,F,BLACK OR AFRICAN AMERICAN,HISPANIC OR LATINO,ARM1,Treatment 1,ARM1,Treatment 1,MM,2025-05-14,7
STUDY001,DM,STUDY001-SUBJ0002,SUBJ0002,2025-06-16,2025-08-06,2025-04-20,2025-07-26,2025-05-19,2025-08-06,,,38,26,YEARS,F,ASIAN,HISPANIC OR LATINO,ARM2,Treatment 1,ARM2,Treatment 1,AF,2025-03-12,22
STUDY001,DM,STUDY001-SUBJ0003,SUBJ0003,2024-09-08,2025-07-31,2024-11-17,2025-07-25,2024-12-08,2025-07-31,,,20,69,YEARS,F,BLACK OR AFRICAN AMERICAN,NOT HISPANIC OR LATINO,ARM3,Treatment 1,ARM3,Treatment 1,EC,2024-11-18,30
STUDY001,DM,STUDY001-SUBJ0004,SUBJ0004,2025-04-04,2025-08-18,2024-11-15,2025-08-14,2024-09-15,2025-08-18,,,40,60,YEARS,F,WHITE,HISPANIC OR LATINO,ARM1,Treatment 2,ARM1,Treatment 2,DJ,2025-01-13,5
STUDY001,DM,STUDY001-SUBJ0005,SUBJ0005,2025-03-27,2025-08-21,2025-07-16,2025-08-04,2024-11-27,2025-08-21,,,7,77,YEARS,F,WHITE,NOT HISPANIC OR LATINO,ARM2,Treatment 3,ARM2,Treatment 3,KP,2024-12-03,28
STUDY001,DM,STUDY001-SUBJ0006,SUBJ0006,2025-05-07,2025-07-25,2024-08-24,2025-08-09,2025-04-01,2025-07-25,,,28,27,YEARS,F,BLACK OR AFRICAN AMERICAN,HISPANIC OR LATINO,ARM3,Treatment 3,ARM3,Treatment 3,LV,2024-11-05,17
STUDY001,DM,STUDY001-SUBJ0007,SUBJ0007,2024-12-15,2025-08-05,2024-12-29,2025-08-10,2025-02-24,2025-08-05,,,7,65,YEARS,F,AMERICAN INDIAN OR ALASKA NATIVE,HISPANIC OR LATINO,ARM1,Treatment 2,ARM1,Treatment 2,SE,2024-09-13,4
STUDY001,DM,STUDY001-SUBJ0008,SUBJ0008,2025-04-14,2025-08-13,2025-01-07,2025-07-27,2025-05-16,2025-08-13,,,17,44,YEARS,M,WHITE,NOT HISPANIC OR LATINO,ARM2,Treatment 3,ARM2,Treatment 3,TW,2024-11-19,17
STUDY001,DM,STUDY001-SUBJ0009,SUBJ0009,2024-10-02,2025-08-22,2024-09-06,2025-07-31,2025-02-04,2025-08-22,,,39,18,YEARS,M,WHITE,HISPANIC OR LATINO,ARM3,Treatment 2,ARM3,Treatment 2,GY,2024-11-27,26
STUDY001,DM,STUDY001-SUBJ0010,SUBJ0010,2025-05-22,2025-08-02,2025-02-19,2025-07-24,2025-06-02,2025-08-02,,,41,56,YEARS,F,ASIAN,HISPANIC OR LATINO,ARM1,Treatment 1,ARM1,Treatment 1,LI,2025-03-22,18
