STUDYID,DOMAIN,USUBJID,VSSEQ,VSTESTCD,VSTEST,VSORRES,VSORRESU,VSSTRESC,VSSTRESN,VSSTRESU,VSBLFL,VISIT,VISITNUM,VSDTC,VSDY
STUDY001,VS,STUDY001-SUBJ0001,1,HEIGHT,Height,184.9,cm,184.9,184.9,cm,,SCREENING,1,2024-10-15,-14
STUDY001,VS,STUDY001-SUBJ0001,2,WEIGHT,Weight,105.0,kg,105.0,105.0,kg,,SCREENING,1,2024-10-15,-14
STUDY001,VS,STUDY001-SUBJ0001,3,TEMP,Temperature,35.9,C,35.9,35.9,C,,SCREENING,1,2024-10-15,-14
STUDY001,VS,STUDY001-SUBJ0001,4,BP,Blood Pressure,139/94,mmHg,139/94,,mmHg,,SCREENING,1,2024-10-15,-14
STUDY001,VS,STUDY001-SUBJ0001,5,HR,Heart Rate,68,beats/min,68,68.0,beats/min,,SCREENING,1,2024-10-15,-14
STUDY001,VS,STUDY001-SUBJ0001,6,HEIGHT,Height,184.8,cm,184.8,184.8,cm,Y,BASELINE,2,2024-10-29,1
STUDY001,VS,STUDY001-SUBJ0001,7,WEIGHT,Weight,103.9,kg,103.9,103.9,kg,Y,BASELINE,2,2024-10-29,1
STUDY001,VS,STUDY001-SUBJ0001,8,TEMP,Temperature,35.8,C,35.8,35.8,C,Y,BASELINE,2,2024-10-29,1
STUDY001,VS,STUDY001-SUBJ0001,9,BP,Blood Pressure,144/98,mmHg,144/98,,mmHg,Y,BASELINE,2,2024-10-29,1
STUDY001,VS,STUDY001-SUBJ0001,10,HR,Heart Rate,70,beats/min,70,70.0,beats/min,Y,BASELINE,2,2024-10-29,1
STUDY001,VS,STUDY001-SUBJ0001,11,HEIGHT,Height,185.0,cm,185.0,185.0,cm,,WEEK 1,3,2024-11-04,7
STUDY001,VS,STUDY001-SUBJ0001,12,WEIGHT,Weight,104.1,kg,104.1,104.1,kg,,WEEK 1,3,2024-11-04,7
STUDY001,VS,STUDY001-SUBJ0001,13,TEMP,Temperature,36.0,C,36.0,36.0,C,,WEEK 1,3,2024-11-04,7
STUDY001,VS,STUDY001-SUBJ0001,14,BP,Blood Pressure,139/97,mmHg,139/97,,mmHg,,WEEK 1,3,2024-11-04,7
STUDY001,VS,STUDY001-SUBJ0001,15,HR,Heart Rate,68,beats/min,68,68.0,beats/min,,WEEK 1,3,2024-11-04,7
STUDY001,VS,STUDY001-SUBJ0001,16,HEIGHT,Height,185.1,cm,185.1,185.1,cm,,WEEK 2,4,2024-11-11,14
STUDY001,VS,STUDY001-SUBJ0001,17,WEIGHT,Weight,104.7,kg,104.7,104.7,kg,,WEEK 2,4,2024-11-11,14
STUDY001,VS,STUDY001-SUBJ0001,18,TEMP,Temperature,36.2,C,36.2,36.2,C,,WEEK 2,4,2024-11-11,14
STUDY001,VS,STUDY001-SUBJ0001,19,BP,Blood Pressure,141/97,mmHg,141/97,,mmHg,,WEEK 2,4,2024-11-11,14
STUDY001,VS,STUDY001-SUBJ0001,20,HR,Heart Rate,70,beats/min,70,70.0,beats/min,,WEEK 2,4,2024-11-11,14
STUDY001,VS,STUDY001-SUBJ0001,21,HEIGHT,Height,185.0,cm,185.0,185.0,cm,,WEEK 4,5,2024-11-25,28
STUDY001,VS,STUDY001-SUBJ0001,22,WEIGHT,Weight,104.7,kg,104.7,104.7,kg,,WEEK 4,5,2024-11-25,28
STUDY001,VS,STUDY001-SUBJ0001,23,TEMP,Temperature,36.0,C,36.0,36.0,C,,WEEK 4,5,2024-11-25,28
STUDY001,VS,STUDY001-SUBJ0001,24,BP,Blood Pressure,144/97,mmHg,144/97,,mmHg,,WEEK 4,5,2024-11-25,28
STUDY001,VS,STUDY001-SUBJ0001,25,HR,Heart Rate,73,beats/min,73,73.0,beats/min,,WEEK 4,5,2024-11-25,28
STUDY001,VS,STUDY001-SUBJ0001,26,HEIGHT,Height,184.8,cm,184.8,184.8,cm,,WEEK 8,6,2024-12-23,56
STUDY001,VS,STUDY001-SUBJ0001,27,WEIGHT,Weight,103.4,kg,103.4,103.4,kg,,WEEK 8,6,2024-12-23,56
STUDY001,VS,STUDY001-SUBJ0001,28,TEMP,Temperature,36.3,C,36.3,36.3,C,,WEEK 8,6,2024-12-23,56
STUDY001,VS,STUDY001-SUBJ0001,29,BP,Blood Pressure,147/96,mmHg,147/96,,mmHg,,WEEK 8,6,2024-12-23,56
STUDY001,VS,STUDY001-SUBJ0001,30,HR,Heart Rate,68,beats/min,68,68.0,beats/min,,WEEK 8,6,2024-12-23,56
STUDY001,VS,STUDY001-SUBJ0001,31,HEIGHT,Height,185.1,cm,185.1,185.1,cm,,WEEK 12,7,2025-01-20,84
STUDY001,VS,STUDY001-SUBJ0001,32,WEIGHT,Weight,103.4,kg,103.4,103.4,kg,,WEEK 12,7,2025-01-20,84
STUDY001,VS,STUDY001-SUBJ0001,33,TEMP,Temperature,35.8,C,35.8,35.8,C,,WEEK 12,7,2025-01-20,84
STUDY001,VS,STUDY001-SUBJ0001,34,BP,Blood Pressure,139/96,mmHg,139/96,,mmHg,,WEEK 12,7,2025-01-20,84
STUDY001,VS,STUDY001-SUBJ0001,35,HR,Heart Rate,69,beats/min,69,69.0,beats/min,,WEEK 12,7,2025-01-20,84
STUDY001,VS,STUDY001-SUBJ0001,36,HEIGHT,Height,185.0,cm,185.0,185.0,cm,,WEEK 16,8,2025-02-17,112
STUDY001,VS,STUDY001-SUBJ0001,37,WEIGHT,Weight,104.2,kg,104.2,104.2,kg,,WEEK 16,8,2025-02-17,112
STUDY001,VS,STUDY001-SUBJ0001,38,TEMP,Temperature,35.9,C,35.9,35.9,C,,WEEK 16,8,2025-02-17,112
STUDY001,VS,STUDY001-SUBJ0001,39,BP,Blood Pressure,142/95,mmHg,142/95,,mmHg,,WEEK 16,8,2025-02-17,112
STUDY001,VS,STUDY001-SUBJ0001,40,HR,Heart Rate,71,beats/min,71,71.0,beats/min,,WEEK 16,8,2025-02-17,112
STUDY001,VS,STUDY001-SUBJ0001,41,HEIGHT,Height,184.8,cm,184.8,184.8,cm,,END OF TREATMENT,9,2025-03-17,140
STUDY001,VS,STUDY001-SUBJ0001,42,WEIGHT,Weight,103.4,kg,103.4,103.4,kg,,END OF TREATMENT,9,2025-03-17,140
STUDY001,VS,STUDY001-SUBJ0001,43,TEMP,Temperature,35.8,C,35.8,35.8,C,,END OF TREATMENT,9,2025-03-17,140
STUDY001,VS,STUDY001-SUBJ0001,44,BP,Blood Pressure,146/92,mmHg,146/92,,mmHg,,END OF TREATMENT,9,2025-03-17,140
STUDY001,VS,STUDY001-SUBJ0001,45,HR,Heart Rate,66,beats/min,66,66.0,beats/min,,END OF TREATMENT,9,2025-03-17,140
STUDY001,VS,STUDY001-SUBJ0002,1,HEIGHT,Height,151.1,cm,151.1,151.1,cm,,SCREENING,1,2025-04-03,-14
STUDY001,VS,STUDY001-SUBJ0002,2,WEIGHT,Weight,95.2,kg,95.2,95.2,kg,,SCREENING,1,2025-04-03,-14
STUDY001,VS,STUDY001-SUBJ0002,3,TEMP,Temperature,36.7,C,36.7,36.7,C,,SCREENING,1,2025-04-03,-14
STUDY001,VS,STUDY001-SUBJ0002,4,BP,Blood Pressure,144/91,mmHg,144/91,,mmHg,,SCREENING,1,2025-04-03,-14
STUDY001,VS,STUDY001-SUBJ0002,5,HR,Heart Rate,87,beats/min,87,87.0,beats/min,,SCREENING,1,2025-04-03,-14
STUDY001,VS,STUDY001-SUBJ0002,6,HEIGHT,Height,150.9,cm,150.9,150.9,cm,Y,BASELINE,2,2025-04-17,1
STUDY001,VS,STUDY001-SUBJ0002,7,WEIGHT,Weight,96.2,kg,96.2,96.2,kg,Y,BASELINE,2,2025-04-17,1
STUDY001,VS,STUDY001-SUBJ0002,8,TEMP,Temperature,36.3,C,36.3,36.3,C,Y,BASELINE,2,2025-04-17,1
STUDY001,VS,STUDY001-SUBJ0002,9,BP,Blood Pressure,148/89,mmHg,148/89,,mmHg,Y,BASELINE,2,2025-04-17,1
STUDY001,VS,STUDY001-SUBJ0002,10,HR,Heart Rate,89,beats/min,89,89.0,beats/min,Y,BASELINE,2,2025-04-17,1
STUDY001,VS,STUDY001-SUBJ0002,11,HEIGHT,Height,151.0,cm,151.0,151.0,cm,,WEEK 1,3,2025-04-23,7
STUDY001,VS,STUDY001-SUBJ0002,12,WEIGHT,Weight,94.8,kg,94.8,94.8,kg,,WEEK 1,3,2025-04-23,7
STUDY001,VS,STUDY001-SUBJ0002,13,TEMP,Temperature,36.1,C,36.1,36.1,C,,WEEK 1,3,2025-04-23,7
STUDY001,VS,STUDY001-SUBJ0002,14,BP,Blood Pressure,149/83,mmHg,149/83,,mmHg,,WEEK 1,3,2025-04-23,7
STUDY001,VS,STUDY001-SUBJ0002,15,HR,Heart Rate,85,beats/min,85,85.0,beats/min,,WEEK 1,3,2025-04-23,7
STUDY001,VS,STUDY001-SUBJ0002,16,HEIGHT,Height,151.1,cm,151.1,151.1,cm,,WEEK 2,4,2025-04-30,14
STUDY001,VS,STUDY001-SUBJ0002,17,WEIGHT,Weight,95.1,kg,95.1,95.1,kg,,WEEK 2,4,2025-04-30,14
STUDY001,VS,STUDY001-SUBJ0002,18,TEMP,Temperature,36.2,C,36.2,36.2,C,,WEEK 2,4,2025-04-30,14
STUDY001,VS,STUDY001-SUBJ0002,19,BP,Blood Pressure,142/83,mmHg,142/83,,mmHg,,WEEK 2,4,2025-04-30,14
STUDY001,VS,STUDY001-SUBJ0002,20,HR,Heart Rate,82,beats/min,82,82.0,beats/min,,WEEK 2,4,2025-04-30,14
STUDY001,VS,STUDY001-SUBJ0002,21,HEIGHT,Height,151.1,cm,151.1,151.1,cm,,WEEK 4,5,2025-05-14,28
STUDY001,VS,STUDY001-SUBJ0002,22,WEIGHT,Weight,95.9,kg,95.9,95.9,kg,,WEEK 4,5,2025-05-14,28
STUDY001,VS,STUDY001-SUBJ0002,23,TEMP,Temperature,36.1,C,36.1,36.1,C,,WEEK 4,5,2025-05-14,28
STUDY001,VS,STUDY001-SUBJ0002,24,BP,Blood Pressure,150/91,mmHg,150/91,,mmHg,,WEEK 4,5,2025-05-14,28
STUDY001,VS,STUDY001-SUBJ0002,25,HR,Heart Rate,87,beats/min,87,87.0,beats/min,,WEEK 4,5,2025-05-14,28
STUDY001,VS,STUDY001-SUBJ0002,26,HEIGHT,Height,151.1,cm,151.1,151.1,cm,,WEEK 8,6,2025-06-11,56
STUDY001,VS,STUDY001-SUBJ0002,27,WEIGHT,Weight,95.3,kg,95.3,95.3,kg,,WEEK 8,6,2025-06-11,56
STUDY001,VS,STUDY001-SUBJ0002,28,TEMP,Temperature,36.6,C,36.6,36.6,C,,WEEK 8,6,2025-06-11,56
STUDY001,VS,STUDY001-SUBJ0002,29,BP,Blood Pressure,148/91,mmHg,148/91,,mmHg,,WEEK 8,6,2025-06-11,56
STUDY001,VS,STUDY001-SUBJ0002,30,HR,Heart Rate,89,beats/min,89,89.0,beats/min,,WEEK 8,6,2025-06-11,56
STUDY001,VS,STUDY001-SUBJ0002,31,HEIGHT,Height,150.9,cm,150.9,150.9,cm,,WEEK 12,7,2025-07-09,84
STUDY001,VS,STUDY001-SUBJ0002,32,WEIGHT,Weight,96.2,kg,96.2,96.2,kg,,WEEK 12,7,2025-07-09,84
STUDY001,VS,STUDY001-SUBJ0002,33,TEMP,Temperature,36.4,C,36.4,36.4,C,,WEEK 12,7,2025-07-09,84
STUDY001,VS,STUDY001-SUBJ0002,34,BP,Blood Pressure,144/86,mmHg,144/86,,mmHg,,WEEK 12,7,2025-07-09,84
STUDY001,VS,STUDY001-SUBJ0002,35,HR,Heart Rate,82,beats/min,82,82.0,beats/min,,WEEK 12,7,2025-07-09,84
STUDY001,VS,STUDY001-SUBJ0002,36,HEIGHT,Height,151.2,cm,151.2,151.2,cm,,WEEK 16,8,2025-08-06,112
STUDY001,VS,STUDY001-SUBJ0002,37,WEIGHT,Weight,95.1,kg,95.1,95.1,kg,,WEEK 16,8,2025-08-06,112
STUDY001,VS,STUDY001-SUBJ0002,38,TEMP,Temperature,36.3,C,36.3,36.3,C,,WEEK 16,8,2025-08-06,112
STUDY001,VS,STUDY001-SUBJ0002,39,BP,Blood Pressure,145/91,mmHg,145/91,,mmHg,,WEEK 16,8,2025-08-06,112
STUDY001,VS,STUDY001-SUBJ0002,40,HR,Heart Rate,85,beats/min,85,85.0,beats/min,,WEEK 16,8,2025-08-06,112
STUDY001,VS,STUDY001-SUBJ0002,41,HEIGHT,Height,151.0,cm,151.0,151.0,cm,,END OF TREATMENT,9,2025-09-03,140
STUDY001,VS,STUDY001-SUBJ0002,42,WEIGHT,Weight,95.2,kg,95.2,95.2,kg,,END OF TREATMENT,9,2025-09-03,140
STUDY001,VS,STUDY001-SUBJ0002,43,TEMP,Temperature,36.6,C,36.6,36.6,C,,END OF TREATMENT,9,2025-09-03,140
STUDY001,VS,STUDY001-SUBJ0002,44,BP,Blood Pressure,150/87,mmHg,150/87,,mmHg,,END OF TREATMENT,9,2025-09-03,140
STUDY001,VS,STUDY001-SUBJ0002,45,HR,Heart Rate,88,beats/min,88,88.0,beats/min,,END OF TREATMENT,9,2025-09-03,140
STUDY001,VS,STUDY001-SUBJ0003,1,HEIGHT,Height,176.1,cm,176.1,176.1,cm,,SCREENING,1,2025-06-26,-14
STUDY001,VS,STUDY001-SUBJ0003,2,WEIGHT,Weight,111.9,kg,111.9,111.9,kg,,SCREENING,1,2025-06-26,-14
STUDY001,VS,STUDY001-SUBJ0003,3,TEMP,Temperature,37.1,C,37.1,37.1,C,,SCREENING,1,2025-06-26,-14
STUDY001,VS,STUDY001-SUBJ0003,4,BP,Blood Pressure,104/83,mmHg,104/83,,mmHg,,SCREENING,1,2025-06-26,-14
STUDY001,VS,STUDY001-SUBJ0003,5,HR,Heart Rate,81,beats/min,81,81.0,beats/min,,SCREENING,1,2025-06-26,-14
STUDY001,VS,STUDY001-SUBJ0003,6,HEIGHT,Height,176.3,cm,176.3,176.3,cm,Y,BASELINE,2,2025-07-10,1
STUDY001,VS,STUDY001-SUBJ0003,7,WEIGHT,Weight,112.3,kg,112.3,112.3,kg,Y,BASELINE,2,2025-07-10,1
STUDY001,VS,STUDY001-SUBJ0003,8,TEMP,Temperature,36.8,C,36.8,36.8,C,Y,BASELINE,2,2025-07-10,1
STUDY001,VS,STUDY001-SUBJ0003,9,BP,Blood Pressure,109/85,mmHg,109/85,,mmHg,Y,BASELINE,2,2025-07-10,1
STUDY001,VS,STUDY001-SUBJ0003,10,HR,Heart Rate,75,beats/min,75,75.0,beats/min,Y,BASELINE,2,2025-07-10,1
STUDY001,VS,STUDY001-SUBJ0003,11,HEIGHT,Height,175.9,cm,175.9,175.9,cm,,WEEK 1,3,2025-07-16,7
STUDY001,VS,STUDY001-SUBJ0003,12,WEIGHT,Weight,111.0,kg,111.0,111.0,kg,,WEEK 1,3,2025-07-16,7
STUDY001,VS,STUDY001-SUBJ0003,13,TEMP,Temperature,36.9,C,36.9,36.9,C,,WEEK 1,3,2025-07-16,7
STUDY001,VS,STUDY001-SUBJ0003,14,BP,Blood Pressure,108/86,mmHg,108/86,,mmHg,,WEEK 1,3,2025-07-16,7
STUDY001,VS,STUDY001-SUBJ0003,15,HR,Heart Rate,73,beats/min,73,73.0,beats/min,,WEEK 1,3,2025-07-16,7
STUDY001,VS,STUDY001-SUBJ0003,16,HEIGHT,Height,176.2,cm,176.2,176.2,cm,,WEEK 2,4,2025-07-23,14
STUDY001,VS,STUDY001-SUBJ0003,17,WEIGHT,Weight,111.5,kg,111.5,111.5,kg,,WEEK 2,4,2025-07-23,14
STUDY001,VS,STUDY001-SUBJ0003,18,TEMP,Temperature,36.8,C,36.8,36.8,C,,WEEK 2,4,2025-07-23,14
STUDY001,VS,STUDY001-SUBJ0003,19,BP,Blood Pressure,109/87,mmHg,109/87,,mmHg,,WEEK 2,4,2025-07-23,14
STUDY001,VS,STUDY001-SUBJ0003,20,HR,Heart Rate,75,beats/min,75,75.0,beats/min,,WEEK 2,4,2025-07-23,14
STUDY001,VS,STUDY001-SUBJ0003,21,HEIGHT,Height,176.1,cm,176.1,176.1,cm,,WEEK 4,5,2025-08-06,28
STUDY001,VS,STUDY001-SUBJ0003,22,WEIGHT,Weight,112.0,kg,112.0,112.0,kg,,WEEK 4,5,2025-08-06,28
STUDY001,VS,STUDY001-SUBJ0003,23,TEMP,Temperature,36.6,C,36.6,36.6,C,,WEEK 4,5,2025-08-06,28
STUDY001,VS,STUDY001-SUBJ0003,24,BP,Blood Pressure,109/88,mmHg,109/88,,mmHg,,WEEK 4,5,2025-08-06,28
STUDY001,VS,STUDY001-SUBJ0003,25,HR,Heart Rate,72,beats/min,72,72.0,beats/min,,WEEK 4,5,2025-08-06,28
STUDY001,VS,STUDY001-SUBJ0003,26,HEIGHT,Height,176.1,cm,176.1,176.1,cm,,WEEK 8,6,2025-09-03,56
STUDY001,VS,STUDY001-SUBJ0003,27,WEIGHT,Weight,112.3,kg,112.3,112.3,kg,,WEEK 8,6,2025-09-03,56
STUDY001,VS,STUDY001-SUBJ0003,28,TEMP,Temperature,36.8,C,36.8,36.8,C,,WEEK 8,6,2025-09-03,56
STUDY001,VS,STUDY001-SUBJ0003,29,BP,Blood Pressure,112/82,mmHg,112/82,,mmHg,,WEEK 8,6,2025-09-03,56
STUDY001,VS,STUDY001-SUBJ0003,30,HR,Heart Rate,79,beats/min,79,79.0,beats/min,,WEEK 8,6,2025-09-03,56
STUDY001,VS,STUDY001-SUBJ0003,31,HEIGHT,Height,176.3,cm,176.3,176.3,cm,,WEEK 12,7,2025-10-01,84
STUDY001,VS,STUDY001-SUBJ0003,32,WEIGHT,Weight,110.8,kg,110.8,110.8,kg,,WEEK 12,7,2025-10-01,84
STUDY001,VS,STUDY001-SUBJ0003,33,TEMP,Temperature,36.9,C,36.9,36.9,C,,WEEK 12,7,2025-10-01,84
STUDY001,VS,STUDY001-SUBJ0003,34,BP,Blood Pressure,102/88,mmHg,102/88,,mmHg,,WEEK 12,7,2025-10-01,84
STUDY001,VS,STUDY001-SUBJ0003,35,HR,Heart Rate,74,beats/min,74,74.0,beats/min,,WEEK 12,7,2025-10-01,84
STUDY001,VS,STUDY001-SUBJ0003,36,HEIGHT,Height,176.1,cm,176.1,176.1,cm,,WEEK 16,8,2025-10-29,112
STUDY001,VS,STUDY001-SUBJ0003,37,WEIGHT,Weight,111.7,kg,111.7,111.7,kg,,WEEK 16,8,2025-10-29,112
STUDY001,VS,STUDY001-SUBJ0003,38,TEMP,Temperature,37.0,C,37.0,37.0,C,,WEEK 16,8,2025-10-29,112
STUDY001,VS,STUDY001-SUBJ0003,39,BP,Blood Pressure,103/88,mmHg,103/88,,mmHg,,WEEK 16,8,2025-10-29,112
STUDY001,VS,STUDY001-SUBJ0003,40,HR,Heart Rate,73,beats/min,73,73.0,beats/min,,WEEK 16,8,2025-10-29,112
STUDY001,VS,STUDY001-SUBJ0003,41,HEIGHT,Height,176.0,cm,176.0,176.0,cm,,END OF TREATMENT,9,2025-11-26,140
STUDY001,VS,STUDY001-SUBJ0003,42,WEIGHT,Weight,112.3,kg,112.3,112.3,kg,,END OF TREATMENT,9,2025-11-26,140
STUDY001,VS,STUDY001-SUBJ0003,43,TEMP,Temperature,37.0,C,37.0,37.0,C,,END OF TREATMENT,9,2025-11-26,140
STUDY001,VS,STUDY001-SUBJ0003,44,BP,Blood Pressure,109/85,mmHg,109/85,,mmHg,,END OF TREATMENT,9,2025-11-26,140
STUDY001,VS,STUDY001-SUBJ0003,45,HR,Heart Rate,79,beats/min,79,79.0,beats/min,,END OF TREATMENT,9,2025-11-26,140
STUDY001,VS,STUDY001-SUBJ0004,1,HEIGHT,Height,185.2,cm,185.2,185.2,cm,,SCREENING,1,2025-01-16,-14
STUDY001,VS,STUDY001-SUBJ0004,2,WEIGHT,Weight,95.1,kg,95.1,95.1,kg,,SCREENING,1,2025-01-16,-14
STUDY001,VS,STUDY001-SUBJ0004,3,TEMP,Temperature,37.1,C,37.1,37.1,C,,SCREENING,1,2025-01-16,-14
STUDY001,VS,STUDY001-SUBJ0004,4,BP,Blood Pressure,124/75,mmHg,124/75,,mmHg,,SCREENING,1,2025-01-16,-14
STUDY001,VS,STUDY001-SUBJ0004,5,HR,Heart Rate,79,beats/min,79,79.0,beats/min,,SCREENING,1,2025-01-16,-14
STUDY001,VS,STUDY001-SUBJ0004,6,HEIGHT,Height,185.2,cm,185.2,185.2,cm,Y,BASELINE,2,2025-01-30,1
STUDY001,VS,STUDY001-SUBJ0004,7,WEIGHT,Weight,95.4,kg,95.4,95.4,kg,Y,BASELINE,2,2025-01-30,1
STUDY001,VS,STUDY001-SUBJ0004,8,TEMP,Temperature,37.1,C,37.1,37.1,C,Y,BASELINE,2,2025-01-30,1
STUDY001,VS,STUDY001-SUBJ0004,9,BP,Blood Pressure,125/71,mmHg,125/71,,mmHg,Y,BASELINE,2,2025-01-30,1
STUDY001,VS,STUDY001-SUBJ0004,10,HR,Heart Rate,77,beats/min,77,77.0,beats/min,Y,BASELINE,2,2025-01-30,1
STUDY001,VS,STUDY001-SUBJ0004,11,HEIGHT,Height,185.3,cm,185.3,185.3,cm,,WEEK 1,3,2025-02-05,7
STUDY001,VS,STUDY001-SUBJ0004,12,WEIGHT,Weight,95.4,kg,95.4,95.4,kg,,WEEK 1,3,2025-02-05,7
STUDY001,VS,STUDY001-SUBJ0004,13,TEMP,Temperature,36.9,C,36.9,36.9,C,,WEEK 1,3,2025-02-05,7
STUDY001,VS,STUDY001-SUBJ0004,14,BP,Blood Pressure,124/67,mmHg,124/67,,mmHg,,WEEK 1,3,2025-02-05,7
STUDY001,VS,STUDY001-SUBJ0004,15,HR,Heart Rate,85,beats/min,85,85.0,beats/min,,WEEK 1,3,2025-02-05,7
STUDY001,VS,STUDY001-SUBJ0004,16,HEIGHT,Height,185.4,cm,185.4,185.4,cm,,WEEK 2,4,2025-02-12,14
STUDY001,VS,STUDY001-SUBJ0004,17,WEIGHT,Weight,93.6,kg,93.6,93.6,kg,,WEEK 2,4,2025-02-12,14
STUDY001,VS,STUDY001-SUBJ0004,18,TEMP,Temperature,36.9,C,36.9,36.9,C,,WEEK 2,4,2025-02-12,14
STUDY001,VS,STUDY001-SUBJ0004,19,BP,Blood Pressure,125/76,mmHg,125/76,,mmHg,,WEEK 2,4,2025-02-12,14
STUDY001,VS,STUDY001-SUBJ0004,20,HR,Heart Rate,83,beats/min,83,83.0,beats/min,,WEEK 2,4,2025-02-12,14
STUDY001,VS,STUDY001-SUBJ0004,21,HEIGHT,Height,185.2,cm,185.2,185.2,cm,,WEEK 4,5,2025-02-26,28
STUDY001,VS,STUDY001-SUBJ0004,22,WEIGHT,Weight,93.8,kg,93.8,93.8,kg,,WEEK 4,5,2025-02-26,28
STUDY001,VS,STUDY001-SUBJ0004,23,TEMP,Temperature,36.7,C,36.7,36.7,C,,WEEK 4,5,2025-02-26,28
STUDY001,VS,STUDY001-SUBJ0004,24,BP,Blood Pressure,124/73,mmHg,124/73,,mmHg,,WEEK 4,5,2025-02-26,28
STUDY001,VS,STUDY001-SUBJ0004,25,HR,Heart Rate,82,beats/min,82,82.0,beats/min,,WEEK 4,5,2025-02-26,28
STUDY001,VS,STUDY001-SUBJ0004,26,HEIGHT,Height,185.1,cm,185.1,185.1,cm,,WEEK 8,6,2025-03-26,56
STUDY001,VS,STUDY001-SUBJ0004,27,WEIGHT,Weight,94.7,kg,94.7,94.7,kg,,WEEK 8,6,2025-03-26,56
STUDY001,VS,STUDY001-SUBJ0004,28,TEMP,Temperature,36.9,C,36.9,36.9,C,,WEEK 8,6,2025-03-26,56
STUDY001,VS,STUDY001-SUBJ0004,29,BP,Blood Pressure,125/76,mmHg,125/76,,mmHg,,WEEK 8,6,2025-03-26,56
STUDY001,VS,STUDY001-SUBJ0004,30,HR,Heart Rate,82,beats/min,82,82.0,beats/min,,WEEK 8,6,2025-03-26,56
STUDY001,VS,STUDY001-SUBJ0004,31,HEIGHT,Height,185.3,cm,185.3,185.3,cm,,WEEK 12,7,2025-04-23,84
STUDY001,VS,STUDY001-SUBJ0004,32,WEIGHT,Weight,93.6,kg,93.6,93.6,kg,,WEEK 12,7,2025-04-23,84
STUDY001,VS,STUDY001-SUBJ0004,33,TEMP,Temperature,37.1,C,37.1,37.1,C,,WEEK 12,7,2025-04-23,84
STUDY001,VS,STUDY001-SUBJ0004,34,BP,Blood Pressure,126/68,mmHg,126/68,,mmHg,,WEEK 12,7,2025-04-23,84
STUDY001,VS,STUDY001-SUBJ0004,35,HR,Heart Rate,81,beats/min,81,81.0,beats/min,,WEEK 12,7,2025-04-23,84
STUDY001,VS,STUDY001-SUBJ0004,36,HEIGHT,Height,185.2,cm,185.2,185.2,cm,,WEEK 16,8,2025-05-21,112
STUDY001,VS,STUDY001-SUBJ0004,37,WEIGHT,Weight,95.5,kg,95.5,95.5,kg,,WEEK 16,8,2025-05-21,112
STUDY001,VS,STUDY001-SUBJ0004,38,TEMP,Temperature,36.7,C,36.7,36.7,C,,WEEK 16,8,2025-05-21,112
STUDY001,VS,STUDY001-SUBJ0004,39,BP,Blood Pressure,125/75,mmHg,125/75,,mmHg,,WEEK 16,8,2025-05-21,112
STUDY001,VS,STUDY001-SUBJ0004,40,HR,Heart Rate,77,beats/min,77,77.0,beats/min,,WEEK 16,8,2025-05-21,112
STUDY001,VS,STUDY001-SUBJ0004,41,HEIGHT,Height,185.3,cm,185.3,185.3,cm,,END OF TREATMENT,9,2025-06-18,140
STUDY001,VS,STUDY001-SUBJ0004,42,WEIGHT,Weight,94.9,kg,94.9,94.9,kg,,END OF TREATMENT,9,2025-06-18,140
STUDY001,VS,STUDY001-SUBJ0004,43,TEMP,Temperature,36.6,C,36.6,36.6,C,,END OF TREATMENT,9,2025-06-18,140
STUDY001,VS,STUDY001-SUBJ0004,44,BP,Blood Pressure,128/70,mmHg,128/70,,mmHg,,END OF TREATMENT,9,2025-06-18,140
STUDY001,VS,STUDY001-SUBJ0004,45,HR,Heart Rate,83,beats/min,83,83.0,beats/min,,END OF TREATMENT,9,2025-06-18,140
STUDY001,VS,STUDY001-SUBJ0005,1,HEIGHT,Height,188.3,cm,188.3,188.3,cm,,SCREENING,1,2024-11-01,-14
STUDY001,VS,STUDY001-SUBJ0005,2,WEIGHT,Weight,105.1,kg,105.1,105.1,kg,,SCREENING,1,2024-11-01,-14
STUDY001,VS,STUDY001-SUBJ0005,3,TEMP,Temperature,36.6,C,36.6,36.6,C,,SCREENING,1,2024-11-01,-14
STUDY001,VS,STUDY001-SUBJ0005,4,BP,Blood Pressure,100/90,mmHg,100/90,,mmHg,,SCREENING,1,2024-11-01,-14
STUDY001,VS,STUDY001-SUBJ0005,5,HR,Heart Rate,72,beats/min,72,72.0,beats/min,,SCREENING,1,2024-11-01,-14
STUDY001,VS,STUDY001-SUBJ0005,6,HEIGHT,Height,188.2,cm,188.2,188.2,cm,Y,BASELINE,2,2024-11-15,1
STUDY001,VS,STUDY001-SUBJ0005,7,WEIGHT,Weight,105.6,kg,105.6,105.6,kg,Y,BASELINE,2,2024-11-15,1
STUDY001,VS,STUDY001-SUBJ0005,8,TEMP,Temperature,36.3,C,36.3,36.3,C,Y,BASELINE,2,2024-11-15,1
STUDY001,VS,STUDY001-SUBJ0005,9,BP,Blood Pressure,103/92,mmHg,103/92,,mmHg,Y,BASELINE,2,2024-11-15,1
STUDY001,VS,STUDY001-SUBJ0005,10,HR,Heart Rate,68,beats/min,68,68.0,beats/min,Y,BASELINE,2,2024-11-15,1
STUDY001,VS,STUDY001-SUBJ0005,11,HEIGHT,Height,188.4,cm,188.4,188.4,cm,,WEEK 1,3,2024-11-21,7
STUDY001,VS,STUDY001-SUBJ0005,12,WEIGHT,Weight,106.3,kg,106.3,106.3,kg,,WEEK 1,3,2024-11-21,7
STUDY001,VS,STUDY001-SUBJ0005,13,TEMP,Temperature,36.4,C,36.4,36.4,C,,WEEK 1,3,2024-11-21,7
STUDY001,VS,STUDY001-SUBJ0005,14,BP,Blood Pressure,106/93,mmHg,106/93,,mmHg,,WEEK 1,3,2024-11-21,7
STUDY001,VS,STUDY001-SUBJ0005,15,HR,Heart Rate,77,beats/min,77,77.0,beats/min,,WEEK 1,3,2024-11-21,7
STUDY001,VS,STUDY001-SUBJ0005,16,HEIGHT,Height,188.1,cm,188.1,188.1,cm,,WEEK 2,4,2024-11-28,14
STUDY001,VS,STUDY001-SUBJ0005,17,WEIGHT,Weight,106.3,kg,106.3,106.3,kg,,WEEK 2,4,2024-11-28,14
STUDY001,VS,STUDY001-SUBJ0005,18,TEMP,Temperature,36.2,C,36.2,36.2,C,,WEEK 2,4,2024-11-28,14
STUDY001,VS,STUDY001-SUBJ0005,19,BP,Blood Pressure,99/85,mmHg,99/85,,mmHg,,WEEK 2,4,2024-11-28,14
STUDY001,VS,STUDY001-SUBJ0005,20,HR,Heart Rate,76,beats/min,76,76.0,beats/min,,WEEK 2,4,2024-11-28,14
STUDY001,VS,STUDY001-SUBJ0005,21,HEIGHT,Height,188.5,cm,188.5,188.5,cm,,WEEK 4,5,2024-12-12,28
STUDY001,VS,STUDY001-SUBJ0005,22,WEIGHT,Weight,105.0,kg,105.0,105.0,kg,,WEEK 4,5,2024-12-12,28
STUDY001,VS,STUDY001-SUBJ0005,23,TEMP,Temperature,36.2,C,36.2,36.2,C,,WEEK 4,5,2024-12-12,28
STUDY001,VS,STUDY001-SUBJ0005,24,BP,Blood Pressure,99/91,mmHg,99/91,,mmHg,,WEEK 4,5,2024-12-12,28
STUDY001,VS,STUDY001-SUBJ0005,25,HR,Heart Rate,75,beats/min,75,75.0,beats/min,,WEEK 4,5,2024-12-12,28
STUDY001,VS,STUDY001-SUBJ0005,26,HEIGHT,Height,188.2,cm,188.2,188.2,cm,,WEEK 8,6,2025-01-09,56
STUDY001,VS,STUDY001-SUBJ0005,27,WEIGHT,Weight,105.6,kg,105.6,105.6,kg,,WEEK 8,6,2025-01-09,56
STUDY001,VS,STUDY001-SUBJ0005,28,TEMP,Temperature,36.2,C,36.2,36.2,C,,WEEK 8,6,2025-01-09,56
STUDY001,VS,STUDY001-SUBJ0005,29,BP,Blood Pressure,101/88,mmHg,101/88,,mmHg,,WEEK 8,6,2025-01-09,56
STUDY001,VS,STUDY001-SUBJ0005,30,HR,Heart Rate,72,beats/min,72,72.0,beats/min,,WEEK 8,6,2025-01-09,56
STUDY001,VS,STUDY001-SUBJ0005,31,HEIGHT,Height,188.5,cm,188.5,188.5,cm,,WEEK 12,7,2025-02-06,84
STUDY001,VS,STUDY001-SUBJ0005,32,WEIGHT,Weight,104.4,kg,104.4,104.4,kg,,WEEK 12,7,2025-02-06,84
STUDY001,VS,STUDY001-SUBJ0005,33,TEMP,Temperature,36.7,C,36.7,36.7,C,,WEEK 12,7,2025-02-06,84
STUDY001,VS,STUDY001-SUBJ0005,34,BP,Blood Pressure,105/84,mmHg,105/84,,mmHg,,WEEK 12,7,2025-02-06,84
STUDY001,VS,STUDY001-SUBJ0005,35,HR,Heart Rate,70,beats/min,70,70.0,beats/min,,WEEK 12,7,2025-02-06,84
STUDY001,VS,STUDY001-SUBJ0005,36,HEIGHT,Height,188.4,cm,188.4,188.4,cm,,WEEK 16,8,2025-03-06,112
STUDY001,VS,STUDY001-SUBJ0005,37,WEIGHT,Weight,104.7,kg,104.7,104.7,kg,,WEEK 16,8,2025-03-06,112
STUDY001,VS,STUDY001-SUBJ0005,38,TEMP,Temperature,36.5,C,36.5,36.5,C,,WEEK 16,8,2025-03-06,112
STUDY001,VS,STUDY001-SUBJ0005,39,BP,Blood Pressure,98/90,mmHg,98/90,,mmHg,,WEEK 16,8,2025-03-06,112
STUDY001,VS,STUDY001-SUBJ0005,40,HR,Heart Rate,70,beats/min,70,70.0,beats/min,,WEEK 16,8,2025-03-06,112
STUDY001,VS,STUDY001-SUBJ0005,41,HEIGHT,Height,188.3,cm,188.3,188.3,cm,,END OF TREATMENT,9,2025-04-03,140
STUDY001,VS,STUDY001-SUBJ0005,42,WEIGHT,Weight,105.4,kg,105.4,105.4,kg,,END OF TREATMENT,9,2025-04-03,140
STUDY001,VS,STUDY001-SUBJ0005,43,TEMP,Temperature,36.2,C,36.2,36.2,C,,END OF TREATMENT,9,2025-04-03,140
STUDY001,VS,STUDY001-SUBJ0005,44,BP,Blood Pressure,104/85,mmHg,104/85,,mmHg,,END OF TREATMENT,9,2025-04-03,140
STUDY001,VS,STUDY001-SUBJ0005,45,HR,Heart Rate,76,beats/min,76,76.0,beats/min,,END OF TREATMENT,9,2025-04-03,140
STUDY001,VS,STUDY001-SUBJ0006,1,HEIGHT,Height,194.5,cm,194.5,194.5,cm,,SCREENING,1,2024-09-20,-14
STUDY001,VS,STUDY001-SUBJ0006,2,WEIGHT,Weight,74.4,kg,74.4,74.4,kg,,SCREENING,1,2024-09-20,-14
STUDY001,VS,STUDY001-SUBJ0006,3,TEMP,Temperature,36.7,C,36.7,36.7,C,,SCREENING,1,2024-09-20,-14
STUDY001,VS,STUDY001-SUBJ0006,4,BP,Blood Pressure,133/93,mmHg,133/93,,mmHg,,SCREENING,1,2024-09-20,-14
STUDY001,VS,STUDY001-SUBJ0006,5,HR,Heart Rate,69,beats/min,69,69.0,beats/min,,SCREENING,1,2024-09-20,-14
STUDY001,VS,STUDY001-SUBJ0006,6,HEIGHT,Height,194.6,cm,194.6,194.6,cm,Y,BASELINE,2,2024-10-04,1
STUDY001,VS,STUDY001-SUBJ0006,7,WEIGHT,Weight,74.9,kg,74.9,74.9,kg,Y,BASELINE,2,2024-10-04,1
STUDY001,VS,STUDY001-SUBJ0006,8,TEMP,Temperature,36.5,C,36.5,36.5,C,Y,BASELINE,2,2024-10-04,1
STUDY001,VS,STUDY001-SUBJ0006,9,BP,Blood Pressure,133/93,mmHg,133/93,,mmHg,Y,BASELINE,2,2024-10-04,1
STUDY001,VS,STUDY001-SUBJ0006,10,HR,Heart Rate,70,beats/min,70,70.0,beats/min,Y,BASELINE,2,2024-10-04,1
STUDY001,VS,STUDY001-SUBJ0006,11,HEIGHT,Height,194.6,cm,194.6,194.6,cm,,WEEK 1,3,2024-10-10,7
STUDY001,VS,STUDY001-SUBJ0006,12,WEIGHT,Weight,74.6,kg,74.6,74.6,kg,,WEEK 1,3,2024-10-10,7
STUDY001,VS,STUDY001-SUBJ0006,13,TEMP,Temperature,36.8,C,36.8,36.8,C,,WEEK 1,3,2024-10-10,7
STUDY001,VS,STUDY001-SUBJ0006,14,BP,Blood Pressure,141/90,mmHg,141/90,,mmHg,,WEEK 1,3,2024-10-10,7
STUDY001,VS,STUDY001-SUBJ0006,15,HR,Heart Rate,76,beats/min,76,76.0,beats/min,,WEEK 1,3,2024-10-10,7
STUDY001,VS,STUDY001-SUBJ0006,16,HEIGHT,Height,194.4,cm,194.4,194.4,cm,,WEEK 2,4,2024-10-17,14
STUDY001,VS,STUDY001-SUBJ0006,17,WEIGHT,Weight,74.8,kg,74.8,74.8,kg,,WEEK 2,4,2024-10-17,14
STUDY001,VS,STUDY001-SUBJ0006,18,TEMP,Temperature,36.7,C,36.7,36.7,C,,WEEK 2,4,2024-10-17,14
STUDY001,VS,STUDY001-SUBJ0006,19,BP,Blood Pressure,137/95,mmHg,137/95,,mmHg,,WEEK 2,4,2024-10-17,14
STUDY001,VS,STUDY001-SUBJ0006,20,HR,Heart Rate,70,beats/min,70,70.0,beats/min,,WEEK 2,4,2024-10-17,14
STUDY001,VS,STUDY001-SUBJ0006,21,HEIGHT,Height,194.6,cm,194.6,194.6,cm,,WEEK 4,5,2024-10-31,28
STUDY001,VS,STUDY001-SUBJ0006,22,WEIGHT,Weight,76.1,kg,76.1,76.1,kg,,WEEK 4,5,2024-10-31,28
STUDY001,VS,STUDY001-SUBJ0006,23,TEMP,Temperature,36.9,C,36.9,36.9,C,,WEEK 4,5,2024-10-31,28
STUDY001,VS,STUDY001-SUBJ0006,24,BP,Blood Pressure,136/97,mmHg,136/97,,mmHg,,WEEK 4,5,2024-10-31,28
STUDY001,VS,STUDY001-SUBJ0006,25,HR,Heart Rate,70,beats/min,70,70.0,beats/min,,WEEK 4,5,2024-10-31,28
STUDY001,VS,STUDY001-SUBJ0006,26,HEIGHT,Height,194.7,cm,194.7,194.7,cm,,WEEK 8,6,2024-11-28,56
STUDY001,VS,STUDY001-SUBJ0006,27,WEIGHT,Weight,74.9,kg,74.9,74.9,kg,,WEEK 8,6,2024-11-28,56
STUDY001,VS,STUDY001-SUBJ0006,28,TEMP,Temperature,36.9,C,36.9,36.9,C,,WEEK 8,6,2024-11-28,56
STUDY001,VS,STUDY001-SUBJ0006,29,BP,Blood Pressure,140/95,mmHg,140/95,,mmHg,,WEEK 8,6,2024-11-28,56
STUDY001,VS,STUDY001-SUBJ0006,30,HR,Heart Rate,76,beats/min,76,76.0,beats/min,,WEEK 8,6,2024-11-28,56
STUDY001,VS,STUDY001-SUBJ0006,31,HEIGHT,Height,194.3,cm,194.3,194.3,cm,,WEEK 12,7,2024-12-26,84
STUDY001,VS,STUDY001-SUBJ0006,32,WEIGHT,Weight,75.9,kg,75.9,75.9,kg,,WEEK 12,7,2024-12-26,84
STUDY001,VS,STUDY001-SUBJ0006,33,TEMP,Temperature,36.7,C,36.7,36.7,C,,WEEK 12,7,2024-12-26,84
STUDY001,VS,STUDY001-SUBJ0006,34,BP,Blood Pressure,141/90,mmHg,141/90,,mmHg,,WEEK 12,7,2024-12-26,84
STUDY001,VS,STUDY001-SUBJ0006,35,HR,Heart Rate,75,beats/min,75,75.0,beats/min,,WEEK 12,7,2024-12-26,84
STUDY001,VS,STUDY001-SUBJ0006,36,HEIGHT,Height,194.6,cm,194.6,194.6,cm,,WEEK 16,8,2025-01-23,112
STUDY001,VS,STUDY001-SUBJ0006,37,WEIGHT,Weight,76.3,kg,76.3,76.3,kg,,WEEK 16,8,2025-01-23,112
STUDY001,VS,STUDY001-SUBJ0006,38,TEMP,Temperature,36.9,C,36.9,36.9,C,,WEEK 16,8,2025-01-23,112
STUDY001,VS,STUDY001-SUBJ0006,39,BP,Blood Pressure,132/93,mmHg,132/93,,mmHg,,WEEK 16,8,2025-01-23,112
STUDY001,VS,STUDY001-SUBJ0006,40,HR,Heart Rate,69,beats/min,69,69.0,beats/min,,WEEK 16,8,2025-01-23,112
STUDY001,VS,STUDY001-SUBJ0006,41,HEIGHT,Height,194.3,cm,194.3,194.3,cm,,END OF TREATMENT,9,2025-02-20,140
STUDY001,VS,STUDY001-SUBJ0006,42,WEIGHT,Weight,76.2,kg,76.2,76.2,kg,,END OF TREATMENT,9,2025-02-20,140
STUDY001,VS,STUDY001-SUBJ0006,43,TEMP,Temperature,36.5,C,36.5,36.5,C,,END OF TREATMENT,9,2025-02-20,140
STUDY001,VS,STUDY001-SUBJ0006,44,BP,Blood Pressure,135/89,mmHg,135/89,,mmHg,,END OF TREATMENT,9,2025-02-20,140
STUDY001,VS,STUDY001-SUBJ0006,45,HR,Heart Rate,72,beats/min,72,72.0,beats/min,,END OF TREATMENT,9,2025-02-20,140
STUDY001,VS,STUDY001-SUBJ0007,1,HEIGHT,Height,189.6,cm,189.6,189.6,cm,,SCREENING,1,2025-03-02,-14
STUDY001,VS,STUDY001-SUBJ0007,2,WEIGHT,Weight,80.4,kg,80.4,80.4,kg,,SCREENING,1,2025-03-02,-14
STUDY001,VS,STUDY001-SUBJ0007,3,TEMP,Temperature,36.5,C,36.5,36.5,C,,SCREENING,1,2025-03-02,-14
STUDY001,VS,STUDY001-SUBJ0007,4,BP,Blood Pressure,111/72,mmHg,111/72,,mmHg,,SCREENING,1,2025-03-02,-14
STUDY001,VS,STUDY001-SUBJ0007,5,HR,Heart Rate,60,beats/min,60,60.0,beats/min,,SCREENING,1,2025-03-02,-14
STUDY001,VS,STUDY001-SUBJ0007,6,HEIGHT,Height,189.7,cm,189.7,189.7,cm,Y,BASELINE,2,2025-03-16,1
STUDY001,VS,STUDY001-SUBJ0007,7,WEIGHT,Weight,82.2,kg,82.2,82.2,kg,Y,BASELINE,2,2025-03-16,1
STUDY001,VS,STUDY001-SUBJ0007,8,TEMP,Temperature,36.5,C,36.5,36.5,C,Y,BASELINE,2,2025-03-16,1
STUDY001,VS,STUDY001-SUBJ0007,9,BP,Blood Pressure,104/74,mmHg,104/74,,mmHg,Y,BASELINE,2,2025-03-16,1
STUDY001,VS,STUDY001-SUBJ0007,10,HR,Heart Rate,62,beats/min,62,62.0,beats/min,Y,BASELINE,2,2025-03-16,1
STUDY001,VS,STUDY001-SUBJ0007,11,HEIGHT,Height,189.6,cm,189.6,189.6,cm,,WEEK 1,3,2025-03-22,7
STUDY001,VS,STUDY001-SUBJ0007,12,WEIGHT,Weight,81.3,kg,81.3,81.3,kg,,WEEK 1,3,2025-03-22,7
STUDY001,VS,STUDY001-SUBJ0007,13,TEMP,Temperature,36.6,C,36.6,36.6,C,,WEEK 1,3,2025-03-22,7
STUDY001,VS,STUDY001-SUBJ0007,14,BP,Blood Pressure,111/81,mmHg,111/81,,mmHg,,WEEK 1,3,2025-03-22,7
STUDY001,VS,STUDY001-SUBJ0007,15,HR,Heart Rate,65,beats/min,65,65.0,beats/min,,WEEK 1,3,2025-03-22,7
STUDY001,VS,STUDY001-SUBJ0007,16,HEIGHT,Height,189.4,cm,189.4,189.4,cm,,WEEK 2,4,2025-03-29,14
STUDY001,VS,STUDY001-SUBJ0007,17,WEIGHT,Weight,81.7,kg,81.7,81.7,kg,,WEEK 2,4,2025-03-29,14
STUDY001,VS,STUDY001-SUBJ0007,18,TEMP,Temperature,36.7,C,36.7,36.7,C,,WEEK 2,4,2025-03-29,14
STUDY001,VS,STUDY001-SUBJ0007,19,BP,Blood Pressure,112/78,mmHg,112/78,,mmHg,,WEEK 2,4,2025-03-29,14
STUDY001,VS,STUDY001-SUBJ0007,20,HR,Heart Rate,55,beats/min,55,55.0,beats/min,,WEEK 2,4,2025-03-29,14
STUDY001,VS,STUDY001-SUBJ0007,21,HEIGHT,Height,189.6,cm,189.6,189.6,cm,,WEEK 4,5,2025-04-12,28
STUDY001,VS,STUDY001-SUBJ0007,22,WEIGHT,Weight,82.2,kg,82.2,82.2,kg,,WEEK 4,5,2025-04-12,28
STUDY001,VS,STUDY001-SUBJ0007,23,TEMP,Temperature,36.9,C,36.9,36.9,C,,WEEK 4,5,2025-04-12,28
STUDY001,VS,STUDY001-SUBJ0007,24,BP,Blood Pressure,105/76,mmHg,105/76,,mmHg,,WEEK 4,5,2025-04-12,28
STUDY001,VS,STUDY001-SUBJ0007,25,HR,Heart Rate,60,beats/min,60,60.0,beats/min,,WEEK 4,5,2025-04-12,28
STUDY001,VS,STUDY001-SUBJ0007,26,HEIGHT,Height,189.5,cm,189.5,189.5,cm,,WEEK 8,6,2025-05-10,56
STUDY001,VS,STUDY001-SUBJ0007,27,WEIGHT,Weight,82.3,kg,82.3,82.3,kg,,WEEK 8,6,2025-05-10,56
STUDY001,VS,STUDY001-SUBJ0007,28,TEMP,Temperature,36.7,C,36.7,36.7,C,,WEEK 8,6,2025-05-10,56
STUDY001,VS,STUDY001-SUBJ0007,29,BP,Blood Pressure,111/74,mmHg,111/74,,mmHg,,WEEK 8,6,2025-05-10,56
STUDY001,VS,STUDY001-SUBJ0007,30,HR,Heart Rate,65,beats/min,65,65.0,beats/min,,WEEK 8,6,2025-05-10,56
STUDY001,VS,STUDY001-SUBJ0007,31,HEIGHT,Height,189.7,cm,189.7,189.7,cm,,WEEK 12,7,2025-06-07,84
STUDY001,VS,STUDY001-SUBJ0007,32,WEIGHT,Weight,81.4,kg,81.4,81.4,kg,,WEEK 12,7,2025-06-07,84
STUDY001,VS,STUDY001-SUBJ0007,33,TEMP,Temperature,36.8,C,36.8,36.8,C,,WEEK 12,7,2025-06-07,84
STUDY001,VS,STUDY001-SUBJ0007,34,BP,Blood Pressure,107/73,mmHg,107/73,,mmHg,,WEEK 12,7,2025-06-07,84
STUDY001,VS,STUDY001-SUBJ0007,35,HR,Heart Rate,63,beats/min,63,63.0,beats/min,,WEEK 12,7,2025-06-07,84
STUDY001,VS,STUDY001-SUBJ0007,36,HEIGHT,Height,189.6,cm,189.6,189.6,cm,,WEEK 16,8,2025-07-05,112
STUDY001,VS,STUDY001-SUBJ0007,37,WEIGHT,Weight,82.1,kg,82.1,82.1,kg,,WEEK 16,8,2025-07-05,112
STUDY001,VS,STUDY001-SUBJ0007,38,TEMP,Temperature,36.5,C,36.5,36.5,C,,WEEK 16,8,2025-07-05,112
STUDY001,VS,STUDY001-SUBJ0007,39,BP,Blood Pressure,106/81,mmHg,106/81,,mmHg,,WEEK 16,8,2025-07-05,112
STUDY001,VS,STUDY001-SUBJ0007,40,HR,Heart Rate,63,beats/min,63,63.0,beats/min,,WEEK 16,8,2025-07-05,112
STUDY001,VS,STUDY001-SUBJ0007,41,HEIGHT,Height,189.8,cm,189.8,189.8,cm,,END OF TREATMENT,9,2025-08-02,140
STUDY001,VS,STUDY001-SUBJ0007,42,WEIGHT,Weight,81.2,kg,81.2,81.2,kg,,END OF TREATMENT,9,2025-08-02,140
STUDY001,VS,STUDY001-SUBJ0007,43,TEMP,Temperature,36.7,C,36.7,36.7,C,,END OF TREATMENT,9,2025-08-02,140
STUDY001,VS,STUDY001-SUBJ0007,44,BP,Blood Pressure,104/78,mmHg,104/78,,mmHg,,END OF TREATMENT,9,2025-08-02,140
STUDY001,VS,STUDY001-SUBJ0007,45,HR,Heart Rate,57,beats/min,57,57.0,beats/min,,END OF TREATMENT,9,2025-08-02,140
STUDY001,VS,STUDY001-SUBJ0008,1,HEIGHT,Height,164.0,cm,164.0,164.0,cm,,SCREENING,1,2025-02-19,-14
STUDY001,VS,STUDY001-SUBJ0008,2,WEIGHT,Weight,87.3,kg,87.3,87.3,kg,,SCREENING,1,2025-02-19,-14
STUDY001,VS,STUDY001-SUBJ0008,3,TEMP,Temperature,36.8,C,36.8,36.8,C,,SCREENING,1,2025-02-19,-14
STUDY001,VS,STUDY001-SUBJ0008,4,BP,Blood Pressure,104/100,mmHg,104/100,,mmHg,,SCREENING,1,2025-02-19,-14
STUDY001,VS,STUDY001-SUBJ0008,5,HR,Heart Rate,71,beats/min,71,71.0,beats/min,,SCREENING,1,2025-02-19,-14
STUDY001,VS,STUDY001-SUBJ0008,6,HEIGHT,Height,164.1,cm,164.1,164.1,cm,Y,BASELINE,2,2025-03-05,1
STUDY001,VS,STUDY001-SUBJ0008,7,WEIGHT,Weight,87.0,kg,87.0,87.0,kg,Y,BASELINE,2,2025-03-05,1
STUDY001,VS,STUDY001-SUBJ0008,8,TEMP,Temperature,36.8,C,36.8,36.8,C,Y,BASELINE,2,2025-03-05,1
STUDY001,VS,STUDY001-SUBJ0008,9,BP,Blood Pressure,101/98,mmHg,101/98,,mmHg,Y,BASELINE,2,2025-03-05,1
STUDY001,VS,STUDY001-SUBJ0008,10,HR,Heart Rate,72,beats/min,72,72.0,beats/min,Y,BASELINE,2,2025-03-05,1
STUDY001,VS,STUDY001-SUBJ0008,11,HEIGHT,Height,164.0,cm,164.0,164.0,cm,,WEEK 1,3,2025-03-11,7
STUDY001,VS,STUDY001-SUBJ0008,12,WEIGHT,Weight,86.6,kg,86.6,86.6,kg,,WEEK 1,3,2025-03-11,7
STUDY001,VS,STUDY001-SUBJ0008,13,TEMP,Temperature,36.6,C,36.6,36.6,C,,WEEK 1,3,2025-03-11,7
STUDY001,VS,STUDY001-SUBJ0008,14,BP,Blood Pressure,99/95,mmHg,99/95,,mmHg,,WEEK 1,3,2025-03-11,7
STUDY001,VS,STUDY001-SUBJ0008,15,HR,Heart Rate,70,beats/min,70,70.0,beats/min,,WEEK 1,3,2025-03-11,7
STUDY001,VS,STUDY001-SUBJ0008,16,HEIGHT,Height,164.0,cm,164.0,164.0,cm,,WEEK 2,4,2025-03-18,14
STUDY001,VS,STUDY001-SUBJ0008,17,WEIGHT,Weight,87.9,kg,87.9,87.9,kg,,WEEK 2,4,2025-03-18,14
STUDY001,VS,STUDY001-SUBJ0008,18,TEMP,Temperature,36.8,C,36.8,36.8,C,,WEEK 2,4,2025-03-18,14
STUDY001,VS,STUDY001-SUBJ0008,19,BP,Blood Pressure,101/99,mmHg,101/99,,mmHg,,WEEK 2,4,2025-03-18,14
STUDY001,VS,STUDY001-SUBJ0008,20,HR,Heart Rate,74,beats/min,74,74.0,beats/min,,WEEK 2,4,2025-03-18,14
STUDY001,VS,STUDY001-SUBJ0008,21,HEIGHT,Height,164.0,cm,164.0,164.0,cm,,WEEK 4,5,2025-04-01,28
STUDY001,VS,STUDY001-SUBJ0008,22,WEIGHT,Weight,87.5,kg,87.5,87.5,kg,,WEEK 4,5,2025-04-01,28
STUDY001,VS,STUDY001-SUBJ0008,23,TEMP,Temperature,37.1,C,37.1,37.1,C,,WEEK 4,5,2025-04-01,28
STUDY001,VS,STUDY001-SUBJ0008,24,BP,Blood Pressure,106/94,mmHg,106/94,,mmHg,,WEEK 4,5,2025-04-01,28
STUDY001,VS,STUDY001-SUBJ0008,25,HR,Heart Rate,67,beats/min,67,67.0,beats/min,,WEEK 4,5,2025-04-01,28
STUDY001,VS,STUDY001-SUBJ0008,26,HEIGHT,Height,164.0,cm,164.0,164.0,cm,,WEEK 8,6,2025-04-29,56
STUDY001,VS,STUDY001-SUBJ0008,27,WEIGHT,Weight,86.7,kg,86.7,86.7,kg,,WEEK 8,6,2025-04-29,56
STUDY001,VS,STUDY001-SUBJ0008,28,TEMP,Temperature,36.7,C,36.7,36.7,C,,WEEK 8,6,2025-04-29,56
STUDY001,VS,STUDY001-SUBJ0008,29,BP,Blood Pressure,104/94,mmHg,104/94,,mmHg,,WEEK 8,6,2025-04-29,56
STUDY001,VS,STUDY001-SUBJ0008,30,HR,Heart Rate,73,beats/min,73,73.0,beats/min,,WEEK 8,6,2025-04-29,56
STUDY001,VS,STUDY001-SUBJ0008,31,HEIGHT,Height,164.0,cm,164.0,164.0,cm,,WEEK 12,7,2025-05-27,84
STUDY001,VS,STUDY001-SUBJ0008,32,WEIGHT,Weight,87.9,kg,87.9,87.9,kg,,WEEK 12,7,2025-05-27,84
STUDY001,VS,STUDY001-SUBJ0008,33,TEMP,Temperature,37.1,C,37.1,37.1,C,,WEEK 12,7,2025-05-27,84
STUDY001,VS,STUDY001-SUBJ0008,34,BP,Blood Pressure,103/94,mmHg,103/94,,mmHg,,WEEK 12,7,2025-05-27,84
STUDY001,VS,STUDY001-SUBJ0008,35,HR,Heart Rate,72,beats/min,72,72.0,beats/min,,WEEK 12,7,2025-05-27,84
STUDY001,VS,STUDY001-SUBJ0008,36,HEIGHT,Height,164.1,cm,164.1,164.1,cm,,WEEK 16,8,2025-06-24,112
STUDY001,VS,STUDY001-SUBJ0008,37,WEIGHT,Weight,86.5,kg,86.5,86.5,kg,,WEEK 16,8,2025-06-24,112
STUDY001,VS,STUDY001-SUBJ0008,38,TEMP,Temperature,37.1,C,37.1,37.1,C,,WEEK 16,8,2025-06-24,112
STUDY001,VS,STUDY001-SUBJ0008,39,BP,Blood Pressure,100/98,mmHg,100/98,,mmHg,,WEEK 16,8,2025-06-24,112
STUDY001,VS,STUDY001-SUBJ0008,40,HR,Heart Rate,69,beats/min,69,69.0,beats/min,,WEEK 16,8,2025-06-24,112
STUDY001,VS,STUDY001-SUBJ0008,41,HEIGHT,Height,163.9,cm,163.9,163.9,cm,,END OF TREATMENT,9,2025-07-22,140
STUDY001,VS,STUDY001-SUBJ0008,42,WEIGHT,Weight,87.3,kg,87.3,87.3,kg,,END OF TREATMENT,9,2025-07-22,140
STUDY001,VS,STUDY001-SUBJ0008,43,TEMP,Temperature,36.6,C,36.6,36.6,C,,END OF TREATMENT,9,2025-07-22,140
STUDY001,VS,STUDY001-SUBJ0008,44,BP,Blood Pressure,101/97,mmHg,101/97,,mmHg,,END OF TREATMENT,9,2025-07-22,140
STUDY001,VS,STUDY001-SUBJ0008,45,HR,Heart Rate,71,beats/min,71,71.0,beats/min,,END OF TREATMENT,9,2025-07-22,140
STUDY001,VS,STUDY001-SUBJ0009,1,HEIGHT,Height,164.8,cm,164.8,164.8,cm,,SCREENING,1,2024-11-10,-14
STUDY001,VS,STUDY001-SUBJ0009,2,WEIGHT,Weight,54.8,kg,54.8,54.8,kg,,SCREENING,1,2024-11-10,-14
STUDY001,VS,STUDY001-SUBJ0009,3,TEMP,Temperature,36.3,C,36.3,36.3,C,,SCREENING,1,2024-11-10,-14
STUDY001,VS,STUDY001-SUBJ0009,4,BP,Blood Pressure,148/93,mmHg,148/93,,mmHg,,SCREENING,1,2024-11-10,-14
STUDY001,VS,STUDY001-SUBJ0009,5,HR,Heart Rate,87,beats/min,87,87.0,beats/min,,SCREENING,1,2024-11-10,-14
STUDY001,VS,STUDY001-SUBJ0009,6,HEIGHT,Height,164.9,cm,164.9,164.9,cm,Y,BASELINE,2,2024-11-24,1
STUDY001,VS,STUDY001-SUBJ0009,7,WEIGHT,Weight,53.5,kg,53.5,53.5,kg,Y,BASELINE,2,2024-11-24,1
STUDY001,VS,STUDY001-SUBJ0009,8,TEMP,Temperature,36.7,C,36.7,36.7,C,Y,BASELINE,2,2024-11-24,1
STUDY001,VS,STUDY001-SUBJ0009,9,BP,Blood Pressure,147/94,mmHg,147/94,,mmHg,Y,BASELINE,2,2024-11-24,1
STUDY001,VS,STUDY001-SUBJ0009,10,HR,Heart Rate,85,beats/min,85,85.0,beats/min,Y,BASELINE,2,2024-11-24,1
STUDY001,VS,STUDY001-SUBJ0009,11,HEIGHT,Height,164.7,cm,164.7,164.7,cm,,WEEK 1,3,2024-11-30,7
STUDY001,VS,STUDY001-SUBJ0009,12,WEIGHT,Weight,54.9,kg,54.9,54.9,kg,,WEEK 1,3,2024-11-30,7
STUDY001,VS,STUDY001-SUBJ0009,13,TEMP,Temperature,36.4,C,36.4,36.4,C,,WEEK 1,3,2024-11-30,7
STUDY001,VS,STUDY001-SUBJ0009,14,BP,Blood Pressure,147/93,mmHg,147/93,,mmHg,,WEEK 1,3,2024-11-30,7
STUDY001,VS,STUDY001-SUBJ0009,15,HR,Heart Rate,86,beats/min,86,86.0,beats/min,,WEEK 1,3,2024-11-30,7
STUDY001,VS,STUDY001-SUBJ0009,16,HEIGHT,Height,164.9,cm,164.9,164.9,cm,,WEEK 2,4,2024-12-07,14
STUDY001,VS,STUDY001-SUBJ0009,17,WEIGHT,Weight,53.6,kg,53.6,53.6,kg,,WEEK 2,4,2024-12-07,14
STUDY001,VS,STUDY001-SUBJ0009,18,TEMP,Temperature,36.5,C,36.5,36.5,C,,WEEK 2,4,2024-12-07,14
STUDY001,VS,STUDY001-SUBJ0009,19,BP,Blood Pressure,150/89,mmHg,150/89,,mmHg,,WEEK 2,4,2024-12-07,14
STUDY001,VS,STUDY001-SUBJ0009,20,HR,Heart Rate,87,beats/min,87,87.0,beats/min,,WEEK 2,4,2024-12-07,14
STUDY001,VS,STUDY001-SUBJ0009,21,HEIGHT,Height,164.6,cm,164.6,164.6,cm,,WEEK 4,5,2024-12-21,28
STUDY001,VS,STUDY001-SUBJ0009,22,WEIGHT,Weight,53.2,kg,53.2,53.2,kg,,WEEK 4,5,2024-12-21,28
STUDY001,VS,STUDY001-SUBJ0009,23,TEMP,Temperature,36.3,C,36.3,36.3,C,,WEEK 4,5,2024-12-21,28
STUDY001,VS,STUDY001-SUBJ0009,24,BP,Blood Pressure,144/86,mmHg,144/86,,mmHg,,WEEK 4,5,2024-12-21,28
STUDY001,VS,STUDY001-SUBJ0009,25,HR,Heart Rate,89,beats/min,89,89.0,beats/min,,WEEK 4,5,2024-12-21,28
STUDY001,VS,STUDY001-SUBJ0009,26,HEIGHT,Height,164.7,cm,164.7,164.7,cm,,WEEK 8,6,2025-01-18,56
STUDY001,VS,STUDY001-SUBJ0009,27,WEIGHT,Weight,55.0,kg,55.0,55.0,kg,,WEEK 8,6,2025-01-18,56
STUDY001,VS,STUDY001-SUBJ0009,28,TEMP,Temperature,36.5,C,36.5,36.5,C,,WEEK 8,6,2025-01-18,56
STUDY001,VS,STUDY001-SUBJ0009,29,BP,Blood Pressure,150/87,mmHg,150/87,,mmHg,,WEEK 8,6,2025-01-18,56
STUDY001,VS,STUDY001-SUBJ0009,30,HR,Heart Rate,88,beats/min,88,88.0,beats/min,,WEEK 8,6,2025-01-18,56
STUDY001,VS,STUDY001-SUBJ0009,31,HEIGHT,Height,164.8,cm,164.8,164.8,cm,,WEEK 12,7,2025-02-15,84
STUDY001,VS,STUDY001-SUBJ0009,32,WEIGHT,Weight,54.5,kg,54.5,54.5,kg,,WEEK 12,7,2025-02-15,84
STUDY001,VS,STUDY001-SUBJ0009,33,TEMP,Temperature,36.4,C,36.4,36.4,C,,WEEK 12,7,2025-02-15,84
STUDY001,VS,STUDY001-SUBJ0009,34,BP,Blood Pressure,145/93,mmHg,145/93,,mmHg,,WEEK 12,7,2025-02-15,84
STUDY001,VS,STUDY001-SUBJ0009,35,HR,Heart Rate,88,beats/min,88,88.0,beats/min,,WEEK 12,7,2025-02-15,84
STUDY001,VS,STUDY001-SUBJ0009,36,HEIGHT,Height,164.8,cm,164.8,164.8,cm,,WEEK 16,8,2025-03-15,112
STUDY001,VS,STUDY001-SUBJ0009,37,WEIGHT,Weight,53.5,kg,53.5,53.5,kg,,WEEK 16,8,2025-03-15,112
STUDY001,VS,STUDY001-SUBJ0009,38,TEMP,Temperature,36.8,C,36.8,36.8,C,,WEEK 16,8,2025-03-15,112
STUDY001,VS,STUDY001-SUBJ0009,39,BP,Blood Pressure,149/91,mmHg,149/91,,mmHg,,WEEK 16,8,2025-03-15,112
STUDY001,VS,STUDY001-SUBJ0009,40,HR,Heart Rate,89,beats/min,89,89.0,beats/min,,WEEK 16,8,2025-03-15,112
STUDY001,VS,STUDY001-SUBJ0009,41,HEIGHT,Height,164.9,cm,164.9,164.9,cm,,END OF TREATMENT,9,2025-04-12,140
STUDY001,VS,STUDY001-SUBJ0009,42,WEIGHT,Weight,53.7,kg,53.7,53.7,kg,,END OF TREATMENT,9,2025-04-12,140
STUDY001,VS,STUDY001-SUBJ0009,43,TEMP,Temperature,36.5,C,36.5,36.5,C,,END OF TREATMENT,9,2025-04-12,140
STUDY001,VS,STUDY001-SUBJ0009,44,BP,Blood Pressure,150/93,mmHg,150/93,,mmHg,,END OF TREATMENT,9,2025-04-12,140
STUDY001,VS,STUDY001-SUBJ0009,45,HR,Heart Rate,88,beats/min,88,88.0,beats/min,,END OF TREATMENT,9,2025-04-12,140
STUDY001,VS,STUDY001-SUBJ0010,1,HEIGHT,Height,171.3,cm,171.3,171.3,cm,,SCREENING,1,2025-05-08,-14
STUDY001,VS,STUDY001-SUBJ0010,2,WEIGHT,Weight,107.9,kg,107.9,107.9,kg,,SCREENING,1,2025-05-08,-14
STUDY001,VS,STUDY001-SUBJ0010,3,TEMP,Temperature,36.4,C,36.4,36.4,C,,SCREENING,1,2025-05-08,-14
STUDY001,VS,STUDY001-SUBJ0010,4,BP,Blood Pressure,144/94,mmHg,144/94,,mmHg,,SCREENING,1,2025-05-08,-14
STUDY001,VS,STUDY001-SUBJ0010,5,HR,Heart Rate,81,beats/min,81,81.0,beats/min,,SCREENING,1,2025-05-08,-14
STUDY001,VS,STUDY001-SUBJ0010,6,HEIGHT,Height,171.4,cm,171.4,171.4,cm,Y,BASELINE,2,2025-05-22,1
STUDY001,VS,STUDY001-SUBJ0010,7,WEIGHT,Weight,107.9,kg,107.9,107.9,kg,Y,BASELINE,2,2025-05-22,1
STUDY001,VS,STUDY001-SUBJ0010,8,TEMP,Temperature,36.4,C,36.4,36.4,C,Y,BASELINE,2,2025-05-22,1
STUDY001,VS,STUDY001-SUBJ0010,9,BP,Blood Pressure,139/94,mmHg,139/94,,mmHg,Y,BASELINE,2,2025-05-22,1
STUDY001,VS,STUDY001-SUBJ0010,10,HR,Heart Rate,84,beats/min,84,84.0,beats/min,Y,BASELINE,2,2025-05-22,1
STUDY001,VS,STUDY001-SUBJ0010,11,HEIGHT,Height,171.5,cm,171.5,171.5,cm,,WEEK 1,3,2025-05-28,7
STUDY001,VS,STUDY001-SUBJ0010,12,WEIGHT,Weight,108.1,kg,108.1,108.1,kg,,WEEK 1,3,2025-05-28,7
STUDY001,VS,STUDY001-SUBJ0010,13,TEMP,Temperature,36.5,C,36.5,36.5,C,,WEEK 1,3,2025-05-28,7
STUDY001,VS,STUDY001-SUBJ0010,14,BP,Blood Pressure,145/96,mmHg,145/96,,mmHg,,WEEK 1,3,2025-05-28,7
STUDY001,VS,STUDY001-SUBJ0010,15,HR,Heart Rate,81,beats/min,81,81.0,beats/min,,WEEK 1,3,2025-05-28,7
STUDY001,VS,STUDY001-SUBJ0010,16,HEIGHT,Height,171.4,cm,171.4,171.4,cm,,WEEK 2,4,2025-06-04,14
STUDY001,VS,STUDY001-SUBJ0010,17,WEIGHT,Weight,107.8,kg,107.8,107.8,kg,,WEEK 2,4,2025-06-04,14
STUDY001,VS,STUDY001-SUBJ0010,18,TEMP,Temperature,36.3,C,36.3,36.3,C,,WEEK 2,4,2025-06-04,14
STUDY001,VS,STUDY001-SUBJ0010,19,BP,Blood Pressure,140/88,mmHg,140/88,,mmHg,,WEEK 2,4,2025-06-04,14
STUDY001,VS,STUDY001-SUBJ0010,20,HR,Heart Rate,84,beats/min,84,84.0,beats/min,,WEEK 2,4,2025-06-04,14
STUDY001,VS,STUDY001-SUBJ0010,21,HEIGHT,Height,171.5,cm,171.5,171.5,cm,,WEEK 4,5,2025-06-18,28
STUDY001,VS,STUDY001-SUBJ0010,22,WEIGHT,Weight,109.6,kg,109.6,109.6,kg,,WEEK 4,5,2025-06-18,28
STUDY001,VS,STUDY001-SUBJ0010,23,TEMP,Temperature,36.8,C,36.8,36.8,C,,WEEK 4,5,2025-06-18,28
STUDY001,VS,STUDY001-SUBJ0010,24,BP,Blood Pressure,146/95,mmHg,146/95,,mmHg,,WEEK 4,5,2025-06-18,28
STUDY001,VS,STUDY001-SUBJ0010,25,HR,Heart Rate,79,beats/min,79,79.0,beats/min,,WEEK 4,5,2025-06-18,28
STUDY001,VS,STUDY001-SUBJ0010,26,HEIGHT,Height,171.3,cm,171.3,171.3,cm,,WEEK 8,6,2025-07-16,56
STUDY001,VS,STUDY001-SUBJ0010,27,WEIGHT,Weight,109.4,kg,109.4,109.4,kg,,WEEK 8,6,2025-07-16,56
STUDY001,VS,STUDY001-SUBJ0010,28,TEMP,Temperature,36.6,C,36.6,36.6,C,,WEEK 8,6,2025-07-16,56
STUDY001,VS,STUDY001-SUBJ0010,29,BP,Blood Pressure,142/91,mmHg,142/91,,mmHg,,WEEK 8,6,2025-07-16,56
STUDY001,VS,STUDY001-SUBJ0010,30,HR,Heart Rate,82,beats/min,82,82.0,beats/min,,WEEK 8,6,2025-07-16,56
STUDY001,VS,STUDY001-SUBJ0010,31,HEIGHT,Height,171.5,cm,171.5,171.5,cm,,WEEK 12,7,2025-08-13,84
STUDY001,VS,STUDY001-SUBJ0010,32,WEIGHT,Weight,108.9,kg,108.9,108.9,kg,,WEEK 12,7,2025-08-13,84
STUDY001,VS,STUDY001-SUBJ0010,33,TEMP,Temperature,36.6,C,36.6,36.6,C,,WEEK 12,7,2025-08-13,84
STUDY001,VS,STUDY001-SUBJ0010,34,BP,Blood Pressure,144/90,mmHg,144/90,,mmHg,,WEEK 12,7,2025-08-13,84
STUDY001,VS,STUDY001-SUBJ0010,35,HR,Heart Rate,77,beats/min,77,77.0,beats/min,,WEEK 12,7,2025-08-13,84
STUDY001,VS,STUDY001-SUBJ0010,36,HEIGHT,Height,171.4,cm,171.4,171.4,cm,,WEEK 16,8,2025-09-10,112
STUDY001,VS,STUDY001-SUBJ0010,37,WEIGHT,Weight,108.1,kg,108.1,108.1,kg,,WEEK 16,8,2025-09-10,112
STUDY001,VS,STUDY001-SUBJ0010,38,TEMP,Temperature,36.7,C,36.7,36.7,C,,WEEK 16,8,2025-09-10,112
STUDY001,VS,STUDY001-SUBJ0010,39,BP,Blood Pressure,143/94,mmHg,143/94,,mmHg,,WEEK 16,8,2025-09-10,112
STUDY001,VS,STUDY001-SUBJ0010,40,HR,Heart Rate,80,beats/min,80,80.0,beats/min,,WEEK 16,8,2025-09-10,112
STUDY001,VS,STUDY001-SUBJ0010,41,HEIGHT,Height,171.3,cm,171.3,171.3,cm,,END OF TREATMENT,9,2025-10-08,140
STUDY001,VS,STUDY001-SUBJ0010,42,WEIGHT,Weight,108.4,kg,108.4,108.4,kg,,END OF TREATMENT,9,2025-10-08,140
STUDY001,VS,STUDY001-SUBJ0010,43,TEMP,Temperature,36.7,C,36.7,36.7,C,,END OF TREATMENT,9,2025-10-08,140
STUDY001,VS,STUDY001-SUBJ0010,44,BP,Blood Pressure,142/97,mmHg,142/97,,mmHg,,END OF TREATMENT,9,2025-10-08,140
STUDY001,VS,STUDY001-SUBJ0010,45,HR,Heart Rate,80,beats/min,80,80.0,beats/min,,END OF TREATMENT,9,2025-10-08,140
