STUDYID,DOMAIN,USUBJID,VSSEQ,VSTESTCD,VSTEST,VSORRES,VSORRESU,VSSTRESC,VSSTRESN,VSSTRESU,VSBLFL,VISIT,VISITNUM,VSDTC,VSDY
STUDY001,VS,STUDY001-SUBJ0001,1,HEIGHT,Height,169.9,cm,169.9,169.9,cm,,SCREENING,1,2024-10-08,-14
STUDY001,VS,STUDY001-SUBJ0001,2,WEIGHT,Weight,78.7,kg,78.7,78.7,kg,,SCREENING,1,2024-10-08,-14
STUDY001,VS,STUDY001-SUBJ0001,3,TEMP,Temperature,36.3,C,36.3,36.3,C,,SCREENING,1,2024-10-08,-14
STUDY001,VS,STUDY001-SUBJ0001,4,BP,Blood Pressure,108/65,mmHg,108/65,,mmHg,,SCREENING,1,2024-10-08,-14
STUDY001,VS,STUDY001-SUBJ0001,5,HR,Heart Rate,66,beats/min,66,66.0,beats/min,,SCREENING,1,2024-10-08,-14
STUDY001,VS,STUDY001-SUBJ0001,6,HEIGHT,Height,170.1,cm,170.1,170.1,cm,Y,BASELINE,2,2024-10-22,1
STUDY001,VS,STUDY001-SUBJ0001,7,WEIGHT,Weight,77.4,kg,77.4,77.4,kg,Y,BASELINE,2,2024-10-22,1
STUDY001,VS,STUDY001-SUBJ0001,8,TEMP,Temperature,36.4,C,36.4,36.4,C,Y,BASELINE,2,2024-10-22,1
STUDY001,VS,STUDY001-SUBJ0001,9,BP,Blood Pressure,104/72,mmHg,104/72,,mmHg,Y,BASELINE,2,2024-10-22,1
STUDY001,VS,STUDY001-SUBJ0001,10,HR,Heart Rate,58,beats/min,58,58.0,beats/min,Y,BASELINE,2,2024-10-22,1
STUDY001,VS,STUDY001-SUBJ0001,11,HEIGHT,Height,169.8,cm,169.8,169.8,cm,,WEEK 1,3,2024-10-28,7
STUDY001,VS,STUDY001-SUBJ0001,12,WEIGHT,Weight,78.1,kg,78.1,78.1,kg,,WEEK 1,3,2024-10-28,7
STUDY001,VS,STUDY001-SUBJ0001,13,TEMP,Temperature,36.1,C,36.1,36.1,C,,WEEK 1,3,2024-10-28,7
STUDY001,VS,STUDY001-SUBJ0001,14,BP,Blood Pressure,109/67,mmHg,109/67,,mmHg,,WEEK 1,3,2024-10-28,7
STUDY001,VS,STUDY001-SUBJ0001,15,HR,Heart Rate,58,beats/min,58,58.0,beats/min,,WEEK 1,3,2024-10-28,7
STUDY001,VS,STUDY001-SUBJ0001,16,HEIGHT,Height,170.0,cm,170.0,170.0,cm,,WEEK 2,4,2024-11-04,14
STUDY001,VS,STUDY001-SUBJ0001,17,WEIGHT,Weight,77.0,kg,77.0,77.0,kg,,WEEK 2,4,2024-11-04,14
STUDY001,VS,STUDY001-SUBJ0001,18,TEMP,Temperature,36.3,C,36.3,36.3,C,,WEEK 2,4,2024-11-04,14
STUDY001,VS,STUDY001-SUBJ0001,19,BP,Blood Pressure,105/67,mmHg,105/67,,mmHg,,WEEK 2,4,2024-11-04,14
STUDY001,VS,STUDY001-SUBJ0001,20,HR,Heart Rate,64,beats/min,64,64.0,beats/min,,WEEK 2,4,2024-11-04,14
STUDY001,VS,STUDY001-SUBJ0001,21,HEIGHT,Height,170.1,cm,170.1,170.1,cm,,WEEK 4,5,2024-11-18,28
STUDY001,VS,STUDY001-SUBJ0001,22,WEIGHT,Weight,78.2,kg,78.2,78.2,kg,,WEEK 4,5,2024-11-18,28
STUDY001,VS,STUDY001-SUBJ0001,23,TEMP,Temperature,36.1,C,36.1,36.1,C,,WEEK 4,5,2024-11-18,28
STUDY001,VS,STUDY001-SUBJ0001,24,BP,Blood Pressure,107/65,mmHg,107/65,,mmHg,,WEEK 4,5,2024-11-18,28
STUDY001,VS,STUDY001-SUBJ0001,25,HR,Heart Rate,64,beats/min,64,64.0,beats/min,,WEEK 4,5,2024-11-18,28
STUDY001,VS,STUDY001-SUBJ0001,26,HEIGHT,Height,170.1,cm,170.1,170.1,cm,,WEEK 8,6,2024-12-16,56
STUDY001,VS,STUDY001-SUBJ0001,27,WEIGHT,Weight,77.1,kg,77.1,77.1,kg,,WEEK 8,6,2024-12-16,56
STUDY001,VS,STUDY001-SUBJ0001,28,TEMP,Temperature,36.2,C,36.2,36.2,C,,WEEK 8,6,2024-12-16,56
STUDY001,VS,STUDY001-SUBJ0001,29,BP,Blood Pressure,105/66,mmHg,105/66,,mmHg,,WEEK 8,6,2024-12-16,56
STUDY001,VS,STUDY001-SUBJ0001,30,HR,Heart Rate,64,beats/min,64,64.0,beats/min,,WEEK 8,6,2024-12-16,56
STUDY001,VS,STUDY001-SUBJ0001,31,HEIGHT,Height,169.9,cm,169.9,169.9,cm,,WEEK 12,7,2025-01-13,84
STUDY001,VS,STUDY001-SUBJ0001,32,WEIGHT,Weight,78.0,kg,78.0,78.0,kg,,WEEK 12,7,2025-01-13,84
STUDY001,VS,STUDY001-SUBJ0001,33,TEMP,Temperature,36.1,C,36.1,36.1,C,,WEEK 12,7,2025-01-13,84
STUDY001,VS,STUDY001-SUBJ0001,34,BP,Blood Pressure,106/74,mmHg,106/74,,mmHg,,WEEK 12,7,2025-01-13,84
STUDY001,VS,STUDY001-SUBJ0001,35,HR,Heart Rate,60,beats/min,60,60.0,beats/min,,WEEK 12,7,2025-01-13,84
STUDY001,VS,STUDY001-SUBJ0001,36,HEIGHT,Height,170.0,cm,170.0,170.0,cm,,WEEK 16,8,2025-02-10,112
STUDY001,VS,STUDY001-SUBJ0001,37,WEIGHT,Weight,77.4,kg,77.4,77.4,kg,,WEEK 16,8,2025-02-10,112
STUDY001,VS,STUDY001-SUBJ0001,38,TEMP,Temperature,36.1,C,36.1,36.1,C,,WEEK 16,8,2025-02-10,112
STUDY001,VS,STUDY001-SUBJ0001,39,BP,Blood Pressure,105/68,mmHg,105/68,,mmHg,,WEEK 16,8,2025-02-10,112
STUDY001,VS,STUDY001-SUBJ0001,40,HR,Heart Rate,64,beats/min,64,64.0,beats/min,,WEEK 16,8,2025-02-10,112
STUDY001,VS,STUDY001-SUBJ0001,41,HEIGHT,Height,169.7,cm,169.7,169.7,cm,,END OF TREATMENT,9,2025-03-10,140
STUDY001,VS,STUDY001-SUBJ0001,42,WEIGHT,Weight,77.1,kg,77.1,77.1,kg,,END OF TREATMENT,9,2025-03-10,140
STUDY001,VS,STUDY001-SUBJ0001,43,TEMP,Temperature,36.0,C,36.0,36.0,C,,END OF TREATMENT,9,2025-03-10,140
STUDY001,VS,STUDY001-SUBJ0001,44,BP,Blood Pressure,110/74,mmHg,110/74,,mmHg,,END OF TREATMENT,9,2025-03-10,140
STUDY001,VS,STUDY001-SUBJ0001,45,HR,Heart Rate,63,beats/min,63,63.0,beats/min,,END OF TREATMENT,9,2025-03-10,140
STUDY001,VS,STUDY001-SUBJ0002,1,HEIGHT,Height,184.0,cm,184.0,184.0,cm,,SCREENING,1,2024-09-29,-14
STUDY001,VS,STUDY001-SUBJ0002,2,WEIGHT,Weight,119.3,kg,119.3,119.3,kg,,SCREENING,1,2024-09-29,-14
STUDY001,VS,STUDY001-SUBJ0002,3,TEMP,Temperature,37.0,C,37.0,37.0,C,,SCREENING,1,2024-09-29,-14
STUDY001,VS,STUDY001-SUBJ0002,4,BP,Blood Pressure,129/75,mmHg,129/75,,mmHg,,SCREENING,1,2024-09-29,-14
STUDY001,VS,STUDY001-SUBJ0002,5,HR,Heart Rate,78,beats/min,78,78.0,beats/min,,SCREENING,1,2024-09-29,-14
STUDY001,VS,STUDY001-SUBJ0002,6,HEIGHT,Height,184.0,cm,184.0,184.0,cm,Y,BASELINE,2,2024-10-13,1
STUDY001,VS,STUDY001-SUBJ0002,7,WEIGHT,Weight,119.3,kg,119.3,119.3,kg,Y,BASELINE,2,2024-10-13,1
STUDY001,VS,STUDY001-SUBJ0002,8,TEMP,Temperature,37.2,C,37.2,37.2,C,Y,BASELINE,2,2024-10-13,1
STUDY001,VS,STUDY001-SUBJ0002,9,BP,Blood Pressure,126/81,mmHg,126/81,,mmHg,Y,BASELINE,2,2024-10-13,1
STUDY001,VS,STUDY001-SUBJ0002,10,HR,Heart Rate,70,beats/min,70,70.0,beats/min,Y,BASELINE,2,2024-10-13,1
STUDY001,VS,STUDY001-SUBJ0002,11,HEIGHT,Height,183.9,cm,183.9,183.9,cm,,WEEK 1,3,2024-10-19,7
STUDY001,VS,STUDY001-SUBJ0002,12,WEIGHT,Weight,119.5,kg,119.5,119.5,kg,,WEEK 1,3,2024-10-19,7
STUDY001,VS,STUDY001-SUBJ0002,13,TEMP,Temperature,37.1,C,37.1,37.1,C,,WEEK 1,3,2024-10-19,7
STUDY001,VS,STUDY001-SUBJ0002,14,BP,Blood Pressure,131/79,mmHg,131/79,,mmHg,,WEEK 1,3,2024-10-19,7
STUDY001,VS,STUDY001-SUBJ0002,15,HR,Heart Rate,74,beats/min,74,74.0,beats/min,,WEEK 1,3,2024-10-19,7
STUDY001,VS,STUDY001-SUBJ0002,16,HEIGHT,Height,183.8,cm,183.8,183.8,cm,,WEEK 2,4,2024-10-26,14
STUDY001,VS,STUDY001-SUBJ0002,17,WEIGHT,Weight,119.9,kg,119.9,119.9,kg,,WEEK 2,4,2024-10-26,14
STUDY001,VS,STUDY001-SUBJ0002,18,TEMP,Temperature,36.9,C,36.9,36.9,C,,WEEK 2,4,2024-10-26,14
STUDY001,VS,STUDY001-SUBJ0002,19,BP,Blood Pressure,131/82,mmHg,131/82,,mmHg,,WEEK 2,4,2024-10-26,14
STUDY001,VS,STUDY001-SUBJ0002,20,HR,Heart Rate,77,beats/min,77,77.0,beats/min,,WEEK 2,4,2024-10-26,14
STUDY001,VS,STUDY001-SUBJ0002,21,HEIGHT,Height,184.2,cm,184.2,184.2,cm,,WEEK 4,5,2024-11-09,28
STUDY001,VS,STUDY001-SUBJ0002,22,WEIGHT,Weight,119.6,kg,119.6,119.6,kg,,WEEK 4,5,2024-11-09,28
STUDY001,VS,STUDY001-SUBJ0002,23,TEMP,Temperature,36.9,C,36.9,36.9,C,,WEEK 4,5,2024-11-09,28
STUDY001,VS,STUDY001-SUBJ0002,24,BP,Blood Pressure,124/75,mmHg,124/75,,mmHg,,WEEK 4,5,2024-11-09,28
STUDY001,VS,STUDY001-SUBJ0002,25,HR,Heart Rate,71,beats/min,71,71.0,beats/min,,WEEK 4,5,2024-11-09,28
STUDY001,VS,STUDY001-SUBJ0002,26,HEIGHT,Height,184.0,cm,184.0,184.0,cm,,WEEK 8,6,2024-12-07,56
STUDY001,VS,STUDY001-SUBJ0002,27,WEIGHT,Weight,119.9,kg,119.9,119.9,kg,,WEEK 8,6,2024-12-07,56
STUDY001,VS,STUDY001-SUBJ0002,28,TEMP,Temperature,36.9,C,36.9,36.9,C,,WEEK 8,6,2024-12-07,56
STUDY001,VS,STUDY001-SUBJ0002,29,BP,Blood Pressure,129/77,mmHg,129/77,,mmHg,,WEEK 8,6,2024-12-07,56
STUDY001,VS,STUDY001-SUBJ0002,30,HR,Heart Rate,77,beats/min,77,77.0,beats/min,,WEEK 8,6,2024-12-07,56
STUDY001,VS,STUDY001-SUBJ0002,31,HEIGHT,Height,184.0,cm,184.0,184.0,cm,,WEEK 12,7,2025-01-04,84
STUDY001,VS,STUDY001-SUBJ0002,32,WEIGHT,Weight,118.5,kg,118.5,118.5,kg,,WEEK 12,7,2025-01-04,84
STUDY001,VS,STUDY001-SUBJ0002,33,TEMP,Temperature,36.8,C,36.8,36.8,C,,WEEK 12,7,2025-01-04,84
STUDY001,VS,STUDY001-SUBJ0002,34,BP,Blood Pressure,129/74,mmHg,129/74,,mmHg,,WEEK 12,7,2025-01-04,84
STUDY001,VS,STUDY001-SUBJ0002,35,HR,Heart Rate,78,beats/min,78,78.0,beats/min,,WEEK 12,7,2025-01-04,84
STUDY001,VS,STUDY001-SUBJ0002,36,HEIGHT,Height,184.0,cm,184.0,184.0,cm,,WEEK 16,8,2025-02-01,112
STUDY001,VS,STUDY001-SUBJ0002,37,WEIGHT,Weight,118.4,kg,118.4,118.4,kg,,WEEK 16,8,2025-02-01,112
STUDY001,VS,STUDY001-SUBJ0002,38,TEMP,Temperature,36.9,C,36.9,36.9,C,,WEEK 16,8,2025-02-01,112
STUDY001,VS,STUDY001-SUBJ0002,39,BP,Blood Pressure,125/74,mmHg,125/74,,mmHg,,WEEK 16,8,2025-02-01,112
STUDY001,VS,STUDY001-SUBJ0002,40,HR,Heart Rate,74,beats/min,74,74.0,beats/min,,WEEK 16,8,2025-02-01,112
STUDY001,VS,STUDY001-SUBJ0002,41,HEIGHT,Height,183.9,cm,183.9,183.9,cm,,END OF TREATMENT,9,2025-03-01,140
STUDY001,VS,STUDY001-SUBJ0002,42,WEIGHT,Weight,120.2,kg,120.2,120.2,kg,,END OF TREATMENT,9,2025-03-01,140
STUDY001,VS,STUDY001-SUBJ0002,43,TEMP,Temperature,37.0,C,37.0,37.0,C,,END OF TREATMENT,9,2025-03-01,140
STUDY001,VS,STUDY001-SUBJ0002,44,BP,Blood Pressure,130/74,mmHg,130/74,,mmHg,,END OF TREATMENT,9,2025-03-01,140
STUDY001,VS,STUDY001-SUBJ0002,45,HR,Heart Rate,77,beats/min,77,77.0,beats/min,,END OF TREATMENT,9,2025-03-01,140
STUDY001,VS,STUDY001-SUBJ0003,1,HEIGHT,Height,173.7,cm,173.7,173.7,cm,,SCREENING,1,2025-06-29,-14
STUDY001,VS,STUDY001-SUBJ0003,2,WEIGHT,Weight,58.8,kg,58.8,58.8,kg,,SCREENING,1,2025-06-29,-14
STUDY001,VS,STUDY001-SUBJ0003,3,TEMP,Temperature,36.7,C,36.7,36.7,C,,SCREENING,1,2025-06-29,-14
STUDY001,VS,STUDY001-SUBJ0003,4,BP,Blood Pressure,109/76,mmHg,109/76,,mmHg,,SCREENING,1,2025-06-29,-14
STUDY001,VS,STUDY001-SUBJ0003,5,HR,Heart Rate,83,beats/min,83,83.0,beats/min,,SCREENING,1,2025-06-29,-14
STUDY001,VS,STUDY001-SUBJ0003,6,HEIGHT,Height,173.6,cm,173.6,173.6,cm,Y,BASELINE,2,2025-07-13,1
STUDY001,VS,STUDY001-SUBJ0003,7,WEIGHT,Weight,57.9,kg,57.9,57.9,kg,Y,BASELINE,2,2025-07-13,1
STUDY001,VS,STUDY001-SUBJ0003,8,TEMP,Temperature,36.7,C,36.7,36.7,C,Y,BASELINE,2,2025-07-13,1
STUDY001,VS,STUDY001-SUBJ0003,9,BP,Blood Pressure,103/80,mmHg,103/80,,mmHg,Y,BASELINE,2,2025-07-13,1
STUDY001,VS,STUDY001-SUBJ0003,10,HR,Heart Rate,80,beats/min,80,80.0,beats/min,Y,BASELINE,2,2025-07-13,1
STUDY001,VS,STUDY001-SUBJ0003,11,HEIGHT,Height,173.8,cm,173.8,173.8,cm,,WEEK 1,3,2025-07-19,7
STUDY001,VS,STUDY001-SUBJ0003,12,WEIGHT,Weight,57.9,kg,57.9,57.9,kg,,WEEK 1,3,2025-07-19,7
STUDY001,VS,STUDY001-SUBJ0003,13,TEMP,Temperature,36.5,C,36.5,36.5,C,,WEEK 1,3,2025-07-19,7
STUDY001,VS,STUDY001-SUBJ0003,14,BP,Blood Pressure,111/80,mmHg,111/80,,mmHg,,WEEK 1,3,2025-07-19,7
STUDY001,VS,STUDY001-SUBJ0003,15,HR,Heart Rate,86,beats/min,86,86.0,beats/min,,WEEK 1,3,2025-07-19,7
STUDY001,VS,STUDY001-SUBJ0003,16,HEIGHT,Height,173.5,cm,173.5,173.5,cm,,WEEK 2,4,2025-07-26,14
STUDY001,VS,STUDY001-SUBJ0003,17,WEIGHT,Weight,58.5,kg,58.5,58.5,kg,,WEEK 2,4,2025-07-26,14
STUDY001,VS,STUDY001-SUBJ0003,18,TEMP,Temperature,37.0,C,37.0,37.0,C,,WEEK 2,4,2025-07-26,14
STUDY001,VS,STUDY001-SUBJ0003,19,BP,Blood Pressure,113/81,mmHg,113/81,,mmHg,,WEEK 2,4,2025-07-26,14
STUDY001,VS,STUDY001-SUBJ0003,20,HR,Heart Rate,84,beats/min,84,84.0,beats/min,,WEEK 2,4,2025-07-26,14
STUDY001,VS,STUDY001-SUBJ0003,21,HEIGHT,Height,173.8,cm,173.8,173.8,cm,,WEEK 4,5,2025-08-09,28
STUDY001,VS,STUDY001-SUBJ0003,22,WEIGHT,Weight,58.7,kg,58.7,58.7,kg,,WEEK 4,5,2025-08-09,28
STUDY001,VS,STUDY001-SUBJ0003,23,TEMP,Temperature,36.8,C,36.8,36.8,C,,WEEK 4,5,2025-08-09,28
STUDY001,VS,STUDY001-SUBJ0003,24,BP,Blood Pressure,106/81,mmHg,106/81,,mmHg,,WEEK 4,5,2025-08-09,28
STUDY001,VS,STUDY001-SUBJ0003,25,HR,Heart Rate,83,beats/min,83,83.0,beats/min,,WEEK 4,5,2025-08-09,28
STUDY001,VS,STUDY001-SUBJ0003,26,HEIGHT,Height,173.9,cm,173.9,173.9,cm,,WEEK 8,6,2025-09-06,56
STUDY001,VS,STUDY001-SUBJ0003,27,WEIGHT,Weight,58.4,kg,58.4,58.4,kg,,WEEK 8,6,2025-09-06,56
STUDY001,VS,STUDY001-SUBJ0003,28,TEMP,Temperature,37.0,C,37.0,37.0,C,,WEEK 8,6,2025-09-06,56
STUDY001,VS,STUDY001-SUBJ0003,29,BP,Blood Pressure,104/74,mmHg,104/74,,mmHg,,WEEK 8,6,2025-09-06,56
STUDY001,VS,STUDY001-SUBJ0003,30,HR,Heart Rate,83,beats/min,83,83.0,beats/min,,WEEK 8,6,2025-09-06,56
STUDY001,VS,STUDY001-SUBJ0003,31,HEIGHT,Height,173.7,cm,173.7,173.7,cm,,WEEK 12,7,2025-10-04,84
STUDY001,VS,STUDY001-SUBJ0003,32,WEIGHT,Weight,59.1,kg,59.1,59.1,kg,,WEEK 12,7,2025-10-04,84
STUDY001,VS,STUDY001-SUBJ0003,33,TEMP,Temperature,37.0,C,37.0,37.0,C,,WEEK 12,7,2025-10-04,84
STUDY001,VS,STUDY001-SUBJ0003,34,BP,Blood Pressure,113/80,mmHg,113/80,,mmHg,,WEEK 12,7,2025-10-04,84
STUDY001,VS,STUDY001-SUBJ0003,35,HR,Heart Rate,89,beats/min,89,89.0,beats/min,,WEEK 12,7,2025-10-04,84
STUDY001,VS,STUDY001-SUBJ0003,36,HEIGHT,Height,173.7,cm,173.7,173.7,cm,,WEEK 16,8,2025-11-01,112
STUDY001,VS,STUDY001-SUBJ0003,37,WEIGHT,Weight,58.9,kg,58.9,58.9,kg,,WEEK 16,8,2025-11-01,112
STUDY001,VS,STUDY001-SUBJ0003,38,TEMP,Temperature,36.7,C,36.7,36.7,C,,WEEK 16,8,2025-11-01,112
STUDY001,VS,STUDY001-SUBJ0003,39,BP,Blood Pressure,106/77,mmHg,106/77,,mmHg,,WEEK 16,8,2025-11-01,112
STUDY001,VS,STUDY001-SUBJ0003,40,HR,Heart Rate,87,beats/min,87,87.0,beats/min,,WEEK 16,8,2025-11-01,112
STUDY001,VS,STUDY001-SUBJ0003,41,HEIGHT,Height,173.9,cm,173.9,173.9,cm,,END OF TREATMENT,9,2025-11-29,140
STUDY001,VS,STUDY001-SUBJ0003,42,WEIGHT,Weight,57.5,kg,57.5,57.5,kg,,END OF TREATMENT,9,2025-11-29,140
STUDY001,VS,STUDY001-SUBJ0003,43,TEMP,Temperature,36.6,C,36.6,36.6,C,,END OF TREATMENT,9,2025-11-29,140
STUDY001,VS,STUDY001-SUBJ0003,44,BP,Blood Pressure,112/83,mmHg,112/83,,mmHg,,END OF TREATMENT,9,2025-11-29,140
STUDY001,VS,STUDY001-SUBJ0003,45,HR,Heart Rate,79,beats/min,79,79.0,beats/min,,END OF TREATMENT,9,2025-11-29,140
STUDY001,VS,STUDY001-SUBJ0004,1,HEIGHT,Height,178.3,cm,178.3,178.3,cm,,SCREENING,1,2025-05-27,-14
STUDY001,VS,STUDY001-SUBJ0004,2,WEIGHT,Weight,94.8,kg,94.8,94.8,kg,,SCREENING,1,2025-05-27,-14
STUDY001,VS,STUDY001-SUBJ0004,3,TEMP,Temperature,36.8,C,36.8,36.8,C,,SCREENING,1,2025-05-27,-14
STUDY001,VS,STUDY001-SUBJ0004,4,BP,Blood Pressure,111/94,mmHg,111/94,,mmHg,,SCREENING,1,2025-05-27,-14
STUDY001,VS,STUDY001-SUBJ0004,5,HR,Heart Rate,70,beats/min,70,70.0,beats/min,,SCREENING,1,2025-05-27,-14
STUDY001,VS,STUDY001-SUBJ0004,6,HEIGHT,Height,178.4,cm,178.4,178.4,cm,Y,BASELINE,2,2025-06-10,1
STUDY001,VS,STUDY001-SUBJ0004,7,WEIGHT,Weight,96.5,kg,96.5,96.5,kg,Y,BASELINE,2,2025-06-10,1
STUDY001,VS,STUDY001-SUBJ0004,8,TEMP,Temperature,36.6,C,36.6,36.6,C,Y,BASELINE,2,2025-06-10,1
STUDY001,VS,STUDY001-SUBJ0004,9,BP,Blood Pressure,115/90,mmHg,115/90,,mmHg,Y,BASELINE,2,2025-06-10,1
STUDY001,VS,STUDY001-SUBJ0004,10,HR,Heart Rate,68,beats/min,68,68.0,beats/min,Y,BASELINE,2,2025-06-10,1
STUDY001,VS,STUDY001-SUBJ0004,11,HEIGHT,Height,178.1,cm,178.1,178.1,cm,,WEEK 1,3,2025-06-16,7
STUDY001,VS,STUDY001-SUBJ0004,12,WEIGHT,Weight,95.0,kg,95.0,95.0,kg,,WEEK 1,3,2025-06-16,7
STUDY001,VS,STUDY001-SUBJ0004,13,TEMP,Temperature,37.2,C,37.2,37.2,C,,WEEK 1,3,2025-06-16,7
STUDY001,VS,STUDY001-SUBJ0004,14,BP,Blood Pressure,110/91,mmHg,110/91,,mmHg,,WEEK 1,3,2025-06-16,7
STUDY001,VS,STUDY001-SUBJ0004,15,HR,Heart Rate,68,beats/min,68,68.0,beats/min,,WEEK 1,3,2025-06-16,7
STUDY001,VS,STUDY001-SUBJ0004,16,HEIGHT,Height,178.5,cm,178.5,178.5,cm,,WEEK 2,4,2025-06-23,14
STUDY001,VS,STUDY001-SUBJ0004,17,WEIGHT,Weight,96.3,kg,96.3,96.3,kg,,WEEK 2,4,2025-06-23,14
STUDY001,VS,STUDY001-SUBJ0004,18,TEMP,Temperature,36.9,C,36.9,36.9,C,,WEEK 2,4,2025-06-23,14
STUDY001,VS,STUDY001-SUBJ0004,19,BP,Blood Pressure,116/92,mmHg,116/92,,mmHg,,WEEK 2,4,2025-06-23,14
STUDY001,VS,STUDY001-SUBJ0004,20,HR,Heart Rate,72,beats/min,72,72.0,beats/min,,WEEK 2,4,2025-06-23,14
STUDY001,VS,STUDY001-SUBJ0004,21,HEIGHT,Height,178.3,cm,178.3,178.3,cm,,WEEK 4,5,2025-07-07,28
STUDY001,VS,STUDY001-SUBJ0004,22,WEIGHT,Weight,94.8,kg,94.8,94.8,kg,,WEEK 4,5,2025-07-07,28
STUDY001,VS,STUDY001-SUBJ0004,23,TEMP,Temperature,36.9,C,36.9,36.9,C,,WEEK 4,5,2025-07-07,28
STUDY001,VS,STUDY001-SUBJ0004,24,BP,Blood Pressure,110/91,mmHg,110/91,,mmHg,,WEEK 4,5,2025-07-07,28
STUDY001,VS,STUDY001-SUBJ0004,25,HR,Heart Rate,68,beats/min,68,68.0,beats/min,,WEEK 4,5,2025-07-07,28
STUDY001,VS,STUDY001-SUBJ0004,26,HEIGHT,Height,178.3,cm,178.3,178.3,cm,,WEEK 8,6,2025-08-04,56
STUDY001,VS,STUDY001-SUBJ0004,27,WEIGHT,Weight,94.9,kg,94.9,94.9,kg,,WEEK 8,6,2025-08-04,56
STUDY001,VS,STUDY001-SUBJ0004,28,TEMP,Temperature,36.8,C,36.8,36.8,C,,WEEK 8,6,2025-08-04,56
STUDY001,VS,STUDY001-SUBJ0004,29,BP,Blood Pressure,112/93,mmHg,112/93,,mmHg,,WEEK 8,6,2025-08-04,56
STUDY001,VS,STUDY001-SUBJ0004,30,HR,Heart Rate,68,beats/min,68,68.0,beats/min,,WEEK 8,6,2025-08-04,56
STUDY001,VS,STUDY001-SUBJ0004,31,HEIGHT,Height,178.3,cm,178.3,178.3,cm,,WEEK 12,7,2025-09-01,84
STUDY001,VS,STUDY001-SUBJ0004,32,WEIGHT,Weight,95.3,kg,95.3,95.3,kg,,WEEK 12,7,2025-09-01,84
STUDY001,VS,STUDY001-SUBJ0004,33,TEMP,Temperature,37.0,C,37.0,37.0,C,,WEEK 12,7,2025-09-01,84
STUDY001,VS,STUDY001-SUBJ0004,34,BP,Blood Pressure,108/93,mmHg,108/93,,mmHg,,WEEK 12,7,2025-09-01,84
STUDY001,VS,STUDY001-SUBJ0004,35,HR,Heart Rate,68,beats/min,68,68.0,beats/min,,WEEK 12,7,2025-09-01,84
STUDY001,VS,STUDY001-SUBJ0004,36,HEIGHT,Height,178.4,cm,178.4,178.4,cm,,WEEK 16,8,2025-09-29,112
STUDY001,VS,STUDY001-SUBJ0004,37,WEIGHT,Weight,95.6,kg,95.6,95.6,kg,,WEEK 16,8,2025-09-29,112
STUDY001,VS,STUDY001-SUBJ0004,38,TEMP,Temperature,36.9,C,36.9,36.9,C,,WEEK 16,8,2025-09-29,112
STUDY001,VS,STUDY001-SUBJ0004,39,BP,Blood Pressure,108/88,mmHg,108/88,,mmHg,,WEEK 16,8,2025-09-29,112
STUDY001,VS,STUDY001-SUBJ0004,40,HR,Heart Rate,73,beats/min,73,73.0,beats/min,,WEEK 16,8,2025-09-29,112
STUDY001,VS,STUDY001-SUBJ0004,41,HEIGHT,Height,178.2,cm,178.2,178.2,cm,,END OF TREATMENT,9,2025-10-27,140
STUDY001,VS,STUDY001-SUBJ0004,42,WEIGHT,Weight,96.3,kg,96.3,96.3,kg,,END OF TREATMENT,9,2025-10-27,140
STUDY001,VS,STUDY001-SUBJ0004,43,TEMP,Temperature,37.0,C,37.0,37.0,C,,END OF TREATMENT,9,2025-10-27,140
STUDY001,VS,STUDY001-SUBJ0004,44,BP,Blood Pressure,109/93,mmHg,109/93,,mmHg,,END OF TREATMENT,9,2025-10-27,140
STUDY001,VS,STUDY001-SUBJ0004,45,HR,Heart Rate,71,beats/min,71,71.0,beats/min,,END OF TREATMENT,9,2025-10-27,140
STUDY001,VS,STUDY001-SUBJ0005,1,HEIGHT,Height,199.0,cm,199.0,199.0,cm,,SCREENING,1,2025-02-01,-14
STUDY001,VS,STUDY001-SUBJ0005,2,WEIGHT,Weight,65.6,kg,65.6,65.6,kg,,SCREENING,1,2025-02-01,-14
STUDY001,VS,STUDY001-SUBJ0005,3,TEMP,Temperature,36.7,C,36.7,36.7,C,,SCREENING,1,2025-02-01,-14
STUDY001,VS,STUDY001-SUBJ0005,4,BP,Blood Pressure,114/92,mmHg,114/92,,mmHg,,SCREENING,1,2025-02-01,-14
STUDY001,VS,STUDY001-SUBJ0005,5,HR,Heart Rate,90,beats/min,90,90.0,beats/min,,SCREENING,1,2025-02-01,-14
STUDY001,VS,STUDY001-SUBJ0005,6,HEIGHT,Height,199.2,cm,199.2,199.2,cm,Y,BASELINE,2,2025-02-15,1
STUDY001,VS,STUDY001-SUBJ0005,7,WEIGHT,Weight,65.5,kg,65.5,65.5,kg,Y,BASELINE,2,2025-02-15,1
STUDY001,VS,STUDY001-SUBJ0005,8,TEMP,Temperature,36.9,C,36.9,36.9,C,Y,BASELINE,2,2025-02-15,1
STUDY001,VS,STUDY001-SUBJ0005,9,BP,Blood Pressure,114/90,mmHg,114/90,,mmHg,Y,BASELINE,2,2025-02-15,1
STUDY001,VS,STUDY001-SUBJ0005,10,HR,Heart Rate,89,beats/min,89,89.0,beats/min,Y,BASELINE,2,2025-02-15,1
STUDY001,VS,STUDY001-SUBJ0005,11,HEIGHT,Height,199.0,cm,199.0,199.0,cm,,WEEK 1,3,2025-02-21,7
STUDY001,VS,STUDY001-SUBJ0005,12,WEIGHT,Weight,66.3,kg,66.3,66.3,kg,,WEEK 1,3,2025-02-21,7
STUDY001,VS,STUDY001-SUBJ0005,13,TEMP,Temperature,37.2,C,37.2,37.2,C,,WEEK 1,3,2025-02-21,7
STUDY001,VS,STUDY001-SUBJ0005,14,BP,Blood Pressure,121/98,mmHg,121/98,,mmHg,,WEEK 1,3,2025-02-21,7
STUDY001,VS,STUDY001-SUBJ0005,15,HR,Heart Rate,86,beats/min,86,86.0,beats/min,,WEEK 1,3,2025-02-21,7
STUDY001,VS,STUDY001-SUBJ0005,16,HEIGHT,Height,199.0,cm,199.0,199.0,cm,,WEEK 2,4,2025-02-28,14
STUDY001,VS,STUDY001-SUBJ0005,17,WEIGHT,Weight,65.5,kg,65.5,65.5,kg,,WEEK 2,4,2025-02-28,14
STUDY001,VS,STUDY001-SUBJ0005,18,TEMP,Temperature,36.8,C,36.8,36.8,C,,WEEK 2,4,2025-02-28,14
STUDY001,VS,STUDY001-SUBJ0005,19,BP,Blood Pressure,114/90,mmHg,114/90,,mmHg,,WEEK 2,4,2025-02-28,14
STUDY001,VS,STUDY001-SUBJ0005,20,HR,Heart Rate,87,beats/min,87,87.0,beats/min,,WEEK 2,4,2025-02-28,14
STUDY001,VS,STUDY001-SUBJ0005,21,HEIGHT,Height,199.2,cm,199.2,199.2,cm,,WEEK 4,5,2025-03-14,28
STUDY001,VS,STUDY001-SUBJ0005,22,WEIGHT,Weight,66.4,kg,66.4,66.4,kg,,WEEK 4,5,2025-03-14,28
STUDY001,VS,STUDY001-SUBJ0005,23,TEMP,Temperature,37.0,C,37.0,37.0,C,,WEEK 4,5,2025-03-14,28
STUDY001,VS,STUDY001-SUBJ0005,24,BP,Blood Pressure,115/93,mmHg,115/93,,mmHg,,WEEK 4,5,2025-03-14,28
STUDY001,VS,STUDY001-SUBJ0005,25,HR,Heart Rate,89,beats/min,89,89.0,beats/min,,WEEK 4,5,2025-03-14,28
STUDY001,VS,STUDY001-SUBJ0005,26,HEIGHT,Height,199.0,cm,199.0,199.0,cm,,WEEK 8,6,2025-04-11,56
STUDY001,VS,STUDY001-SUBJ0005,27,WEIGHT,Weight,65.5,kg,65.5,65.5,kg,,WEEK 8,6,2025-04-11,56
STUDY001,VS,STUDY001-SUBJ0005,28,TEMP,Temperature,37.2,C,37.2,37.2,C,,WEEK 8,6,2025-04-11,56
STUDY001,VS,STUDY001-SUBJ0005,29,BP,Blood Pressure,114/94,mmHg,114/94,,mmHg,,WEEK 8,6,2025-04-11,56
STUDY001,VS,STUDY001-SUBJ0005,30,HR,Heart Rate,87,beats/min,87,87.0,beats/min,,WEEK 8,6,2025-04-11,56
STUDY001,VS,STUDY001-SUBJ0005,31,HEIGHT,Height,199.2,cm,199.2,199.2,cm,,WEEK 12,7,2025-05-09,84
STUDY001,VS,STUDY001-SUBJ0005,32,WEIGHT,Weight,66.0,kg,66.0,66.0,kg,,WEEK 12,7,2025-05-09,84
STUDY001,VS,STUDY001-SUBJ0005,33,TEMP,Temperature,37.1,C,37.1,37.1,C,,WEEK 12,7,2025-05-09,84
STUDY001,VS,STUDY001-SUBJ0005,34,BP,Blood Pressure,118/95,mmHg,118/95,,mmHg,,WEEK 12,7,2025-05-09,84
STUDY001,VS,STUDY001-SUBJ0005,35,HR,Heart Rate,85,beats/min,85,85.0,beats/min,,WEEK 12,7,2025-05-09,84
STUDY001,VS,STUDY001-SUBJ0005,36,HEIGHT,Height,199.1,cm,199.1,199.1,cm,,WEEK 16,8,2025-06-06,112
STUDY001,VS,STUDY001-SUBJ0005,37,WEIGHT,Weight,66.1,kg,66.1,66.1,kg,,WEEK 16,8,2025-06-06,112
STUDY001,VS,STUDY001-SUBJ0005,38,TEMP,Temperature,37.0,C,37.0,37.0,C,,WEEK 16,8,2025-06-06,112
STUDY001,VS,STUDY001-SUBJ0005,39,BP,Blood Pressure,115/99,mmHg,115/99,,mmHg,,WEEK 16,8,2025-06-06,112
STUDY001,VS,STUDY001-SUBJ0005,40,HR,Heart Rate,91,beats/min,91,91.0,beats/min,,WEEK 16,8,2025-06-06,112
STUDY001,VS,STUDY001-SUBJ0005,41,HEIGHT,Height,198.9,cm,198.9,198.9,cm,,END OF TREATMENT,9,2025-07-04,140
STUDY001,VS,STUDY001-SUBJ0005,42,WEIGHT,Weight,65.6,kg,65.6,65.6,kg,,END OF TREATMENT,9,2025-07-04,140
STUDY001,VS,STUDY001-SUBJ0005,43,TEMP,Temperature,36.7,C,36.7,36.7,C,,END OF TREATMENT,9,2025-07-04,140
STUDY001,VS,STUDY001-SUBJ0005,44,BP,Blood Pressure,112/92,mmHg,112/92,,mmHg,,END OF TREATMENT,9,2025-07-04,140
STUDY001,VS,STUDY001-SUBJ0005,45,HR,Heart Rate,91,beats/min,91,91.0,beats/min,,END OF TREATMENT,9,2025-07-04,140
STUDY001,VS,STUDY001-SUBJ0006,1,HEIGHT,Height,182.2,cm,182.2,182.2,cm,,SCREENING,1,2024-11-04,-14
STUDY001,VS,STUDY001-SUBJ0006,2,WEIGHT,Weight,69.3,kg,69.3,69.3,kg,,SCREENING,1,2024-11-04,-14
STUDY001,VS,STUDY001-SUBJ0006,3,TEMP,Temperature,36.3,C,36.3,36.3,C,,SCREENING,1,2024-11-04,-14
STUDY001,VS,STUDY001-SUBJ0006,4,BP,Blood Pressure,105/76,mmHg,105/76,,mmHg,,SCREENING,1,2024-11-04,-14
STUDY001,VS,STUDY001-SUBJ0006,5,HR,Heart Rate,81,beats/min,81,81.0,beats/min,,SCREENING,1,2024-11-04,-14
STUDY001,VS,STUDY001-SUBJ0006,6,HEIGHT,Height,182.2,cm,182.2,182.2,cm,Y,BASELINE,2,2024-11-18,1
STUDY001,VS,STUDY001-SUBJ0006,7,WEIGHT,Weight,69.8,kg,69.8,69.8,kg,Y,BASELINE,2,2024-11-18,1
STUDY001,VS,STUDY001-SUBJ0006,8,TEMP,Temperature,36.5,C,36.5,36.5,C,Y,BASELINE,2,2024-11-18,1
STUDY001,VS,STUDY001-SUBJ0006,9,BP,Blood Pressure,103/74,mmHg,103/74,,mmHg,Y,BASELINE,2,2024-11-18,1
STUDY001,VS,STUDY001-SUBJ0006,10,HR,Heart Rate,82,beats/min,82,82.0,beats/min,Y,BASELINE,2,2024-11-18,1
STUDY001,VS,STUDY001-SUBJ0006,11,HEIGHT,Height,182.2,cm,182.2,182.2,cm,,WEEK 1,3,2024-11-24,7
STUDY001,VS,STUDY001-SUBJ0006,12,WEIGHT,Weight,70.5,kg,70.5,70.5,kg,,WEEK 1,3,2024-11-24,7
STUDY001,VS,STUDY001-SUBJ0006,13,TEMP,Temperature,36.4,C,36.4,36.4,C,,WEEK 1,3,2024-11-24,7
STUDY001,VS,STUDY001-SUBJ0006,14,BP,Blood Pressure,106/72,mmHg,106/72,,mmHg,,WEEK 1,3,2024-11-24,7
STUDY001,VS,STUDY001-SUBJ0006,15,HR,Heart Rate,85,beats/min,85,85.0,beats/min,,WEEK 1,3,2024-11-24,7
STUDY001,VS,STUDY001-SUBJ0006,16,HEIGHT,Height,182.3,cm,182.3,182.3,cm,,WEEK 2,4,2024-12-01,14
STUDY001,VS,STUDY001-SUBJ0006,17,WEIGHT,Weight,70.6,kg,70.6,70.6,kg,,WEEK 2,4,2024-12-01,14
STUDY001,VS,STUDY001-SUBJ0006,18,TEMP,Temperature,36.3,C,36.3,36.3,C,,WEEK 2,4,2024-12-01,14
STUDY001,VS,STUDY001-SUBJ0006,19,BP,Blood Pressure,107/72,mmHg,107/72,,mmHg,,WEEK 2,4,2024-12-01,14
STUDY001,VS,STUDY001-SUBJ0006,20,HR,Heart Rate,89,beats/min,89,89.0,beats/min,,WEEK 2,4,2024-12-01,14
STUDY001,VS,STUDY001-SUBJ0006,21,HEIGHT,Height,182.3,cm,182.3,182.3,cm,,WEEK 4,5,2024-12-15,28
STUDY001,VS,STUDY001-SUBJ0006,22,WEIGHT,Weight,69.0,kg,69.0,69.0,kg,,WEEK 4,5,2024-12-15,28
STUDY001,VS,STUDY001-SUBJ0006,23,TEMP,Temperature,36.3,C,36.3,36.3,C,,WEEK 4,5,2024-12-15,28
STUDY001,VS,STUDY001-SUBJ0006,24,BP,Blood Pressure,106/74,mmHg,106/74,,mmHg,,WEEK 4,5,2024-12-15,28
STUDY001,VS,STUDY001-SUBJ0006,25,HR,Heart Rate,87,beats/min,87,87.0,beats/min,,WEEK 4,5,2024-12-15,28
STUDY001,VS,STUDY001-SUBJ0006,26,HEIGHT,Height,182.2,cm,182.2,182.2,cm,,WEEK 8,6,2025-01-12,56
STUDY001,VS,STUDY001-SUBJ0006,27,WEIGHT,Weight,70.0,kg,70.0,70.0,kg,,WEEK 8,6,2025-01-12,56
STUDY001,VS,STUDY001-SUBJ0006,28,TEMP,Temperature,36.1,C,36.1,36.1,C,,WEEK 8,6,2025-01-12,56
STUDY001,VS,STUDY001-SUBJ0006,29,BP,Blood Pressure,104/77,mmHg,104/77,,mmHg,,WEEK 8,6,2025-01-12,56
STUDY001,VS,STUDY001-SUBJ0006,30,HR,Heart Rate,84,beats/min,84,84.0,beats/min,,WEEK 8,6,2025-01-12,56
STUDY001,VS,STUDY001-SUBJ0006,31,HEIGHT,Height,182.4,cm,182.4,182.4,cm,,WEEK 12,7,2025-02-09,84
STUDY001,VS,STUDY001-SUBJ0006,32,WEIGHT,Weight,69.3,kg,69.3,69.3,kg,,WEEK 12,7,2025-02-09,84
STUDY001,VS,STUDY001-SUBJ0006,33,TEMP,Temperature,36.1,C,36.1,36.1,C,,WEEK 12,7,2025-02-09,84
STUDY001,VS,STUDY001-SUBJ0006,34,BP,Blood Pressure,100/77,mmHg,100/77,,mmHg,,WEEK 12,7,2025-02-09,84
STUDY001,VS,STUDY001-SUBJ0006,35,HR,Heart Rate,80,beats/min,80,80.0,beats/min,,WEEK 12,7,2025-02-09,84
STUDY001,VS,STUDY001-SUBJ0006,36,HEIGHT,Height,182.0,cm,182.0,182.0,cm,,WEEK 16,8,2025-03-09,112
STUDY001,VS,STUDY001-SUBJ0006,37,WEIGHT,Weight,69.0,kg,69.0,69.0,kg,,WEEK 16,8,2025-03-09,112
STUDY001,VS,STUDY001-SUBJ0006,38,TEMP,Temperature,36.6,C,36.6,36.6,C,,WEEK 16,8,2025-03-09,112
STUDY001,VS,STUDY001-SUBJ0006,39,BP,Blood Pressure,105/79,mmHg,105/79,,mmHg,,WEEK 16,8,2025-03-09,112
STUDY001,VS,STUDY001-SUBJ0006,40,HR,Heart Rate,85,beats/min,85,85.0,beats/min,,WEEK 16,8,2025-03-09,112
STUDY001,VS,STUDY001-SUBJ0006,41,HEIGHT,Height,182.4,cm,182.4,182.4,cm,,END OF TREATMENT,9,2025-04-06,140
STUDY001,VS,STUDY001-SUBJ0006,42,WEIGHT,Weight,70.7,kg,70.7,70.7,kg,,END OF TREATMENT,9,2025-04-06,140
STUDY001,VS,STUDY001-SUBJ0006,43,TEMP,Temperature,36.2,C,36.2,36.2,C,,END OF TREATMENT,9,2025-04-06,140
STUDY001,VS,STUDY001-SUBJ0006,44,BP,Blood Pressure,106/75,mmHg,106/75,,mmHg,,END OF TREATMENT,9,2025-04-06,140
STUDY001,VS,STUDY001-SUBJ0006,45,HR,Heart Rate,84,beats/min,84,84.0,beats/min,,END OF TREATMENT,9,2025-04-06,140
STUDY001,VS,STUDY001-SUBJ0007,1,HEIGHT,Height,184.8,cm,184.8,184.8,cm,,SCREENING,1,2025-05-25,-14
STUDY001,VS,STUDY001-SUBJ0007,2,WEIGHT,Weight,86.9,kg,86.9,86.9,kg,,SCREENING,1,2025-05-25,-14
STUDY001,VS,STUDY001-SUBJ0007,3,TEMP,Temperature,36.5,C,36.5,36.5,C,,SCREENING,1,2025-05-25,-14
STUDY001,VS,STUDY001-SUBJ0007,4,BP,Blood Pressure,131/85,mmHg,131/85,,mmHg,,SCREENING,1,2025-05-25,-14
STUDY001,VS,STUDY001-SUBJ0007,5,HR,Heart Rate,78,beats/min,78,78.0,beats/min,,SCREENING,1,2025-05-25,-14
STUDY001,VS,STUDY001-SUBJ0007,6,HEIGHT,Height,184.7,cm,184.7,184.7,cm,Y,BASELINE,2,2025-06-08,1
STUDY001,VS,STUDY001-SUBJ0007,7,WEIGHT,Weight,85.8,kg,85.8,85.8,kg,Y,BASELINE,2,2025-06-08,1
STUDY001,VS,STUDY001-SUBJ0007,8,TEMP,Temperature,36.6,C,36.6,36.6,C,Y,BASELINE,2,2025-06-08,1
STUDY001,VS,STUDY001-SUBJ0007,9,BP,Blood Pressure,129/78,mmHg,129/78,,mmHg,Y,BASELINE,2,2025-06-08,1
STUDY001,VS,STUDY001-SUBJ0007,10,HR,Heart Rate,78,beats/min,78,78.0,beats/min,Y,BASELINE,2,2025-06-08,1
STUDY001,VS,STUDY001-SUBJ0007,11,HEIGHT,Height,184.9,cm,184.9,184.9,cm,,WEEK 1,3,2025-06-14,7
STUDY001,VS,STUDY001-SUBJ0007,12,WEIGHT,Weight,86.7,kg,86.7,86.7,kg,,WEEK 1,3,2025-06-14,7
STUDY001,VS,STUDY001-SUBJ0007,13,TEMP,Temperature,36.6,C,36.6,36.6,C,,WEEK 1,3,2025-06-14,7
STUDY001,VS,STUDY001-SUBJ0007,14,BP,Blood Pressure,130/86,mmHg,130/86,,mmHg,,WEEK 1,3,2025-06-14,7
STUDY001,VS,STUDY001-SUBJ0007,15,HR,Heart Rate,80,beats/min,80,80.0,beats/min,,WEEK 1,3,2025-06-14,7
STUDY001,VS,STUDY001-SUBJ0007,16,HEIGHT,Height,184.6,cm,184.6,184.6,cm,,WEEK 2,4,2025-06-21,14
STUDY001,VS,STUDY001-SUBJ0007,17,WEIGHT,Weight,86.7,kg,86.7,86.7,kg,,WEEK 2,4,2025-06-21,14
STUDY001,VS,STUDY001-SUBJ0007,18,TEMP,Temperature,36.3,C,36.3,36.3,C,,WEEK 2,4,2025-06-21,14
STUDY001,VS,STUDY001-SUBJ0007,19,BP,Blood Pressure,129/81,mmHg,129/81,,mmHg,,WEEK 2,4,2025-06-21,14
STUDY001,VS,STUDY001-SUBJ0007,20,HR,Heart Rate,81,beats/min,81,81.0,beats/min,,WEEK 2,4,2025-06-21,14
STUDY001,VS,STUDY001-SUBJ0007,21,HEIGHT,Height,184.9,cm,184.9,184.9,cm,,WEEK 4,5,2025-07-05,28
STUDY001,VS,STUDY001-SUBJ0007,22,WEIGHT,Weight,86.1,kg,86.1,86.1,kg,,WEEK 4,5,2025-07-05,28
STUDY001,VS,STUDY001-SUBJ0007,23,TEMP,Temperature,36.3,C,36.3,36.3,C,,WEEK 4,5,2025-07-05,28
STUDY001,VS,STUDY001-SUBJ0007,24,BP,Blood Pressure,130/83,mmHg,130/83,,mmHg,,WEEK 4,5,2025-07-05,28
STUDY001,VS,STUDY001-SUBJ0007,25,HR,Heart Rate,80,beats/min,80,80.0,beats/min,,WEEK 4,5,2025-07-05,28
STUDY001,VS,STUDY001-SUBJ0007,26,HEIGHT,Height,184.9,cm,184.9,184.9,cm,,WEEK 8,6,2025-08-02,56
STUDY001,VS,STUDY001-SUBJ0007,27,WEIGHT,Weight,86.9,kg,86.9,86.9,kg,,WEEK 8,6,2025-08-02,56
STUDY001,VS,STUDY001-SUBJ0007,28,TEMP,Temperature,36.3,C,36.3,36.3,C,,WEEK 8,6,2025-08-02,56
STUDY001,VS,STUDY001-SUBJ0007,29,BP,Blood Pressure,122/82,mmHg,122/82,,mmHg,,WEEK 8,6,2025-08-02,56
STUDY001,VS,STUDY001-SUBJ0007,30,HR,Heart Rate,77,beats/min,77,77.0,beats/min,,WEEK 8,6,2025-08-02,56
STUDY001,VS,STUDY001-SUBJ0007,31,HEIGHT,Height,184.9,cm,184.9,184.9,cm,,WEEK 12,7,2025-08-30,84
STUDY001,VS,STUDY001-SUBJ0007,32,WEIGHT,Weight,87.3,kg,87.3,87.3,kg,,WEEK 12,7,2025-08-30,84
STUDY001,VS,STUDY001-SUBJ0007,33,TEMP,Temperature,36.7,C,36.7,36.7,C,,WEEK 12,7,2025-08-30,84
STUDY001,VS,STUDY001-SUBJ0007,34,BP,Blood Pressure,122/83,mmHg,122/83,,mmHg,,WEEK 12,7,2025-08-30,84
STUDY001,VS,STUDY001-SUBJ0007,35,HR,Heart Rate,84,beats/min,84,84.0,beats/min,,WEEK 12,7,2025-08-30,84
STUDY001,VS,STUDY001-SUBJ0007,36,HEIGHT,Height,184.8,cm,184.8,184.8,cm,,WEEK 16,8,2025-09-27,112
STUDY001,VS,STUDY001-SUBJ0007,37,WEIGHT,Weight,87.1,kg,87.1,87.1,kg,,WEEK 16,8,2025-09-27,112
STUDY001,VS,STUDY001-SUBJ0007,38,TEMP,Temperature,36.6,C,36.6,36.6,C,,WEEK 16,8,2025-09-27,112
STUDY001,VS,STUDY001-SUBJ0007,39,BP,Blood Pressure,127/84,mmHg,127/84,,mmHg,,WEEK 16,8,2025-09-27,112
STUDY001,VS,STUDY001-SUBJ0007,40,HR,Heart Rate,81,beats/min,81,81.0,beats/min,,WEEK 16,8,2025-09-27,112
STUDY001,VS,STUDY001-SUBJ0007,41,HEIGHT,Height,184.8,cm,184.8,184.8,cm,,END OF TREATMENT,9,2025-10-25,140
STUDY001,VS,STUDY001-SUBJ0007,42,WEIGHT,Weight,86.8,kg,86.8,86.8,kg,,END OF TREATMENT,9,2025-10-25,140
STUDY001,VS,STUDY001-SUBJ0007,43,TEMP,Temperature,36.5,C,36.5,36.5,C,,END OF TREATMENT,9,2025-10-25,140
STUDY001,VS,STUDY001-SUBJ0007,44,BP,Blood Pressure,126/84,mmHg,126/84,,mmHg,,END OF TREATMENT,9,2025-10-25,140
STUDY001,VS,STUDY001-SUBJ0007,45,HR,Heart Rate,86,beats/min,86,86.0,beats/min,,END OF TREATMENT,9,2025-10-25,140
STUDY001,VS,STUDY001-SUBJ0008,1,HEIGHT,Height,158.1,cm,158.1,158.1,cm,,SCREENING,1,2024-08-20,-14
STUDY001,VS,STUDY001-SUBJ0008,2,WEIGHT,Weight,80.7,kg,80.7,80.7,kg,,SCREENING,1,2024-08-20,-14
STUDY001,VS,STUDY001-SUBJ0008,3,TEMP,Temperature,36.7,C,36.7,36.7,C,,SCREENING,1,2024-08-20,-14
STUDY001,VS,STUDY001-SUBJ0008,4,BP,Blood Pressure,129/81,mmHg,129/81,,mmHg,,SCREENING,1,2024-08-20,-14
STUDY001,VS,STUDY001-SUBJ0008,5,HR,Heart Rate,76,beats/min,76,76.0,beats/min,,SCREENING,1,2024-08-20,-14
STUDY001,VS,STUDY001-SUBJ0008,6,HEIGHT,Height,158.2,cm,158.2,158.2,cm,Y,BASELINE,2,2024-09-03,1
STUDY001,VS,STUDY001-SUBJ0008,7,WEIGHT,Weight,79.6,kg,79.6,79.6,kg,Y,BASELINE,2,2024-09-03,1
STUDY001,VS,STUDY001-SUBJ0008,8,TEMP,Temperature,36.7,C,36.7,36.7,C,Y,BASELINE,2,2024-09-03,1
STUDY001,VS,STUDY001-SUBJ0008,9,BP,Blood Pressure,130/80,mmHg,130/80,,mmHg,Y,BASELINE,2,2024-09-03,1
STUDY001,VS,STUDY001-SUBJ0008,10,HR,Heart Rate,74,beats/min,74,74.0,beats/min,Y,BASELINE,2,2024-09-03,1
STUDY001,VS,STUDY001-SUBJ0008,11,HEIGHT,Height,158.1,cm,158.1,158.1,cm,,WEEK 1,3,2024-09-09,7
STUDY001,VS,STUDY001-SUBJ0008,12,WEIGHT,Weight,81.2,kg,81.2,81.2,kg,,WEEK 1,3,2024-09-09,7
STUDY001,VS,STUDY001-SUBJ0008,13,TEMP,Temperature,37.1,C,37.1,37.1,C,,WEEK 1,3,2024-09-09,7
STUDY001,VS,STUDY001-SUBJ0008,14,BP,Blood Pressure,128/82,mmHg,128/82,,mmHg,,WEEK 1,3,2024-09-09,7
STUDY001,VS,STUDY001-SUBJ0008,15,HR,Heart Rate,78,beats/min,78,78.0,beats/min,,WEEK 1,3,2024-09-09,7
STUDY001,VS,STUDY001-SUBJ0008,16,HEIGHT,Height,158.0,cm,158.0,158.0,cm,,WEEK 2,4,2024-09-16,14
STUDY001,VS,STUDY001-SUBJ0008,17,WEIGHT,Weight,81.1,kg,81.1,81.1,kg,,WEEK 2,4,2024-09-16,14
STUDY001,VS,STUDY001-SUBJ0008,18,TEMP,Temperature,36.8,C,36.8,36.8,C,,WEEK 2,4,2024-09-16,14
STUDY001,VS,STUDY001-SUBJ0008,19,BP,Blood Pressure,129/76,mmHg,129/76,,mmHg,,WEEK 2,4,2024-09-16,14
STUDY001,VS,STUDY001-SUBJ0008,20,HR,Heart Rate,80,beats/min,80,80.0,beats/min,,WEEK 2,4,2024-09-16,14
STUDY001,VS,STUDY001-SUBJ0008,21,HEIGHT,Height,158.1,cm,158.1,158.1,cm,,WEEK 4,5,2024-09-30,28
STUDY001,VS,STUDY001-SUBJ0008,22,WEIGHT,Weight,81.2,kg,81.2,81.2,kg,,WEEK 4,5,2024-09-30,28
STUDY001,VS,STUDY001-SUBJ0008,23,TEMP,Temperature,37.0,C,37.0,37.0,C,,WEEK 4,5,2024-09-30,28
STUDY001,VS,STUDY001-SUBJ0008,24,BP,Blood Pressure,129/80,mmHg,129/80,,mmHg,,WEEK 4,5,2024-09-30,28
STUDY001,VS,STUDY001-SUBJ0008,25,HR,Heart Rate,81,beats/min,81,81.0,beats/min,,WEEK 4,5,2024-09-30,28
STUDY001,VS,STUDY001-SUBJ0008,26,HEIGHT,Height,158.2,cm,158.2,158.2,cm,,WEEK 8,6,2024-10-28,56
STUDY001,VS,STUDY001-SUBJ0008,27,WEIGHT,Weight,80.1,kg,80.1,80.1,kg,,WEEK 8,6,2024-10-28,56
STUDY001,VS,STUDY001-SUBJ0008,28,TEMP,Temperature,37.0,C,37.0,37.0,C,,WEEK 8,6,2024-10-28,56
STUDY001,VS,STUDY001-SUBJ0008,29,BP,Blood Pressure,129/79,mmHg,129/79,,mmHg,,WEEK 8,6,2024-10-28,56
STUDY001,VS,STUDY001-SUBJ0008,30,HR,Heart Rate,73,beats/min,73,73.0,beats/min,,WEEK 8,6,2024-10-28,56
STUDY001,VS,STUDY001-SUBJ0008,31,HEIGHT,Height,158.2,cm,158.2,158.2,cm,,WEEK 12,7,2024-11-25,84
STUDY001,VS,STUDY001-SUBJ0008,32,WEIGHT,Weight,79.3,kg,79.3,79.3,kg,,WEEK 12,7,2024-11-25,84
STUDY001,VS,STUDY001-SUBJ0008,33,TEMP,Temperature,36.8,C,36.8,36.8,C,,WEEK 12,7,2024-11-25,84
STUDY001,VS,STUDY001-SUBJ0008,34,BP,Blood Pressure,123/77,mmHg,123/77,,mmHg,,WEEK 12,7,2024-11-25,84
STUDY001,VS,STUDY001-SUBJ0008,35,HR,Heart Rate,79,beats/min,79,79.0,beats/min,,WEEK 12,7,2024-11-25,84
STUDY001,VS,STUDY001-SUBJ0008,36,HEIGHT,Height,158.0,cm,158.0,158.0,cm,,WEEK 16,8,2024-12-23,112
STUDY001,VS,STUDY001-SUBJ0008,37,WEIGHT,Weight,80.5,kg,80.5,80.5,kg,,WEEK 16,8,2024-12-23,112
STUDY001,VS,STUDY001-SUBJ0008,38,TEMP,Temperature,37.0,C,37.0,37.0,C,,WEEK 16,8,2024-12-23,112
STUDY001,VS,STUDY001-SUBJ0008,39,BP,Blood Pressure,128/84,mmHg,128/84,,mmHg,,WEEK 16,8,2024-12-23,112
STUDY001,VS,STUDY001-SUBJ0008,40,HR,Heart Rate,72,beats/min,72,72.0,beats/min,,WEEK 16,8,2024-12-23,112
STUDY001,VS,STUDY001-SUBJ0008,41,HEIGHT,Height,158.2,cm,158.2,158.2,cm,,END OF TREATMENT,9,2025-01-20,140
STUDY001,VS,STUDY001-SUBJ0008,42,WEIGHT,Weight,80.7,kg,80.7,80.7,kg,,END OF TREATMENT,9,2025-01-20,140
STUDY001,VS,STUDY001-SUBJ0008,43,TEMP,Temperature,36.9,C,36.9,36.9,C,,END OF TREATMENT,9,2025-01-20,140
STUDY001,VS,STUDY001-SUBJ0008,44,BP,Blood Pressure,125/80,mmHg,125/80,,mmHg,,END OF TREATMENT,9,2025-01-20,140
STUDY001,VS,STUDY001-SUBJ0008,45,HR,Heart Rate,72,beats/min,72,72.0,beats/min,,END OF TREATMENT,9,2025-01-20,140
STUDY001,VS,STUDY001-SUBJ0009,1,HEIGHT,Height,174.6,cm,174.6,174.6,cm,,SCREENING,1,2024-11-03,-14
STUDY001,VS,STUDY001-SUBJ0009,2,WEIGHT,Weight,119.1,kg,119.1,119.1,kg,,SCREENING,1,2024-11-03,-14
STUDY001,VS,STUDY001-SUBJ0009,3,TEMP,Temperature,36.6,C,36.6,36.6,C,,SCREENING,1,2024-11-03,-14
STUDY001,VS,STUDY001-SUBJ0009,4,BP,Blood Pressure,148/89,mmHg,148/89,,mmHg,,SCREENING,1,2024-11-03,-14
STUDY001,VS,STUDY001-SUBJ0009,5,HR,Heart Rate,67,beats/min,67,67.0,beats/min,,SCREENING,1,2024-11-03,-14
STUDY001,VS,STUDY001-SUBJ0009,6,HEIGHT,Height,174.7,cm,174.7,174.7,cm,Y,BASELINE,2,2024-11-17,1
STUDY001,VS,STUDY001-SUBJ0009,7,WEIGHT,Weight,117.8,kg,117.8,117.8,kg,Y,BASELINE,2,2024-11-17,1
STUDY001,VS,STUDY001-SUBJ0009,8,TEMP,Temperature,36.5,C,36.5,36.5,C,Y,BASELINE,2,2024-11-17,1
STUDY001,VS,STUDY001-SUBJ0009,9,BP,Blood Pressure,148/89,mmHg,148/89,,mmHg,Y,BASELINE,2,2024-11-17,1
STUDY001,VS,STUDY001-SUBJ0009,10,HR,Heart Rate,67,beats/min,67,67.0,beats/min,Y,BASELINE,2,2024-11-17,1
STUDY001,VS,STUDY001-SUBJ0009,11,HEIGHT,Height,174.6,cm,174.6,174.6,cm,,WEEK 1,3,2024-11-23,7
STUDY001,VS,STUDY001-SUBJ0009,12,WEIGHT,Weight,119.2,kg,119.2,119.2,kg,,WEEK 1,3,2024-11-23,7
STUDY001,VS,STUDY001-SUBJ0009,13,TEMP,Temperature,36.7,C,36.7,36.7,C,,WEEK 1,3,2024-11-23,7
STUDY001,VS,STUDY001-SUBJ0009,14,BP,Blood Pressure,151/89,mmHg,151/89,,mmHg,,WEEK 1,3,2024-11-23,7
STUDY001,VS,STUDY001-SUBJ0009,15,HR,Heart Rate,65,beats/min,65,65.0,beats/min,,WEEK 1,3,2024-11-23,7
STUDY001,VS,STUDY001-SUBJ0009,16,HEIGHT,Height,174.7,cm,174.7,174.7,cm,,WEEK 2,4,2024-11-30,14
STUDY001,VS,STUDY001-SUBJ0009,17,WEIGHT,Weight,119.3,kg,119.3,119.3,kg,,WEEK 2,4,2024-11-30,14
STUDY001,VS,STUDY001-SUBJ0009,18,TEMP,Temperature,36.6,C,36.6,36.6,C,,WEEK 2,4,2024-11-30,14
STUDY001,VS,STUDY001-SUBJ0009,19,BP,Blood Pressure,147/88,mmHg,147/88,,mmHg,,WEEK 2,4,2024-11-30,14
STUDY001,VS,STUDY001-SUBJ0009,20,HR,Heart Rate,66,beats/min,66,66.0,beats/min,,WEEK 2,4,2024-11-30,14
STUDY001,VS,STUDY001-SUBJ0009,21,HEIGHT,Height,174.4,cm,174.4,174.4,cm,,WEEK 4,5,2024-12-14,28
STUDY001,VS,STUDY001-SUBJ0009,22,WEIGHT,Weight,118.6,kg,118.6,118.6,kg,,WEEK 4,5,2024-12-14,28
STUDY001,VS,STUDY001-SUBJ0009,23,TEMP,Temperature,36.3,C,36.3,36.3,C,,WEEK 4,5,2024-12-14,28
STUDY001,VS,STUDY001-SUBJ0009,24,BP,Blood Pressure,149/89,mmHg,149/89,,mmHg,,WEEK 4,5,2024-12-14,28
STUDY001,VS,STUDY001-SUBJ0009,25,HR,Heart Rate,65,beats/min,65,65.0,beats/min,,WEEK 4,5,2024-12-14,28
STUDY001,VS,STUDY001-SUBJ0009,26,HEIGHT,Height,174.8,cm,174.8,174.8,cm,,WEEK 8,6,2025-01-11,56
STUDY001,VS,STUDY001-SUBJ0009,27,WEIGHT,Weight,118.5,kg,118.5,118.5,kg,,WEEK 8,6,2025-01-11,56
STUDY001,VS,STUDY001-SUBJ0009,28,TEMP,Temperature,36.3,C,36.3,36.3,C,,WEEK 8,6,2025-01-11,56
STUDY001,VS,STUDY001-SUBJ0009,29,BP,Blood Pressure,147/85,mmHg,147/85,,mmHg,,WEEK 8,6,2025-01-11,56
STUDY001,VS,STUDY001-SUBJ0009,30,HR,Heart Rate,64,beats/min,64,64.0,beats/min,,WEEK 8,6,2025-01-11,56
STUDY001,VS,STUDY001-SUBJ0009,31,HEIGHT,Height,174.4,cm,174.4,174.4,cm,,WEEK 12,7,2025-02-08,84
STUDY001,VS,STUDY001-SUBJ0009,32,WEIGHT,Weight,118.5,kg,118.5,118.5,kg,,WEEK 12,7,2025-02-08,84
STUDY001,VS,STUDY001-SUBJ0009,33,TEMP,Temperature,36.4,C,36.4,36.4,C,,WEEK 12,7,2025-02-08,84
STUDY001,VS,STUDY001-SUBJ0009,34,BP,Blood Pressure,147/91,mmHg,147/91,,mmHg,,WEEK 12,7,2025-02-08,84
STUDY001,VS,STUDY001-SUBJ0009,35,HR,Heart Rate,68,beats/min,68,68.0,beats/min,,WEEK 12,7,2025-02-08,84
STUDY001,VS,STUDY001-SUBJ0009,36,HEIGHT,Height,174.5,cm,174.5,174.5,cm,,WEEK 16,8,2025-03-08,112
STUDY001,VS,STUDY001-SUBJ0009,37,WEIGHT,Weight,118.2,kg,118.2,118.2,kg,,WEEK 16,8,2025-03-08,112
STUDY001,VS,STUDY001-SUBJ0009,38,TEMP,Temperature,36.6,C,36.6,36.6,C,,WEEK 16,8,2025-03-08,112
STUDY001,VS,STUDY001-SUBJ0009,39,BP,Blood Pressure,147/87,mmHg,147/87,,mmHg,,WEEK 16,8,2025-03-08,112
STUDY001,VS,STUDY001-SUBJ0009,40,HR,Heart Rate,66,beats/min,66,66.0,beats/min,,WEEK 16,8,2025-03-08,112
STUDY001,VS,STUDY001-SUBJ0009,41,HEIGHT,Height,174.8,cm,174.8,174.8,cm,,END OF TREATMENT,9,2025-04-05,140
STUDY001,VS,STUDY001-SUBJ0009,42,WEIGHT,Weight,118.6,kg,118.6,118.6,kg,,END OF TREATMENT,9,2025-04-05,140
STUDY001,VS,STUDY001-SUBJ0009,43,TEMP,Temperature,36.6,C,36.6,36.6,C,,END OF TREATMENT,9,2025-04-05,140
STUDY001,VS,STUDY001-SUBJ0009,44,BP,Blood Pressure,148/85,mmHg,148/85,,mmHg,,END OF TREATMENT,9,2025-04-05,140
STUDY001,VS,STUDY001-SUBJ0009,45,HR,Heart Rate,70,beats/min,70,70.0,beats/min,,END OF TREATMENT,9,2025-04-05,140
STUDY001,VS,STUDY001-SUBJ0010,1,HEIGHT,Height,196.6,cm,196.6,196.6,cm,,SCREENING,1,2024-11-05,-14
STUDY001,VS,STUDY001-SUBJ0010,2,WEIGHT,Weight,73.9,kg,73.9,73.9,kg,,SCREENING,1,2024-11-05,-14
STUDY001,VS,STUDY001-SUBJ0010,3,TEMP,Temperature,36.7,C,36.7,36.7,C,,SCREENING,1,2024-11-05,-14
STUDY001,VS,STUDY001-SUBJ0010,4,BP,Blood Pressure,134/76,mmHg,134/76,,mmHg,,SCREENING,1,2024-11-05,-14
STUDY001,VS,STUDY001-SUBJ0010,5,HR,Heart Rate,78,beats/min,78,78.0,beats/min,,SCREENING,1,2024-11-05,-14
STUDY001,VS,STUDY001-SUBJ0010,6,HEIGHT,Height,196.8,cm,196.8,196.8,cm,Y,BASELINE,2,2024-11-19,1
STUDY001,VS,STUDY001-SUBJ0010,7,WEIGHT,Weight,73.8,kg,73.8,73.8,kg,Y,BASELINE,2,2024-11-19,1
STUDY001,VS,STUDY001-SUBJ0010,8,TEMP,Temperature,37.0,C,37.0,37.0,C,Y,BASELINE,2,2024-11-19,1
STUDY001,VS,STUDY001-SUBJ0010,9,BP,Blood Pressure,137/68,mmHg,137/68,,mmHg,Y,BASELINE,2,2024-11-19,1
STUDY001,VS,STUDY001-SUBJ0010,10,HR,Heart Rate,74,beats/min,74,74.0,beats/min,Y,BASELINE,2,2024-11-19,1
STUDY001,VS,STUDY001-SUBJ0010,11,HEIGHT,Height,196.4,cm,196.4,196.4,cm,,WEEK 1,3,2024-11-25,7
STUDY001,VS,STUDY001-SUBJ0010,12,WEIGHT,Weight,75.0,kg,75.0,75.0,kg,,WEEK 1,3,2024-11-25,7
STUDY001,VS,STUDY001-SUBJ0010,13,TEMP,Temperature,36.9,C,36.9,36.9,C,,WEEK 1,3,2024-11-25,7
STUDY001,VS,STUDY001-SUBJ0010,14,BP,Blood Pressure,139/78,mmHg,139/78,,mmHg,,WEEK 1,3,2024-11-25,7
STUDY001,VS,STUDY001-SUBJ0010,15,HR,Heart Rate,78,beats/min,78,78.0,beats/min,,WEEK 1,3,2024-11-25,7
STUDY001,VS,STUDY001-SUBJ0010,16,HEIGHT,Height,196.5,cm,196.5,196.5,cm,,WEEK 2,4,2024-12-02,14
STUDY001,VS,STUDY001-SUBJ0010,17,WEIGHT,Weight,74.0,kg,74.0,74.0,kg,,WEEK 2,4,2024-12-02,14
STUDY001,VS,STUDY001-SUBJ0010,18,TEMP,Temperature,36.7,C,36.7,36.7,C,,WEEK 2,4,2024-12-02,14
STUDY001,VS,STUDY001-SUBJ0010,19,BP,Blood Pressure,134/70,mmHg,134/70,,mmHg,,WEEK 2,4,2024-12-02,14
STUDY001,VS,STUDY001-SUBJ0010,20,HR,Heart Rate,78,beats/min,78,78.0,beats/min,,WEEK 2,4,2024-12-02,14
STUDY001,VS,STUDY001-SUBJ0010,21,HEIGHT,Height,196.7,cm,196.7,196.7,cm,,WEEK 4,5,2024-12-16,28
STUDY001,VS,STUDY001-SUBJ0010,22,WEIGHT,Weight,73.9,kg,73.9,73.9,kg,,WEEK 4,5,2024-12-16,28
STUDY001,VS,STUDY001-SUBJ0010,23,TEMP,Temperature,36.8,C,36.8,36.8,C,,WEEK 4,5,2024-12-16,28
STUDY001,VS,STUDY001-SUBJ0010,24,BP,Blood Pressure,133/74,mmHg,133/74,,mmHg,,WEEK 4,5,2024-12-16,28
STUDY001,VS,STUDY001-SUBJ0010,25,HR,Heart Rate,77,beats/min,77,77.0,beats/min,,WEEK 4,5,2024-12-16,28
STUDY001,VS,STUDY001-SUBJ0010,26,HEIGHT,Height,196.7,cm,196.7,196.7,cm,,WEEK 8,6,2025-01-13,56
STUDY001,VS,STUDY001-SUBJ0010,27,WEIGHT,Weight,75.2,kg,75.2,75.2,kg,,WEEK 8,6,2025-01-13,56
STUDY001,VS,STUDY001-SUBJ0010,28,TEMP,Temperature,37.0,C,37.0,37.0,C,,WEEK 8,6,2025-01-13,56
STUDY001,VS,STUDY001-SUBJ0010,29,BP,Blood Pressure,132/72,mmHg,132/72,,mmHg,,WEEK 8,6,2025-01-13,56
STUDY001,VS,STUDY001-SUBJ0010,30,HR,Heart Rate,77,beats/min,77,77.0,beats/min,,WEEK 8,6,2025-01-13,56
STUDY001,VS,STUDY001-SUBJ0010,31,HEIGHT,Height,196.7,cm,196.7,196.7,cm,,WEEK 12,7,2025-02-10,84
STUDY001,VS,STUDY001-SUBJ0010,32,WEIGHT,Weight,74.1,kg,74.1,74.1,kg,,WEEK 12,7,2025-02-10,84
STUDY001,VS,STUDY001-SUBJ0010,33,TEMP,Temperature,36.7,C,36.7,36.7,C,,WEEK 12,7,2025-02-10,84
STUDY001,VS,STUDY001-SUBJ0010,34,BP,Blood Pressure,136/70,mmHg,136/70,,mmHg,,WEEK 12,7,2025-02-10,84
STUDY001,VS,STUDY001-SUBJ0010,35,HR,Heart Rate,80,beats/min,80,80.0,beats/min,,WEEK 12,7,2025-02-10,84
STUDY001,VS,STUDY001-SUBJ0010,36,HEIGHT,Height,196.5,cm,196.5,196.5,cm,,WEEK 16,8,2025-03-10,112
STUDY001,VS,STUDY001-SUBJ0010,37,WEIGHT,Weight,74.8,kg,74.8,74.8,kg,,WEEK 16,8,2025-03-10,112
STUDY001,VS,STUDY001-SUBJ0010,38,TEMP,Temperature,36.8,C,36.8,36.8,C,,WEEK 16,8,2025-03-10,112
STUDY001,VS,STUDY001-SUBJ0010,39,BP,Blood Pressure,130/76,mmHg,130/76,,mmHg,,WEEK 16,8,2025-03-10,112
STUDY001,VS,STUDY001-SUBJ0010,40,HR,Heart Rate,76,beats/min,76,76.0,beats/min,,WEEK 16,8,2025-03-10,112
STUDY001,VS,STUDY001-SUBJ0010,41,HEIGHT,Height,196.8,cm,196.8,196.8,cm,,END OF TREATMENT,9,2025-04-07,140
STUDY001,VS,STUDY001-SUBJ0010,42,WEIGHT,Weight,75.3,kg,75.3,75.3,kg,,END OF TREATMENT,9,2025-04-07,140
STUDY001,VS,STUDY001-SUBJ0010,43,TEMP,Temperature,36.8,C,36.8,36.8,C,,END OF TREATMENT,9,2025-04-07,140
STUDY001,VS,STUDY001-SUBJ0010,44,BP,Blood Pressure,134/77,mmHg,134/77,,mmHg,,END OF TREATMENT,9,2025-04-07,140
STUDY001,VS,STUDY001-SUBJ0010,45,HR,Heart Rate,72,beats/min,72,72.0,beats/min,,END OF TREATMENT,9,2025-04-07,140
