STUDYID,DOMAIN,USUBJID,SUBJID,RFSTDTC,RFENDTC,RFXSTDTC,RFXENDTC,RFICDTC,RFPENDTC,DTHDTC,DTHFL,SITEID,AGE,AGEU,SEX,RACE,ETHNIC,ARMCD,ARM,ACTARMCD,ACTARM,COUNTRY,DMDTC,DMDY
STUDY001,DM,STUDY001-SUBJ0001,SUBJ0001,2025-01-17,2025-08-17,2024-09-20,2025-08-05,2025-07-01,2025-08-17,,,20,42,YEARS,F,AMERICAN INDIAN OR ALASKA NATIVE,NOT HISPANIC OR LATINO,ARM1,Treatment 2,ARM1,Treatment 2,PW,2025-06-06,27
STUDY001,DM,STUDY001-SUBJ0002,SUBJ0002,2024-12-25,2025-08-19,2025-02-07,2025-08-21,2024-12-25,2025-08-19,,,8,60,YEARS,M,OTHER,NOT HISPANIC OR LATINO,ARM2,Treatment 3,ARM2,Treatment 3,CD,2025-01-04,3
STUDY001,DM,STUDY001-SUBJ0003,SUBJ0003,2024-11-19,2025-08-17,2025-03-14,2025-08-21,2024-09-02,2025-08-17,,,49,78,YEARS,M,AMERICAN INDIAN OR ALASKA NATIVE,NOT HISPANIC OR LATINO,ARM3,Treatment 2,ARM3,Treatment 2,TR,2025-03-11,25
STUDY001,DM,STUDY001-SUBJ0004,SUBJ0004,2025-01-11,2025-07-25,2025-07-11,2025-08-16,2024-09-21,2025-07-25,,,36,22,YEARS,F,AMERICAN INDIAN OR ALASKA NATIVE,NOT HISPANIC OR LATINO,ARM1,Treatment 1,ARM1,Treatment 1,TN,2024-09-23,26
STUDY001,DM,STUDY001-SUBJ0005,SUBJ0005,2024-10-07,2025-08-07,2024-10-31,2025-08-11,2025-06-03,2025-08-07,,,12,73,YEARS,M,WHITE,NOT HISPANIC OR LATINO,ARM2,Treatment 3,ARM2,Treatment 3,AF,2025-03-06,1
STUDY001,DM,STUDY001-SUBJ0006,SUBJ0006,2025-01-24,2025-07-27,2025-07-06,2025-08-15,2025-06-29,2025-07-27,,,44,28,YEARS,M,AMERICAN INDIAN OR ALASKA NATIVE,HISPANIC OR LATINO,ARM3,Treatment 1,ARM3,Treatment 1,QA,2024-09-02,20
STUDY001,DM,STUDY001-SUBJ0007,SUBJ0007,2025-02-28,2025-08-16,2024-12-10,2025-08-22,2025-06-30,2025-08-16,,,11,49,YEARS,M,BLACK OR AFRICAN AMERICAN,NOT HISPANIC OR LATINO,ARM1,Treatment 2,ARM1,Treatment 2,MU,2024-10-07,18
STUDY001,DM,STUDY001-SUBJ0008,SUBJ0008,2025-02-16,2025-08-08,2024-11-15,2025-08-03,2024-12-02,2025-08-08,,,7,59,YEARS,M,ASIAN,HISPANIC OR LATINO,ARM2,Treatment 1,ARM2,Treatment 1,IL,2024-12-17,30
STUDY001,DM,STUDY001-SUBJ0009,SUBJ0009,2025-07-08,2025-07-25,2024-09-18,2025-08-21,2025-04-13,2025-07-25,,,47,29,YEARS,F,BLACK OR AFRICAN AMERICAN,HISPANIC OR LATINO,ARM3,Treatment 2,ARM3,Treatment 2,SV,2025-01-30,26
STUDY001,DM,STUDY001-SUBJ0010,SUBJ0010,2024-10-04,2025-08-20,2025-06-12,2025-08-05,2025-05-07,2025-08-20,,,43,18,YEARS,M,ASIAN,NOT HISPANIC OR LATINO,ARM1,Treatment 3,ARM1,Treatment 3,GW,2025-03-05,2
