STUDYID,DOMAIN,USUBJID,SUBJID,RFSTDTC,RFENDTC,RFXSTDTC,RFXENDTC,RFICDTC,RFPENDTC,DTHDTC,DTHFL,SITEID,AGE,AGEU,SEX,RACE,ETHNIC,ARMCD,ARM,ACTARMCD,ACTARM,COUNTRY,DMDTC,DMDY
STUDY001,DM,STUDY001-SUBJ0001,SUBJ0001,2024-09-10,2025-08-10,2025-01-03,2025-07-30,2024-09-13,2025-08-10,,,39,65,YEARS,M,AMERICAN INDIAN OR ALASKA NATIVE,NOT HISPANIC OR LATINO,ARM1,Treatment 3,ARM1,Treatment 3,MK,2024-12-21,6
STUDY001,DM,STUDY001-SUBJ0002,SUBJ0002,2024-11-22,2025-07-27,2025-03-01,2025-07-25,2025-06-25,2025-07-27,,,17,41,YEARS,F,WHITE,HISPANIC OR LATINO,ARM2,Treatment 2,ARM2,Treatment 2,BG,2025-02-26,14
STUDY001,DM,STUDY001-SUBJ0003,SUBJ0003,2025-07-05,2025-08-08,2025-02-06,2025-08-17,2025-03-16,2025-08-08,,,17,37,YEARS,F,ASIAN,HISPANIC OR LATINO,ARM3,Treatment 3,ARM3,Treatment 3,BF,2024-11-03,26
STUDY001,DM,STUDY001-SUBJ0004,SUBJ0004,2024-10-15,2025-08-20,2024-10-02,2025-08-06,2025-06-12,2025-08-20,,,47,74,YEARS,M,OTHER,HISPANIC OR LATINO,ARM1,Treatment 2,ARM1,Treatment 2,SY,2025-04-29,24
STUDY001,DM,STUDY001-SUBJ0005,SUBJ0005,2025-03-04,2025-08-08,2024-12-27,2025-07-25,2024-11-22,2025-08-08,,,25,66,YEARS,F,OTHER,HISPANIC OR LATINO,ARM2,Treatment 3,ARM2,Treatment 3,MN,2025-05-28,24
STUDY001,DM,STUDY001-SUBJ0006,SUBJ0006,2024-10-08,2025-07-28,2024-11-06,2025-07-31,2025-05-14,2025-07-28,,,3,33,YEARS,F,AMERICAN INDIAN OR ALASKA NATIVE,NOT HISPANIC OR LATINO,ARM3,Treatment 3,ARM3,Treatment 3,LU,2024-09-17,19
STUDY001,DM,STUDY001-SUBJ0007,SUBJ0007,2025-06-08,2025-08-20,2025-04-12,2025-07-30,2025-05-29,2025-08-20,,,50,77,YEARS,M,OTHER,NOT HISPANIC OR LATINO,ARM1,Treatment 1,ARM1,Treatment 1,TH,2025-03-10,16
STUDY001,DM,STUDY001-SUBJ0008,SUBJ0008,2025-03-28,2025-08-11,2024-09-28,2025-08-08,2025-04-29,2025-08-11,,,16,44,YEARS,F,AMERICAN INDIAN OR ALASKA NATIVE,NOT HISPANIC OR LATINO,ARM2,Treatment 1,ARM2,Treatment 1,JO,2024-11-06,17
STUDY001,DM,STUDY001-SUBJ0009,SUBJ0009,2025-05-10,2025-07-24,2025-06-05,2025-08-13,2025-05-20,2025-07-24,,,22,24,YEARS,F,OTHER,NOT HISPANIC OR LATINO,ARM3,Treatment 1,ARM3,Treatment 1,SE,2024-09-09,13
STUDY001,DM,STUDY001-SUBJ0010,SUBJ0010,2024-12-21,2025-08-01,2025-05-05,2025-07-25,2024-10-24,2025-08-01,,,37,54,YEARS,F,WHITE,NOT HISPANIC OR LATINO,ARM1,Treatment 2,ARM1,Treatment 2,PT,2024-09-29,10
