STUDYID,DOMAIN,USUBJID,SUBJID,RFSTDTC,RFENDTC,RFXSTDTC,RFXENDTC,RFICDTC,RFPENDTC,DTHDTC,DTHFL,SITEID,AGE,AGEU,SEX,RACE,ETHNIC,ARMCD,ARM,ACTARMCD,ACTARM,COUNTRY,DMDTC,DMDY
STUDY001,DM,STUDY001-SUBJ0001,SUBJ0001,2025-02-06,2025-08-17,2025-03-31,2025-08-05,2025-02-03,2025-08-17,,,44,63,YEARS,F,BLACK OR AFRICAN AMERICAN,HISPANIC OR LATINO,ARM1,Treatment 1,ARM1,Treatment 1,ZM,2025-04-21,26
STUDY001,DM,STUDY001-SUBJ0002,SUBJ0002,2024-08-27,2025-07-24,2025-06-23,2025-08-17,2025-05-07,2025-07-24,,,27,57,YEARS,F,WHITE,NOT HISPANIC OR LATINO,ARM2,Treatment 3,ARM2,Treatment 3,SL,2024-12-22,19
STUDY001,DM,STUDY001-SUBJ0003,SUBJ0003,2025-06-26,2025-08-01,2025-04-20,2025-07-30,2024-09-12,2025-08-01,,,31,80,YEARS,M,AMERICAN INDIAN OR ALASKA NATIVE,NOT HISPANIC OR LATINO,ARM3,Treatment 3,ARM3,Treatment 3,PS,2025-06-20,16
STUDY001,DM,STUDY001-SUBJ0004,SUBJ0004,2025-04-19,2025-07-30,2024-12-16,2025-07-25,2024-10-31,2025-07-30,,,7,23,YEARS,M,ASIAN,NOT HISPANIC OR LATINO,ARM1,Treatment 2,ARM1,Treatment 2,ER,2025-01-21,27
STUDY001,DM,STUDY001-SUBJ0005,SUBJ0005,2025-04-23,2025-07-24,2025-04-23,2025-08-02,2025-05-14,2025-07-24,,,17,63,YEARS,F,BLACK OR AFRICAN AMERICAN,NOT HISPANIC OR LATINO,ARM2,Treatment 2,ARM2,Treatment 2,BD,2025-05-25,4
STUDY001,DM,STUDY001-SUBJ0006,SUBJ0006,2025-03-20,2025-08-02,2024-09-25,2025-07-30,2024-12-06,2025-08-02,,,14,32,YEARS,M,WHITE,NOT HISPANIC OR LATINO,ARM3,Treatment 1,ARM3,Treatment 1,MA,2025-07-05,25
STUDY001,DM,STUDY001-SUBJ0007,SUBJ0007,2025-07-22,2025-08-04,2025-07-08,2025-08-22,2024-11-18,2025-08-04,,,29,41,YEARS,M,WHITE,NOT HISPANIC OR LATINO,ARM1,Treatment 3,ARM1,Treatment 3,GA,2025-04-07,20
STUDY001,DM,STUDY001-SUBJ0008,SUBJ0008,2025-07-10,2025-08-17,2024-12-12,2025-08-05,2025-05-27,2025-08-17,,,14,48,YEARS,F,WHITE,HISPANIC OR LATINO,ARM2,Treatment 1,ARM2,Treatment 1,TG,2024-11-24,17
STUDY001,DM,STUDY001-SUBJ0009,SUBJ0009,2025-06-17,2025-08-13,2024-12-03,2025-08-16,2025-05-09,2025-08-13,,,40,27,YEARS,F,WHITE,HISPANIC OR LATINO,ARM3,Treatment 2,ARM3,Treatment 2,IQ,2025-02-10,15
STUDY001,DM,STUDY001-SUBJ0010,SUBJ0010,2025-05-30,2025-08-02,2025-05-15,2025-08-04,2025-06-28,2025-08-02,,,35,35,YEARS,F,AMERICAN INDIAN OR ALASKA NATIVE,NOT HISPANIC OR LATINO,ARM1,Treatment 3,ARM1,Treatment 3,KH,2025-06-25,27
