STUDYID,DOMAIN,USUBJID,SUBJID,RFSTDTC,RFENDTC,RFXSTDTC,RFXENDTC,RFICDTC,RFPENDTC,DTHDTC,DTHFL,SITEID,AGE,AGEU,SEX,RACE,ETHNIC,ARMCD,ARM,ACTARMCD,ACTARM,COUNTRY,DMDTC,DMDY
STUDY001,DM,STUDY001-SUBJ0001,SUBJ0001,2024-09-13,2025-07-31,2025-01-22,2025-08-06,2024-11-18,2025-07-31,,,11,64,YEARS,F,ASIAN,HISPANIC OR LATINO,ARM1,Treatment 1,ARM1,Treatment 1,SM,2024-12-12,3
STUDY001,DM,STUDY001-SUBJ0002,SUBJ0002,2025-05-16,2025-08-10,2025-02-23,2025-07-30,2024-10-24,2025-08-10,,,16,39,YEARS,F,BLACK OR AFRICAN AMERICAN,HISPANIC OR LATINO,ARM2,Treatment 3,ARM2,Treatment 3,PL,2024-09-30,14
STUDY001,DM,STUDY001-SUBJ0003,SUBJ0003,2024-11-01,2025-08-05,2025-04-12,2025-08-18,2025-01-25,2025-08-05,,,3,29,YEARS,M,OTHER,NOT HISPANIC OR LATINO,ARM3,Treatment 2,ARM3,Treatment 2,NO,2025-01-31,2
STUDY001,DM,STUDY001-SUBJ0004,SUBJ0004,2024-10-22,2025-07-30,2025-03-14,2025-08-05,2024-10-16,2025-07-30,,,33,43,YEARS,F,BLACK OR AFRICAN AMERICAN,HISPANIC OR LATINO,ARM1,Treatment 3,ARM1,Treatment 3,AE,2025-07-16,30
STUDY001,DM,STUDY001-SUBJ0005,SUBJ0005,2025-07-01,2025-08-15,2025-02-25,2025-07-28,2025-06-12,2025-08-15,,,20,62,YEARS,F,OTHER,NOT HISPANIC OR LATINO,ARM2,Treatment 2,ARM2,Treatment 2,WS,2025-01-20,29
STUDY001,DM,STUDY001-SUBJ0006,SUBJ0006,2025-06-18,2025-07-24,2024-11-03,2025-08-03,2025-01-26,2025-07-24,,,27,65,YEARS,F,BLACK OR AFRICAN AMERICAN,HISPANIC OR LATINO,ARM3,Treatment 1,ARM3,Treatment 1,AE,2025-04-06,3
STUDY001,DM,STUDY001-SUBJ0007,SUBJ0007,2025-07-12,2025-07-25,2024-11-06,2025-08-06,2025-01-26,2025-07-25,,,18,49,YEARS,F,WHITE,HISPANIC OR LATINO,ARM1,Treatment 1,ARM1,Treatment 1,VE,2025-06-26,28
STUDY001,DM,STUDY001-SUBJ0008,SUBJ0008,2024-09-16,2025-08-12,2025-04-11,2025-07-27,2024-09-01,2025-08-12,,,31,67,YEARS,M,ASIAN,HISPANIC OR LATINO,ARM2,Treatment 2,ARM2,Treatment 2,JO,2024-10-18,17
STUDY001,DM,STUDY001-SUBJ0009,SUBJ0009,2025-01-19,2025-08-21,2025-05-04,2025-08-04,2024-12-20,2025-08-21,,,36,24,YEARS,M,OTHER,HISPANIC OR LATINO,ARM3,Treatment 2,ARM3,Treatment 2,NA,2024-09-07,16
STUDY001,DM,STUDY001-SUBJ0010,SUBJ0010,2025-05-26,2025-07-26,2025-01-09,2025-07-30,2024-10-26,2025-07-26,,,24,42,YEARS,M,OTHER,HISPANIC OR LATINO,ARM1,Treatment 3,ARM1,Treatment 3,VA,2024-12-07,1
