STUDYID,DOMAIN,USUBJID,VSSEQ,VSTESTCD,VSTEST,VSORRES,VSORRESU,VSSTRESC,VSSTRESN,VSSTRESU,VSBLFL,VISIT,VISITNUM,VSDTC,VSDY
STUDY001,VS,STUDY001-SUBJ0001,1,HEIGHT,Height,192.5,cm,192.5,192.5,cm,,SCREENING,1,2024-10-26,-14
STUDY001,VS,STUDY001-SUBJ0001,2,WEIGHT,Weight,54.3,kg,54.3,54.3,kg,,SCREENING,1,2024-10-26,-14
STUDY001,VS,STUDY001-SUBJ0001,3,TEMP,Temperature,36.1,C,36.1,36.1,C,,SCREENING,1,2024-10-26,-14
STUDY001,VS,STUDY001-SUBJ0001,4,BP,Blood Pressure,137/95,mmHg,137/95,,mmHg,,SCREENING,1,2024-10-26,-14
STUDY001,VS,STUDY001-SUBJ0001,5,HR,Heart Rate,59,beats/min,59,59.0,beats/min,,SCREENING,1,2024-10-26,-14
STUDY001,VS,STUDY001-SUBJ0001,6,HEIGHT,Height,192.4,cm,192.4,192.4,cm,Y,BASELINE,2,2024-11-09,1
STUDY001,VS,STUDY001-SUBJ0001,7,WEIGHT,Weight,54.1,kg,54.1,54.1,kg,Y,BASELINE,2,2024-11-09,1
STUDY001,VS,STUDY001-SUBJ0001,8,TEMP,Temperature,36.1,C,36.1,36.1,C,Y,BASELINE,2,2024-11-09,1
STUDY001,VS,STUDY001-SUBJ0001,9,BP,Blood Pressure,130/93,mmHg,130/93,,mmHg,Y,BASELINE,2,2024-11-09,1
STUDY001,VS,STUDY001-SUBJ0001,10,HR,Heart Rate,61,beats/min,61,61.0,beats/min,Y,BASELINE,2,2024-11-09,1
STUDY001,VS,STUDY001-SUBJ0001,11,HEIGHT,Height,192.6,cm,192.6,192.6,cm,,WEEK 1,3,2024-11-15,7
STUDY001,VS,STUDY001-SUBJ0001,12,WEIGHT,Weight,53.0,kg,53.0,53.0,kg,,WEEK 1,3,2024-11-15,7
STUDY001,VS,STUDY001-SUBJ0001,13,TEMP,Temperature,36.3,C,36.3,36.3,C,,WEEK 1,3,2024-11-15,7
STUDY001,VS,STUDY001-SUBJ0001,14,BP,Blood Pressure,135/89,mmHg,135/89,,mmHg,,WEEK 1,3,2024-11-15,7
STUDY001,VS,STUDY001-SUBJ0001,15,HR,Heart Rate,58,beats/min,58,58.0,beats/min,,WEEK 1,3,2024-11-15,7
STUDY001,VS,STUDY001-SUBJ0001,16,HEIGHT,Height,192.4,cm,192.4,192.4,cm,,WEEK 2,4,2024-11-22,14
STUDY001,VS,STUDY001-SUBJ0001,17,WEIGHT,Weight,54.1,kg,54.1,54.1,kg,,WEEK 2,4,2024-11-22,14
STUDY001,VS,STUDY001-SUBJ0001,18,TEMP,Temperature,36.6,C,36.6,36.6,C,,WEEK 2,4,2024-11-22,14
STUDY001,VS,STUDY001-SUBJ0001,19,BP,Blood Pressure,130/89,mmHg,130/89,,mmHg,,WEEK 2,4,2024-11-22,14
STUDY001,VS,STUDY001-SUBJ0001,20,HR,Heart Rate,65,beats/min,65,65.0,beats/min,,WEEK 2,4,2024-11-22,14
STUDY001,VS,STUDY001-SUBJ0001,21,HEIGHT,Height,192.4,cm,192.4,192.4,cm,,WEEK 4,5,2024-12-06,28
STUDY001,VS,STUDY001-SUBJ0001,22,WEIGHT,Weight,53.6,kg,53.6,53.6,kg,,WEEK 4,5,2024-12-06,28
STUDY001,VS,STUDY001-SUBJ0001,23,TEMP,Temperature,36.5,C,36.5,36.5,C,,WEEK 4,5,2024-12-06,28
STUDY001,VS,STUDY001-SUBJ0001,24,BP,Blood Pressure,135/91,mmHg,135/91,,mmHg,,WEEK 4,5,2024-12-06,28
STUDY001,VS,STUDY001-SUBJ0001,25,HR,Heart Rate,59,beats/min,59,59.0,beats/min,,WEEK 4,5,2024-12-06,28
STUDY001,VS,STUDY001-SUBJ0001,26,HEIGHT,Height,192.5,cm,192.5,192.5,cm,,WEEK 8,6,2025-01-03,56
STUDY001,VS,STUDY001-SUBJ0001,27,WEIGHT,Weight,53.8,kg,53.8,53.8,kg,,WEEK 8,6,2025-01-03,56
STUDY001,VS,STUDY001-SUBJ0001,28,TEMP,Temperature,36.1,C,36.1,36.1,C,,WEEK 8,6,2025-01-03,56
STUDY001,VS,STUDY001-SUBJ0001,29,BP,Blood Pressure,135/95,mmHg,135/95,,mmHg,,WEEK 8,6,2025-01-03,56
STUDY001,VS,STUDY001-SUBJ0001,30,HR,Heart Rate,65,beats/min,65,65.0,beats/min,,WEEK 8,6,2025-01-03,56
STUDY001,VS,STUDY001-SUBJ0001,31,HEIGHT,Height,192.5,cm,192.5,192.5,cm,,WEEK 12,7,2025-01-31,84
STUDY001,VS,STUDY001-SUBJ0001,32,WEIGHT,Weight,52.6,kg,52.6,52.6,kg,,WEEK 12,7,2025-01-31,84
STUDY001,VS,STUDY001-SUBJ0001,33,TEMP,Temperature,36.5,C,36.5,36.5,C,,WEEK 12,7,2025-01-31,84
STUDY001,VS,STUDY001-SUBJ0001,34,BP,Blood Pressure,135/89,mmHg,135/89,,mmHg,,WEEK 12,7,2025-01-31,84
STUDY001,VS,STUDY001-SUBJ0001,35,HR,Heart Rate,61,beats/min,61,61.0,beats/min,,WEEK 12,7,2025-01-31,84
STUDY001,VS,STUDY001-SUBJ0001,36,HEIGHT,Height,192.5,cm,192.5,192.5,cm,,WEEK 16,8,2025-02-28,112
STUDY001,VS,STUDY001-SUBJ0001,37,WEIGHT,Weight,53.4,kg,53.4,53.4,kg,,WEEK 16,8,2025-02-28,112
STUDY001,VS,STUDY001-SUBJ0001,38,TEMP,Temperature,36.4,C,36.4,36.4,C,,WEEK 16,8,2025-02-28,112
STUDY001,VS,STUDY001-SUBJ0001,39,BP,Blood Pressure,130/88,mmHg,130/88,,mmHg,,WEEK 16,8,2025-02-28,112
STUDY001,VS,STUDY001-SUBJ0001,40,HR,Heart Rate,59,beats/min,59,59.0,beats/min,,WEEK 16,8,2025-02-28,112
STUDY001,VS,STUDY001-SUBJ0001,41,HEIGHT,Height,192.4,cm,192.4,192.4,cm,,END OF TREATMENT,9,2025-03-28,140
STUDY001,VS,STUDY001-SUBJ0001,42,WEIGHT,Weight,53.4,kg,53.4,53.4,kg,,END OF TREATMENT,9,2025-03-28,140
STUDY001,VS,STUDY001-SUBJ0001,43,TEMP,Temperature,36.3,C,36.3,36.3,C,,END OF TREATMENT,9,2025-03-28,140
STUDY001,VS,STUDY001-SUBJ0001,44,BP,Blood Pressure,134/91,mmHg,134/91,,mmHg,,END OF TREATMENT,9,2025-03-28,140
STUDY001,VS,STUDY001-SUBJ0001,45,HR,Heart Rate,63,beats/min,63,63.0,beats/min,,END OF TREATMENT,9,2025-03-28,140
STUDY001,VS,STUDY001-SUBJ0002,1,HEIGHT,Height,173.1,cm,173.1,173.1,cm,,SCREENING,1,2025-05-22,-14
STUDY001,VS,STUDY001-SUBJ0002,2,WEIGHT,Weight,117.9,kg,117.9,117.9,kg,,SCREENING,1,2025-05-22,-14
STUDY001,VS,STUDY001-SUBJ0002,3,TEMP,Temperature,36.2,C,36.2,36.2,C,,SCREENING,1,2025-05-22,-14
STUDY001,VS,STUDY001-SUBJ0002,4,BP,Blood Pressure,112/74,mmHg,112/74,,mmHg,,SCREENING,1,2025-05-22,-14
STUDY001,VS,STUDY001-SUBJ0002,5,HR,Heart Rate,76,beats/min,76,76.0,beats/min,,SCREENING,1,2025-05-22,-14
STUDY001,VS,STUDY001-SUBJ0002,6,HEIGHT,Height,173.0,cm,173.0,173.0,cm,Y,BASELINE,2,2025-06-05,1
STUDY001,VS,STUDY001-SUBJ0002,7,WEIGHT,Weight,118.5,kg,118.5,118.5,kg,Y,BASELINE,2,2025-06-05,1
STUDY001,VS,STUDY001-SUBJ0002,8,TEMP,Temperature,36.6,C,36.6,36.6,C,Y,BASELINE,2,2025-06-05,1
STUDY001,VS,STUDY001-SUBJ0002,9,BP,Blood Pressure,119/72,mmHg,119/72,,mmHg,Y,BASELINE,2,2025-06-05,1
STUDY001,VS,STUDY001-SUBJ0002,10,HR,Heart Rate,85,beats/min,85,85.0,beats/min,Y,BASELINE,2,2025-06-05,1
STUDY001,VS,STUDY001-SUBJ0002,11,HEIGHT,Height,173.1,cm,173.1,173.1,cm,,WEEK 1,3,2025-06-11,7
STUDY001,VS,STUDY001-SUBJ0002,12,WEIGHT,Weight,118.2,kg,118.2,118.2,kg,,WEEK 1,3,2025-06-11,7
STUDY001,VS,STUDY001-SUBJ0002,13,TEMP,Temperature,36.7,C,36.7,36.7,C,,WEEK 1,3,2025-06-11,7
STUDY001,VS,STUDY001-SUBJ0002,14,BP,Blood Pressure,111/71,mmHg,111/71,,mmHg,,WEEK 1,3,2025-06-11,7
STUDY001,VS,STUDY001-SUBJ0002,15,HR,Heart Rate,82,beats/min,82,82.0,beats/min,,WEEK 1,3,2025-06-11,7
STUDY001,VS,STUDY001-SUBJ0002,16,HEIGHT,Height,173.1,cm,173.1,173.1,cm,,WEEK 2,4,2025-06-18,14
STUDY001,VS,STUDY001-SUBJ0002,17,WEIGHT,Weight,118.9,kg,118.9,118.9,kg,,WEEK 2,4,2025-06-18,14
STUDY001,VS,STUDY001-SUBJ0002,18,TEMP,Temperature,36.5,C,36.5,36.5,C,,WEEK 2,4,2025-06-18,14
STUDY001,VS,STUDY001-SUBJ0002,19,BP,Blood Pressure,114/73,mmHg,114/73,,mmHg,,WEEK 2,4,2025-06-18,14
STUDY001,VS,STUDY001-SUBJ0002,20,HR,Heart Rate,83,beats/min,83,83.0,beats/min,,WEEK 2,4,2025-06-18,14
STUDY001,VS,STUDY001-SUBJ0002,21,HEIGHT,Height,173.1,cm,173.1,173.1,cm,,WEEK 4,5,2025-07-02,28
STUDY001,VS,STUDY001-SUBJ0002,22,WEIGHT,Weight,117.7,kg,117.7,117.7,kg,,WEEK 4,5,2025-07-02,28
STUDY001,VS,STUDY001-SUBJ0002,23,TEMP,Temperature,36.2,C,36.2,36.2,C,,WEEK 4,5,2025-07-02,28
STUDY001,VS,STUDY001-SUBJ0002,24,BP,Blood Pressure,117/68,mmHg,117/68,,mmHg,,WEEK 4,5,2025-07-02,28
STUDY001,VS,STUDY001-SUBJ0002,25,HR,Heart Rate,79,beats/min,79,79.0,beats/min,,WEEK 4,5,2025-07-02,28
STUDY001,VS,STUDY001-SUBJ0002,26,HEIGHT,Height,173.0,cm,173.0,173.0,cm,,WEEK 8,6,2025-07-30,56
STUDY001,VS,STUDY001-SUBJ0002,27,WEIGHT,Weight,117.7,kg,117.7,117.7,kg,,WEEK 8,6,2025-07-30,56
STUDY001,VS,STUDY001-SUBJ0002,28,TEMP,Temperature,36.3,C,36.3,36.3,C,,WEEK 8,6,2025-07-30,56
STUDY001,VS,STUDY001-SUBJ0002,29,BP,Blood Pressure,113/75,mmHg,113/75,,mmHg,,WEEK 8,6,2025-07-30,56
STUDY001,VS,STUDY001-SUBJ0002,30,HR,Heart Rate,85,beats/min,85,85.0,beats/min,,WEEK 8,6,2025-07-30,56
STUDY001,VS,STUDY001-SUBJ0002,31,HEIGHT,Height,172.9,cm,172.9,172.9,cm,,WEEK 12,7,2025-08-27,84
STUDY001,VS,STUDY001-SUBJ0002,32,WEIGHT,Weight,118.4,kg,118.4,118.4,kg,,WEEK 12,7,2025-08-27,84
STUDY001,VS,STUDY001-SUBJ0002,33,TEMP,Temperature,36.2,C,36.2,36.2,C,,WEEK 12,7,2025-08-27,84
STUDY001,VS,STUDY001-SUBJ0002,34,BP,Blood Pressure,113/75,mmHg,113/75,,mmHg,,WEEK 12,7,2025-08-27,84
STUDY001,VS,STUDY001-SUBJ0002,35,HR,Heart Rate,78,beats/min,78,78.0,beats/min,,WEEK 12,7,2025-08-27,84
STUDY001,VS,STUDY001-SUBJ0002,36,HEIGHT,Height,173.0,cm,173.0,173.0,cm,,WEEK 16,8,2025-09-24,112
STUDY001,VS,STUDY001-SUBJ0002,37,WEIGHT,Weight,117.5,kg,117.5,117.5,kg,,WEEK 16,8,2025-09-24,112
STUDY001,VS,STUDY001-SUBJ0002,38,TEMP,Temperature,36.3,C,36.3,36.3,C,,WEEK 16,8,2025-09-24,112
STUDY001,VS,STUDY001-SUBJ0002,39,BP,Blood Pressure,111/72,mmHg,111/72,,mmHg,,WEEK 16,8,2025-09-24,112
STUDY001,VS,STUDY001-SUBJ0002,40,HR,Heart Rate,78,beats/min,78,78.0,beats/min,,WEEK 16,8,2025-09-24,112
STUDY001,VS,STUDY001-SUBJ0002,41,HEIGHT,Height,173.0,cm,173.0,173.0,cm,,END OF TREATMENT,9,2025-10-22,140
STUDY001,VS,STUDY001-SUBJ0002,42,WEIGHT,Weight,118.4,kg,118.4,118.4,kg,,END OF TREATMENT,9,2025-10-22,140
STUDY001,VS,STUDY001-SUBJ0002,43,TEMP,Temperature,36.2,C,36.2,36.2,C,,END OF TREATMENT,9,2025-10-22,140
STUDY001,VS,STUDY001-SUBJ0002,44,BP,Blood Pressure,111/73,mmHg,111/73,,mmHg,,END OF TREATMENT,9,2025-10-22,140
STUDY001,VS,STUDY001-SUBJ0002,45,HR,Heart Rate,79,beats/min,79,79.0,beats/min,,END OF TREATMENT,9,2025-10-22,140
STUDY001,VS,STUDY001-SUBJ0003,1,HEIGHT,Height,159.9,cm,159.9,159.9,cm,,SCREENING,1,2025-01-12,-14
STUDY001,VS,STUDY001-SUBJ0003,2,WEIGHT,Weight,80.2,kg,80.2,80.2,kg,,SCREENING,1,2025-01-12,-14
STUDY001,VS,STUDY001-SUBJ0003,3,TEMP,Temperature,37.0,C,37.0,37.0,C,,SCREENING,1,2025-01-12,-14
STUDY001,VS,STUDY001-SUBJ0003,4,BP,Blood Pressure,128/72,mmHg,128/72,,mmHg,,SCREENING,1,2025-01-12,-14
STUDY001,VS,STUDY001-SUBJ0003,5,HR,Heart Rate,87,beats/min,87,87.0,beats/min,,SCREENING,1,2025-01-12,-14
STUDY001,VS,STUDY001-SUBJ0003,6,HEIGHT,Height,160.0,cm,160.0,160.0,cm,Y,BASELINE,2,2025-01-26,1
STUDY001,VS,STUDY001-SUBJ0003,7,WEIGHT,Weight,80.9,kg,80.9,80.9,kg,Y,BASELINE,2,2025-01-26,1
STUDY001,VS,STUDY001-SUBJ0003,8,TEMP,Temperature,36.8,C,36.8,36.8,C,Y,BASELINE,2,2025-01-26,1
STUDY001,VS,STUDY001-SUBJ0003,9,BP,Blood Pressure,130/73,mmHg,130/73,,mmHg,Y,BASELINE,2,2025-01-26,1
STUDY001,VS,STUDY001-SUBJ0003,10,HR,Heart Rate,84,beats/min,84,84.0,beats/min,Y,BASELINE,2,2025-01-26,1
STUDY001,VS,STUDY001-SUBJ0003,11,HEIGHT,Height,160.0,cm,160.0,160.0,cm,,WEEK 1,3,2025-02-01,7
STUDY001,VS,STUDY001-SUBJ0003,12,WEIGHT,Weight,79.4,kg,79.4,79.4,kg,,WEEK 1,3,2025-02-01,7
STUDY001,VS,STUDY001-SUBJ0003,13,TEMP,Temperature,37.2,C,37.2,37.2,C,,WEEK 1,3,2025-02-01,7
STUDY001,VS,STUDY001-SUBJ0003,14,BP,Blood Pressure,123/72,mmHg,123/72,,mmHg,,WEEK 1,3,2025-02-01,7
STUDY001,VS,STUDY001-SUBJ0003,15,HR,Heart Rate,86,beats/min,86,86.0,beats/min,,WEEK 1,3,2025-02-01,7
STUDY001,VS,STUDY001-SUBJ0003,16,HEIGHT,Height,159.7,cm,159.7,159.7,cm,,WEEK 2,4,2025-02-08,14
STUDY001,VS,STUDY001-SUBJ0003,17,WEIGHT,Weight,80.1,kg,80.1,80.1,kg,,WEEK 2,4,2025-02-08,14
STUDY001,VS,STUDY001-SUBJ0003,18,TEMP,Temperature,37.0,C,37.0,37.0,C,,WEEK 2,4,2025-02-08,14
STUDY001,VS,STUDY001-SUBJ0003,19,BP,Blood Pressure,125/78,mmHg,125/78,,mmHg,,WEEK 2,4,2025-02-08,14
STUDY001,VS,STUDY001-SUBJ0003,20,HR,Heart Rate,86,beats/min,86,86.0,beats/min,,WEEK 2,4,2025-02-08,14
STUDY001,VS,STUDY001-SUBJ0003,21,HEIGHT,Height,159.8,cm,159.8,159.8,cm,,WEEK 4,5,2025-02-22,28
STUDY001,VS,STUDY001-SUBJ0003,22,WEIGHT,Weight,80.1,kg,80.1,80.1,kg,,WEEK 4,5,2025-02-22,28
STUDY001,VS,STUDY001-SUBJ0003,23,TEMP,Temperature,37.1,C,37.1,37.1,C,,WEEK 4,5,2025-02-22,28
STUDY001,VS,STUDY001-SUBJ0003,24,BP,Blood Pressure,127/79,mmHg,127/79,,mmHg,,WEEK 4,5,2025-02-22,28
STUDY001,VS,STUDY001-SUBJ0003,25,HR,Heart Rate,82,beats/min,82,82.0,beats/min,,WEEK 4,5,2025-02-22,28
STUDY001,VS,STUDY001-SUBJ0003,26,HEIGHT,Height,160.0,cm,160.0,160.0,cm,,WEEK 8,6,2025-03-22,56
STUDY001,VS,STUDY001-SUBJ0003,27,WEIGHT,Weight,79.0,kg,79.0,79.0,kg,,WEEK 8,6,2025-03-22,56
STUDY001,VS,STUDY001-SUBJ0003,28,TEMP,Temperature,36.8,C,36.8,36.8,C,,WEEK 8,6,2025-03-22,56
STUDY001,VS,STUDY001-SUBJ0003,29,BP,Blood Pressure,125/73,mmHg,125/73,,mmHg,,WEEK 8,6,2025-03-22,56
STUDY001,VS,STUDY001-SUBJ0003,30,HR,Heart Rate,84,beats/min,84,84.0,beats/min,,WEEK 8,6,2025-03-22,56
STUDY001,VS,STUDY001-SUBJ0003,31,HEIGHT,Height,160.0,cm,160.0,160.0,cm,,WEEK 12,7,2025-04-19,84
STUDY001,VS,STUDY001-SUBJ0003,32,WEIGHT,Weight,79.6,kg,79.6,79.6,kg,,WEEK 12,7,2025-04-19,84
STUDY001,VS,STUDY001-SUBJ0003,33,TEMP,Temperature,37.2,C,37.2,37.2,C,,WEEK 12,7,2025-04-19,84
STUDY001,VS,STUDY001-SUBJ0003,34,BP,Blood Pressure,127/72,mmHg,127/72,,mmHg,,WEEK 12,7,2025-04-19,84
STUDY001,VS,STUDY001-SUBJ0003,35,HR,Heart Rate,87,beats/min,87,87.0,beats/min,,WEEK 12,7,2025-04-19,84
STUDY001,VS,STUDY001-SUBJ0003,36,HEIGHT,Height,159.9,cm,159.9,159.9,cm,,WEEK 16,8,2025-05-17,112
STUDY001,VS,STUDY001-SUBJ0003,37,WEIGHT,Weight,80.8,kg,80.8,80.8,kg,,WEEK 16,8,2025-05-17,112
STUDY001,VS,STUDY001-SUBJ0003,38,TEMP,Temperature,37.2,C,37.2,37.2,C,,WEEK 16,8,2025-05-17,112
STUDY001,VS,STUDY001-SUBJ0003,39,BP,Blood Pressure,130/78,mmHg,130/78,,mmHg,,WEEK 16,8,2025-05-17,112
STUDY001,VS,STUDY001-SUBJ0003,40,HR,Heart Rate,88,beats/min,88,88.0,beats/min,,WEEK 16,8,2025-05-17,112
STUDY001,VS,STUDY001-SUBJ0003,41,HEIGHT,Height,159.9,cm,159.9,159.9,cm,,END OF TREATMENT,9,2025-06-14,140
STUDY001,VS,STUDY001-SUBJ0003,42,WEIGHT,Weight,79.9,kg,79.9,79.9,kg,,END OF TREATMENT,9,2025-06-14,140
STUDY001,VS,STUDY001-SUBJ0003,43,TEMP,Temperature,36.9,C,36.9,36.9,C,,END OF TREATMENT,9,2025-06-14,140
STUDY001,VS,STUDY001-SUBJ0003,44,BP,Blood Pressure,123/79,mmHg,123/79,,mmHg,,END OF TREATMENT,9,2025-06-14,140
STUDY001,VS,STUDY001-SUBJ0003,45,HR,Heart Rate,89,beats/min,89,89.0,beats/min,,END OF TREATMENT,9,2025-06-14,140
STUDY001,VS,STUDY001-SUBJ0004,1,HEIGHT,Height,153.7,cm,153.7,153.7,cm,,SCREENING,1,2025-01-28,-14
STUDY001,VS,STUDY001-SUBJ0004,2,WEIGHT,Weight,117.2,kg,117.2,117.2,kg,,SCREENING,1,2025-01-28,-14
STUDY001,VS,STUDY001-SUBJ0004,3,TEMP,Temperature,36.9,C,36.9,36.9,C,,SCREENING,1,2025-01-28,-14
STUDY001,VS,STUDY001-SUBJ0004,4,BP,Blood Pressure,130/77,mmHg,130/77,,mmHg,,SCREENING,1,2025-01-28,-14
STUDY001,VS,STUDY001-SUBJ0004,5,HR,Heart Rate,73,beats/min,73,73.0,beats/min,,SCREENING,1,2025-01-28,-14
STUDY001,VS,STUDY001-SUBJ0004,6,HEIGHT,Height,153.9,cm,153.9,153.9,cm,Y,BASELINE,2,2025-02-11,1
STUDY001,VS,STUDY001-SUBJ0004,7,WEIGHT,Weight,117.1,kg,117.1,117.1,kg,Y,BASELINE,2,2025-02-11,1
STUDY001,VS,STUDY001-SUBJ0004,8,TEMP,Temperature,36.7,C,36.7,36.7,C,Y,BASELINE,2,2025-02-11,1
STUDY001,VS,STUDY001-SUBJ0004,9,BP,Blood Pressure,122/73,mmHg,122/73,,mmHg,Y,BASELINE,2,2025-02-11,1
STUDY001,VS,STUDY001-SUBJ0004,10,HR,Heart Rate,82,beats/min,82,82.0,beats/min,Y,BASELINE,2,2025-02-11,1
STUDY001,VS,STUDY001-SUBJ0004,11,HEIGHT,Height,153.5,cm,153.5,153.5,cm,,WEEK 1,3,2025-02-17,7
STUDY001,VS,STUDY001-SUBJ0004,12,WEIGHT,Weight,116.1,kg,116.1,116.1,kg,,WEEK 1,3,2025-02-17,7
STUDY001,VS,STUDY001-SUBJ0004,13,TEMP,Temperature,36.8,C,36.8,36.8,C,,WEEK 1,3,2025-02-17,7
STUDY001,VS,STUDY001-SUBJ0004,14,BP,Blood Pressure,130/73,mmHg,130/73,,mmHg,,WEEK 1,3,2025-02-17,7
STUDY001,VS,STUDY001-SUBJ0004,15,HR,Heart Rate,80,beats/min,80,80.0,beats/min,,WEEK 1,3,2025-02-17,7
STUDY001,VS,STUDY001-SUBJ0004,16,HEIGHT,Height,153.6,cm,153.6,153.6,cm,,WEEK 2,4,2025-02-24,14
STUDY001,VS,STUDY001-SUBJ0004,17,WEIGHT,Weight,116.3,kg,116.3,116.3,kg,,WEEK 2,4,2025-02-24,14
STUDY001,VS,STUDY001-SUBJ0004,18,TEMP,Temperature,37.2,C,37.2,37.2,C,,WEEK 2,4,2025-02-24,14
STUDY001,VS,STUDY001-SUBJ0004,19,BP,Blood Pressure,130/72,mmHg,130/72,,mmHg,,WEEK 2,4,2025-02-24,14
STUDY001,VS,STUDY001-SUBJ0004,20,HR,Heart Rate,74,beats/min,74,74.0,beats/min,,WEEK 2,4,2025-02-24,14
STUDY001,VS,STUDY001-SUBJ0004,21,HEIGHT,Height,153.6,cm,153.6,153.6,cm,,WEEK 4,5,2025-03-10,28
STUDY001,VS,STUDY001-SUBJ0004,22,WEIGHT,Weight,115.6,kg,115.6,115.6,kg,,WEEK 4,5,2025-03-10,28
STUDY001,VS,STUDY001-SUBJ0004,23,TEMP,Temperature,36.8,C,36.8,36.8,C,,WEEK 4,5,2025-03-10,28
STUDY001,VS,STUDY001-SUBJ0004,24,BP,Blood Pressure,128/78,mmHg,128/78,,mmHg,,WEEK 4,5,2025-03-10,28
STUDY001,VS,STUDY001-SUBJ0004,25,HR,Heart Rate,73,beats/min,73,73.0,beats/min,,WEEK 4,5,2025-03-10,28
STUDY001,VS,STUDY001-SUBJ0004,26,HEIGHT,Height,153.6,cm,153.6,153.6,cm,,WEEK 8,6,2025-04-07,56
STUDY001,VS,STUDY001-SUBJ0004,27,WEIGHT,Weight,117.4,kg,117.4,117.4,kg,,WEEK 8,6,2025-04-07,56
STUDY001,VS,STUDY001-SUBJ0004,28,TEMP,Temperature,37.1,C,37.1,37.1,C,,WEEK 8,6,2025-04-07,56
STUDY001,VS,STUDY001-SUBJ0004,29,BP,Blood Pressure,129/76,mmHg,129/76,,mmHg,,WEEK 8,6,2025-04-07,56
STUDY001,VS,STUDY001-SUBJ0004,30,HR,Heart Rate,74,beats/min,74,74.0,beats/min,,WEEK 8,6,2025-04-07,56
STUDY001,VS,STUDY001-SUBJ0004,31,HEIGHT,Height,153.7,cm,153.7,153.7,cm,,WEEK 12,7,2025-05-05,84
STUDY001,VS,STUDY001-SUBJ0004,32,WEIGHT,Weight,117.0,kg,117.0,117.0,kg,,WEEK 12,7,2025-05-05,84
STUDY001,VS,STUDY001-SUBJ0004,33,TEMP,Temperature,36.9,C,36.9,36.9,C,,WEEK 12,7,2025-05-05,84
STUDY001,VS,STUDY001-SUBJ0004,34,BP,Blood Pressure,124/79,mmHg,124/79,,mmHg,,WEEK 12,7,2025-05-05,84
STUDY001,VS,STUDY001-SUBJ0004,35,HR,Heart Rate,76,beats/min,76,76.0,beats/min,,WEEK 12,7,2025-05-05,84
STUDY001,VS,STUDY001-SUBJ0004,36,HEIGHT,Height,153.8,cm,153.8,153.8,cm,,WEEK 16,8,2025-06-02,112
STUDY001,VS,STUDY001-SUBJ0004,37,WEIGHT,Weight,117.3,kg,117.3,117.3,kg,,WEEK 16,8,2025-06-02,112
STUDY001,VS,STUDY001-SUBJ0004,38,TEMP,Temperature,37.2,C,37.2,37.2,C,,WEEK 16,8,2025-06-02,112
STUDY001,VS,STUDY001-SUBJ0004,39,BP,Blood Pressure,131/74,mmHg,131/74,,mmHg,,WEEK 16,8,2025-06-02,112
STUDY001,VS,STUDY001-SUBJ0004,40,HR,Heart Rate,77,beats/min,77,77.0,beats/min,,WEEK 16,8,2025-06-02,112
STUDY001,VS,STUDY001-SUBJ0004,41,HEIGHT,Height,153.9,cm,153.9,153.9,cm,,END OF TREATMENT,9,2025-06-30,140
STUDY001,VS,STUDY001-SUBJ0004,42,WEIGHT,Weight,117.3,kg,117.3,117.3,kg,,END OF TREATMENT,9,2025-06-30,140
STUDY001,VS,STUDY001-SUBJ0004,43,TEMP,Temperature,37.0,C,37.0,37.0,C,,END OF TREATMENT,9,2025-06-30,140
STUDY001,VS,STUDY001-SUBJ0004,44,BP,Blood Pressure,132/71,mmHg,132/71,,mmHg,,END OF TREATMENT,9,2025-06-30,140
STUDY001,VS,STUDY001-SUBJ0004,45,HR,Heart Rate,80,beats/min,80,80.0,beats/min,,END OF TREATMENT,9,2025-06-30,140
STUDY001,VS,STUDY001-SUBJ0005,1,HEIGHT,Height,199.5,cm,199.5,199.5,cm,,SCREENING,1,2025-06-03,-14
STUDY001,VS,STUDY001-SUBJ0005,2,WEIGHT,Weight,82.9,kg,82.9,82.9,kg,,SCREENING,1,2025-06-03,-14
STUDY001,VS,STUDY001-SUBJ0005,3,TEMP,Temperature,36.4,C,36.4,36.4,C,,SCREENING,1,2025-06-03,-14
STUDY001,VS,STUDY001-SUBJ0005,4,BP,Blood Pressure,109/82,mmHg,109/82,,mmHg,,SCREENING,1,2025-06-03,-14
STUDY001,VS,STUDY001-SUBJ0005,5,HR,Heart Rate,86,beats/min,86,86.0,beats/min,,SCREENING,1,2025-06-03,-14
STUDY001,VS,STUDY001-SUBJ0005,6,HEIGHT,Height,199.4,cm,199.4,199.4,cm,Y,BASELINE,2,2025-06-17,1
STUDY001,VS,STUDY001-SUBJ0005,7,WEIGHT,Weight,83.0,kg,83.0,83.0,kg,Y,BASELINE,2,2025-06-17,1
STUDY001,VS,STUDY001-SUBJ0005,8,TEMP,Temperature,35.9,C,35.9,35.9,C,Y,BASELINE,2,2025-06-17,1
STUDY001,VS,STUDY001-SUBJ0005,9,BP,Blood Pressure,103/80,mmHg,103/80,,mmHg,Y,BASELINE,2,2025-06-17,1
STUDY001,VS,STUDY001-SUBJ0005,10,HR,Heart Rate,91,beats/min,91,91.0,beats/min,Y,BASELINE,2,2025-06-17,1
STUDY001,VS,STUDY001-SUBJ0005,11,HEIGHT,Height,199.4,cm,199.4,199.4,cm,,WEEK 1,3,2025-06-23,7
STUDY001,VS,STUDY001-SUBJ0005,12,WEIGHT,Weight,84.6,kg,84.6,84.6,kg,,WEEK 1,3,2025-06-23,7
STUDY001,VS,STUDY001-SUBJ0005,13,TEMP,Temperature,36.0,C,36.0,36.0,C,,WEEK 1,3,2025-06-23,7
STUDY001,VS,STUDY001-SUBJ0005,14,BP,Blood Pressure,104/78,mmHg,104/78,,mmHg,,WEEK 1,3,2025-06-23,7
STUDY001,VS,STUDY001-SUBJ0005,15,HR,Heart Rate,90,beats/min,90,90.0,beats/min,,WEEK 1,3,2025-06-23,7
STUDY001,VS,STUDY001-SUBJ0005,16,HEIGHT,Height,199.4,cm,199.4,199.4,cm,,WEEK 2,4,2025-06-30,14
STUDY001,VS,STUDY001-SUBJ0005,17,WEIGHT,Weight,82.8,kg,82.8,82.8,kg,,WEEK 2,4,2025-06-30,14
STUDY001,VS,STUDY001-SUBJ0005,18,TEMP,Temperature,36.3,C,36.3,36.3,C,,WEEK 2,4,2025-06-30,14
STUDY001,VS,STUDY001-SUBJ0005,19,BP,Blood Pressure,103/83,mmHg,103/83,,mmHg,,WEEK 2,4,2025-06-30,14
STUDY001,VS,STUDY001-SUBJ0005,20,HR,Heart Rate,88,beats/min,88,88.0,beats/min,,WEEK 2,4,2025-06-30,14
STUDY001,VS,STUDY001-SUBJ0005,21,HEIGHT,Height,199.4,cm,199.4,199.4,cm,,WEEK 4,5,2025-07-14,28
STUDY001,VS,STUDY001-SUBJ0005,22,WEIGHT,Weight,84.3,kg,84.3,84.3,kg,,WEEK 4,5,2025-07-14,28
STUDY001,VS,STUDY001-SUBJ0005,23,TEMP,Temperature,36.4,C,36.4,36.4,C,,WEEK 4,5,2025-07-14,28
STUDY001,VS,STUDY001-SUBJ0005,24,BP,Blood Pressure,111/82,mmHg,111/82,,mmHg,,WEEK 4,5,2025-07-14,28
STUDY001,VS,STUDY001-SUBJ0005,25,HR,Heart Rate,84,beats/min,84,84.0,beats/min,,WEEK 4,5,2025-07-14,28
STUDY001,VS,STUDY001-SUBJ0005,26,HEIGHT,Height,199.3,cm,199.3,199.3,cm,,WEEK 8,6,2025-08-11,56
STUDY001,VS,STUDY001-SUBJ0005,27,WEIGHT,Weight,83.3,kg,83.3,83.3,kg,,WEEK 8,6,2025-08-11,56
STUDY001,VS,STUDY001-SUBJ0005,28,TEMP,Temperature,36.5,C,36.5,36.5,C,,WEEK 8,6,2025-08-11,56
STUDY001,VS,STUDY001-SUBJ0005,29,BP,Blood Pressure,105/84,mmHg,105/84,,mmHg,,WEEK 8,6,2025-08-11,56
STUDY001,VS,STUDY001-SUBJ0005,30,HR,Heart Rate,83,beats/min,83,83.0,beats/min,,WEEK 8,6,2025-08-11,56
STUDY001,VS,STUDY001-SUBJ0005,31,HEIGHT,Height,199.4,cm,199.4,199.4,cm,,WEEK 12,7,2025-09-08,84
STUDY001,VS,STUDY001-SUBJ0005,32,WEIGHT,Weight,84.4,kg,84.4,84.4,kg,,WEEK 12,7,2025-09-08,84
STUDY001,VS,STUDY001-SUBJ0005,33,TEMP,Temperature,36.1,C,36.1,36.1,C,,WEEK 12,7,2025-09-08,84
STUDY001,VS,STUDY001-SUBJ0005,34,BP,Blood Pressure,111/79,mmHg,111/79,,mmHg,,WEEK 12,7,2025-09-08,84
STUDY001,VS,STUDY001-SUBJ0005,35,HR,Heart Rate,89,beats/min,89,89.0,beats/min,,WEEK 12,7,2025-09-08,84
STUDY001,VS,STUDY001-SUBJ0005,36,HEIGHT,Height,199.6,cm,199.6,199.6,cm,,WEEK 16,8,2025-10-06,112
STUDY001,VS,STUDY001-SUBJ0005,37,WEIGHT,Weight,83.1,kg,83.1,83.1,kg,,WEEK 16,8,2025-10-06,112
STUDY001,VS,STUDY001-SUBJ0005,38,TEMP,Temperature,36.4,C,36.4,36.4,C,,WEEK 16,8,2025-10-06,112
STUDY001,VS,STUDY001-SUBJ0005,39,BP,Blood Pressure,102/78,mmHg,102/78,,mmHg,,WEEK 16,8,2025-10-06,112
STUDY001,VS,STUDY001-SUBJ0005,40,HR,Heart Rate,83,beats/min,83,83.0,beats/min,,WEEK 16,8,2025-10-06,112
STUDY001,VS,STUDY001-SUBJ0005,41,HEIGHT,Height,199.6,cm,199.6,199.6,cm,,END OF TREATMENT,9,2025-11-03,140
STUDY001,VS,STUDY001-SUBJ0005,42,WEIGHT,Weight,83.6,kg,83.6,83.6,kg,,END OF TREATMENT,9,2025-11-03,140
STUDY001,VS,STUDY001-SUBJ0005,43,TEMP,Temperature,36.0,C,36.0,36.0,C,,END OF TREATMENT,9,2025-11-03,140
STUDY001,VS,STUDY001-SUBJ0005,44,BP,Blood Pressure,110/75,mmHg,110/75,,mmHg,,END OF TREATMENT,9,2025-11-03,140
STUDY001,VS,STUDY001-SUBJ0005,45,HR,Heart Rate,85,beats/min,85,85.0,beats/min,,END OF TREATMENT,9,2025-11-03,140
STUDY001,VS,STUDY001-SUBJ0006,1,HEIGHT,Height,185.5,cm,185.5,185.5,cm,,SCREENING,1,2024-10-13,-14
STUDY001,VS,STUDY001-SUBJ0006,2,WEIGHT,Weight,70.5,kg,70.5,70.5,kg,,SCREENING,1,2024-10-13,-14
STUDY001,VS,STUDY001-SUBJ0006,3,TEMP,Temperature,36.4,C,36.4,36.4,C,,SCREENING,1,2024-10-13,-14
STUDY001,VS,STUDY001-SUBJ0006,4,BP,Blood Pressure,108/95,mmHg,108/95,,mmHg,,SCREENING,1,2024-10-13,-14
STUDY001,VS,STUDY001-SUBJ0006,5,HR,Heart Rate,66,beats/min,66,66.0,beats/min,,SCREENING,1,2024-10-13,-14
STUDY001,VS,STUDY001-SUBJ0006,6,HEIGHT,Height,185.6,cm,185.6,185.6,cm,Y,BASELINE,2,2024-10-27,1
STUDY001,VS,STUDY001-SUBJ0006,7,WEIGHT,Weight,71.7,kg,71.7,71.7,kg,Y,BASELINE,2,2024-10-27,1
STUDY001,VS,STUDY001-SUBJ0006,8,TEMP,Temperature,36.1,C,36.1,36.1,C,Y,BASELINE,2,2024-10-27,1
STUDY001,VS,STUDY001-SUBJ0006,9,BP,Blood Pressure,111/100,mmHg,111/100,,mmHg,Y,BASELINE,2,2024-10-27,1
STUDY001,VS,STUDY001-SUBJ0006,10,HR,Heart Rate,62,beats/min,62,62.0,beats/min,Y,BASELINE,2,2024-10-27,1
STUDY001,VS,STUDY001-SUBJ0006,11,HEIGHT,Height,185.4,cm,185.4,185.4,cm,,WEEK 1,3,2024-11-02,7
STUDY001,VS,STUDY001-SUBJ0006,12,WEIGHT,Weight,70.1,kg,70.1,70.1,kg,,WEEK 1,3,2024-11-02,7
STUDY001,VS,STUDY001-SUBJ0006,13,TEMP,Temperature,35.9,C,35.9,35.9,C,,WEEK 1,3,2024-11-02,7
STUDY001,VS,STUDY001-SUBJ0006,14,BP,Blood Pressure,109/91,mmHg,109/91,,mmHg,,WEEK 1,3,2024-11-02,7
STUDY001,VS,STUDY001-SUBJ0006,15,HR,Heart Rate,63,beats/min,63,63.0,beats/min,,WEEK 1,3,2024-11-02,7
STUDY001,VS,STUDY001-SUBJ0006,16,HEIGHT,Height,185.3,cm,185.3,185.3,cm,,WEEK 2,4,2024-11-09,14
STUDY001,VS,STUDY001-SUBJ0006,17,WEIGHT,Weight,71.3,kg,71.3,71.3,kg,,WEEK 2,4,2024-11-09,14
STUDY001,VS,STUDY001-SUBJ0006,18,TEMP,Temperature,35.8,C,35.8,35.8,C,,WEEK 2,4,2024-11-09,14
STUDY001,VS,STUDY001-SUBJ0006,19,BP,Blood Pressure,109/99,mmHg,109/99,,mmHg,,WEEK 2,4,2024-11-09,14
STUDY001,VS,STUDY001-SUBJ0006,20,HR,Heart Rate,67,beats/min,67,67.0,beats/min,,WEEK 2,4,2024-11-09,14
STUDY001,VS,STUDY001-SUBJ0006,21,HEIGHT,Height,185.6,cm,185.6,185.6,cm,,WEEK 4,5,2024-11-23,28
STUDY001,VS,STUDY001-SUBJ0006,22,WEIGHT,Weight,71.6,kg,71.6,71.6,kg,,WEEK 4,5,2024-11-23,28
STUDY001,VS,STUDY001-SUBJ0006,23,TEMP,Temperature,36.3,C,36.3,36.3,C,,WEEK 4,5,2024-11-23,28
STUDY001,VS,STUDY001-SUBJ0006,24,BP,Blood Pressure,112/95,mmHg,112/95,,mmHg,,WEEK 4,5,2024-11-23,28
STUDY001,VS,STUDY001-SUBJ0006,25,HR,Heart Rate,68,beats/min,68,68.0,beats/min,,WEEK 4,5,2024-11-23,28
STUDY001,VS,STUDY001-SUBJ0006,26,HEIGHT,Height,185.4,cm,185.4,185.4,cm,,WEEK 8,6,2024-12-21,56
STUDY001,VS,STUDY001-SUBJ0006,27,WEIGHT,Weight,71.0,kg,71.0,71.0,kg,,WEEK 8,6,2024-12-21,56
STUDY001,VS,STUDY001-SUBJ0006,28,TEMP,Temperature,36.4,C,36.4,36.4,C,,WEEK 8,6,2024-12-21,56
STUDY001,VS,STUDY001-SUBJ0006,29,BP,Blood Pressure,105/95,mmHg,105/95,,mmHg,,WEEK 8,6,2024-12-21,56
STUDY001,VS,STUDY001-SUBJ0006,30,HR,Heart Rate,67,beats/min,67,67.0,beats/min,,WEEK 8,6,2024-12-21,56
STUDY001,VS,STUDY001-SUBJ0006,31,HEIGHT,Height,185.5,cm,185.5,185.5,cm,,WEEK 12,7,2025-01-18,84
STUDY001,VS,STUDY001-SUBJ0006,32,WEIGHT,Weight,71.9,kg,71.9,71.9,kg,,WEEK 12,7,2025-01-18,84
STUDY001,VS,STUDY001-SUBJ0006,33,TEMP,Temperature,35.9,C,35.9,35.9,C,,WEEK 12,7,2025-01-18,84
STUDY001,VS,STUDY001-SUBJ0006,34,BP,Blood Pressure,104/98,mmHg,104/98,,mmHg,,WEEK 12,7,2025-01-18,84
STUDY001,VS,STUDY001-SUBJ0006,35,HR,Heart Rate,65,beats/min,65,65.0,beats/min,,WEEK 12,7,2025-01-18,84
STUDY001,VS,STUDY001-SUBJ0006,36,HEIGHT,Height,185.7,cm,185.7,185.7,cm,,WEEK 16,8,2025-02-15,112
STUDY001,VS,STUDY001-SUBJ0006,37,WEIGHT,Weight,72.0,kg,72.0,72.0,kg,,WEEK 16,8,2025-02-15,112
STUDY001,VS,STUDY001-SUBJ0006,38,TEMP,Temperature,35.9,C,35.9,35.9,C,,WEEK 16,8,2025-02-15,112
STUDY001,VS,STUDY001-SUBJ0006,39,BP,Blood Pressure,104/100,mmHg,104/100,,mmHg,,WEEK 16,8,2025-02-15,112
STUDY001,VS,STUDY001-SUBJ0006,40,HR,Heart Rate,62,beats/min,62,62.0,beats/min,,WEEK 16,8,2025-02-15,112
STUDY001,VS,STUDY001-SUBJ0006,41,HEIGHT,Height,185.6,cm,185.6,185.6,cm,,END OF TREATMENT,9,2025-03-15,140
STUDY001,VS,STUDY001-SUBJ0006,42,WEIGHT,Weight,70.3,kg,70.3,70.3,kg,,END OF TREATMENT,9,2025-03-15,140
STUDY001,VS,STUDY001-SUBJ0006,43,TEMP,Temperature,35.9,C,35.9,35.9,C,,END OF TREATMENT,9,2025-03-15,140
STUDY001,VS,STUDY001-SUBJ0006,44,BP,Blood Pressure,104/97,mmHg,104/97,,mmHg,,END OF TREATMENT,9,2025-03-15,140
STUDY001,VS,STUDY001-SUBJ0006,45,HR,Heart Rate,64,beats/min,64,64.0,beats/min,,END OF TREATMENT,9,2025-03-15,140
STUDY001,VS,STUDY001-SUBJ0007,1,HEIGHT,Height,166.0,cm,166.0,166.0,cm,,SCREENING,1,2025-03-31,-14
STUDY001,VS,STUDY001-SUBJ0007,2,WEIGHT,Weight,104.4,kg,104.4,104.4,kg,,SCREENING,1,2025-03-31,-14
STUDY001,VS,STUDY001-SUBJ0007,3,TEMP,Temperature,36.1,C,36.1,36.1,C,,SCREENING,1,2025-03-31,-14
STUDY001,VS,STUDY001-SUBJ0007,4,BP,Blood Pressure,102/71,mmHg,102/71,,mmHg,,SCREENING,1,2025-03-31,-14
STUDY001,VS,STUDY001-SUBJ0007,5,HR,Heart Rate,80,beats/min,80,80.0,beats/min,,SCREENING,1,2025-03-31,-14
STUDY001,VS,STUDY001-SUBJ0007,6,HEIGHT,Height,166.1,cm,166.1,166.1,cm,Y,BASELINE,2,2025-04-14,1
STUDY001,VS,STUDY001-SUBJ0007,7,WEIGHT,Weight,105.4,kg,105.4,105.4,kg,Y,BASELINE,2,2025-04-14,1
STUDY001,VS,STUDY001-SUBJ0007,8,TEMP,Temperature,36.2,C,36.2,36.2,C,Y,BASELINE,2,2025-04-14,1
STUDY001,VS,STUDY001-SUBJ0007,9,BP,Blood Pressure,102/70,mmHg,102/70,,mmHg,Y,BASELINE,2,2025-04-14,1
STUDY001,VS,STUDY001-SUBJ0007,10,HR,Heart Rate,80,beats/min,80,80.0,beats/min,Y,BASELINE,2,2025-04-14,1
STUDY001,VS,STUDY001-SUBJ0007,11,HEIGHT,Height,166.0,cm,166.0,166.0,cm,,WEEK 1,3,2025-04-20,7
STUDY001,VS,STUDY001-SUBJ0007,12,WEIGHT,Weight,104.5,kg,104.5,104.5,kg,,WEEK 1,3,2025-04-20,7
STUDY001,VS,STUDY001-SUBJ0007,13,TEMP,Temperature,36.3,C,36.3,36.3,C,,WEEK 1,3,2025-04-20,7
STUDY001,VS,STUDY001-SUBJ0007,14,BP,Blood Pressure,100/67,mmHg,100/67,,mmHg,,WEEK 1,3,2025-04-20,7
STUDY001,VS,STUDY001-SUBJ0007,15,HR,Heart Rate,74,beats/min,74,74.0,beats/min,,WEEK 1,3,2025-04-20,7
STUDY001,VS,STUDY001-SUBJ0007,16,HEIGHT,Height,166.0,cm,166.0,166.0,cm,,WEEK 2,4,2025-04-27,14
STUDY001,VS,STUDY001-SUBJ0007,17,WEIGHT,Weight,105.3,kg,105.3,105.3,kg,,WEEK 2,4,2025-04-27,14
STUDY001,VS,STUDY001-SUBJ0007,18,TEMP,Temperature,35.9,C,35.9,35.9,C,,WEEK 2,4,2025-04-27,14
STUDY001,VS,STUDY001-SUBJ0007,19,BP,Blood Pressure,101/67,mmHg,101/67,,mmHg,,WEEK 2,4,2025-04-27,14
STUDY001,VS,STUDY001-SUBJ0007,20,HR,Heart Rate,70,beats/min,70,70.0,beats/min,,WEEK 2,4,2025-04-27,14
STUDY001,VS,STUDY001-SUBJ0007,21,HEIGHT,Height,166.1,cm,166.1,166.1,cm,,WEEK 4,5,2025-05-11,28
STUDY001,VS,STUDY001-SUBJ0007,22,WEIGHT,Weight,104.1,kg,104.1,104.1,kg,,WEEK 4,5,2025-05-11,28
STUDY001,VS,STUDY001-SUBJ0007,23,TEMP,Temperature,36.5,C,36.5,36.5,C,,WEEK 4,5,2025-05-11,28
STUDY001,VS,STUDY001-SUBJ0007,24,BP,Blood Pressure,107/74,mmHg,107/74,,mmHg,,WEEK 4,5,2025-05-11,28
STUDY001,VS,STUDY001-SUBJ0007,25,HR,Heart Rate,73,beats/min,73,73.0,beats/min,,WEEK 4,5,2025-05-11,28
STUDY001,VS,STUDY001-SUBJ0007,26,HEIGHT,Height,165.8,cm,165.8,165.8,cm,,WEEK 8,6,2025-06-08,56
STUDY001,VS,STUDY001-SUBJ0007,27,WEIGHT,Weight,105.1,kg,105.1,105.1,kg,,WEEK 8,6,2025-06-08,56
STUDY001,VS,STUDY001-SUBJ0007,28,TEMP,Temperature,36.4,C,36.4,36.4,C,,WEEK 8,6,2025-06-08,56
STUDY001,VS,STUDY001-SUBJ0007,29,BP,Blood Pressure,105/73,mmHg,105/73,,mmHg,,WEEK 8,6,2025-06-08,56
STUDY001,VS,STUDY001-SUBJ0007,30,HR,Heart Rate,74,beats/min,74,74.0,beats/min,,WEEK 8,6,2025-06-08,56
STUDY001,VS,STUDY001-SUBJ0007,31,HEIGHT,Height,165.8,cm,165.8,165.8,cm,,WEEK 12,7,2025-07-06,84
STUDY001,VS,STUDY001-SUBJ0007,32,WEIGHT,Weight,103.9,kg,103.9,103.9,kg,,WEEK 12,7,2025-07-06,84
STUDY001,VS,STUDY001-SUBJ0007,33,TEMP,Temperature,36.0,C,36.0,36.0,C,,WEEK 12,7,2025-07-06,84
STUDY001,VS,STUDY001-SUBJ0007,34,BP,Blood Pressure,107/74,mmHg,107/74,,mmHg,,WEEK 12,7,2025-07-06,84
STUDY001,VS,STUDY001-SUBJ0007,35,HR,Heart Rate,71,beats/min,71,71.0,beats/min,,WEEK 12,7,2025-07-06,84
STUDY001,VS,STUDY001-SUBJ0007,36,HEIGHT,Height,166.0,cm,166.0,166.0,cm,,WEEK 16,8,2025-08-03,112
STUDY001,VS,STUDY001-SUBJ0007,37,WEIGHT,Weight,105.5,kg,105.5,105.5,kg,,WEEK 16,8,2025-08-03,112
STUDY001,VS,STUDY001-SUBJ0007,38,TEMP,Temperature,36.3,C,36.3,36.3,C,,WEEK 16,8,2025-08-03,112
STUDY001,VS,STUDY001-SUBJ0007,39,BP,Blood Pressure,104/67,mmHg,104/67,,mmHg,,WEEK 16,8,2025-08-03,112
STUDY001,VS,STUDY001-SUBJ0007,40,HR,Heart Rate,75,beats/min,75,75.0,beats/min,,WEEK 16,8,2025-08-03,112
STUDY001,VS,STUDY001-SUBJ0007,41,HEIGHT,Height,166.2,cm,166.2,166.2,cm,,END OF TREATMENT,9,2025-08-31,140
STUDY001,VS,STUDY001-SUBJ0007,42,WEIGHT,Weight,104.1,kg,104.1,104.1,kg,,END OF TREATMENT,9,2025-08-31,140
STUDY001,VS,STUDY001-SUBJ0007,43,TEMP,Temperature,36.1,C,36.1,36.1,C,,END OF TREATMENT,9,2025-08-31,140
STUDY001,VS,STUDY001-SUBJ0007,44,BP,Blood Pressure,102/68,mmHg,102/68,,mmHg,,END OF TREATMENT,9,2025-08-31,140
STUDY001,VS,STUDY001-SUBJ0007,45,HR,Heart Rate,78,beats/min,78,78.0,beats/min,,END OF TREATMENT,9,2025-08-31,140
STUDY001,VS,STUDY001-SUBJ0008,1,HEIGHT,Height,175.1,cm,175.1,175.1,cm,,SCREENING,1,2024-09-06,-14
STUDY001,VS,STUDY001-SUBJ0008,2,WEIGHT,Weight,70.2,kg,70.2,70.2,kg,,SCREENING,1,2024-09-06,-14
STUDY001,VS,STUDY001-SUBJ0008,3,TEMP,Temperature,36.0,C,36.0,36.0,C,,SCREENING,1,2024-09-06,-14
STUDY001,VS,STUDY001-SUBJ0008,4,BP,Blood Pressure,127/92,mmHg,127/92,,mmHg,,SCREENING,1,2024-09-06,-14
STUDY001,VS,STUDY001-SUBJ0008,5,HR,Heart Rate,74,beats/min,74,74.0,beats/min,,SCREENING,1,2024-09-06,-14
STUDY001,VS,STUDY001-SUBJ0008,6,HEIGHT,Height,175.0,cm,175.0,175.0,cm,Y,BASELINE,2,2024-09-20,1
STUDY001,VS,STUDY001-SUBJ0008,7,WEIGHT,Weight,70.1,kg,70.1,70.1,kg,Y,BASELINE,2,2024-09-20,1
STUDY001,VS,STUDY001-SUBJ0008,8,TEMP,Temperature,35.8,C,35.8,35.8,C,Y,BASELINE,2,2024-09-20,1
STUDY001,VS,STUDY001-SUBJ0008,9,BP,Blood Pressure,135/92,mmHg,135/92,,mmHg,Y,BASELINE,2,2024-09-20,1
STUDY001,VS,STUDY001-SUBJ0008,10,HR,Heart Rate,74,beats/min,74,74.0,beats/min,Y,BASELINE,2,2024-09-20,1
STUDY001,VS,STUDY001-SUBJ0008,11,HEIGHT,Height,175.2,cm,175.2,175.2,cm,,WEEK 1,3,2024-09-26,7
STUDY001,VS,STUDY001-SUBJ0008,12,WEIGHT,Weight,70.3,kg,70.3,70.3,kg,,WEEK 1,3,2024-09-26,7
STUDY001,VS,STUDY001-SUBJ0008,13,TEMP,Temperature,36.1,C,36.1,36.1,C,,WEEK 1,3,2024-09-26,7
STUDY001,VS,STUDY001-SUBJ0008,14,BP,Blood Pressure,128/93,mmHg,128/93,,mmHg,,WEEK 1,3,2024-09-26,7
STUDY001,VS,STUDY001-SUBJ0008,15,HR,Heart Rate,68,beats/min,68,68.0,beats/min,,WEEK 1,3,2024-09-26,7
STUDY001,VS,STUDY001-SUBJ0008,16,HEIGHT,Height,175.3,cm,175.3,175.3,cm,,WEEK 2,4,2024-10-03,14
STUDY001,VS,STUDY001-SUBJ0008,17,WEIGHT,Weight,70.0,kg,70.0,70.0,kg,,WEEK 2,4,2024-10-03,14
STUDY001,VS,STUDY001-SUBJ0008,18,TEMP,Temperature,36.2,C,36.2,36.2,C,,WEEK 2,4,2024-10-03,14
STUDY001,VS,STUDY001-SUBJ0008,19,BP,Blood Pressure,128/91,mmHg,128/91,,mmHg,,WEEK 2,4,2024-10-03,14
STUDY001,VS,STUDY001-SUBJ0008,20,HR,Heart Rate,71,beats/min,71,71.0,beats/min,,WEEK 2,4,2024-10-03,14
STUDY001,VS,STUDY001-SUBJ0008,21,HEIGHT,Height,175.2,cm,175.2,175.2,cm,,WEEK 4,5,2024-10-17,28
STUDY001,VS,STUDY001-SUBJ0008,22,WEIGHT,Weight,70.0,kg,70.0,70.0,kg,,WEEK 4,5,2024-10-17,28
STUDY001,VS,STUDY001-SUBJ0008,23,TEMP,Temperature,35.9,C,35.9,35.9,C,,WEEK 4,5,2024-10-17,28
STUDY001,VS,STUDY001-SUBJ0008,24,BP,Blood Pressure,132/96,mmHg,132/96,,mmHg,,WEEK 4,5,2024-10-17,28
STUDY001,VS,STUDY001-SUBJ0008,25,HR,Heart Rate,72,beats/min,72,72.0,beats/min,,WEEK 4,5,2024-10-17,28
STUDY001,VS,STUDY001-SUBJ0008,26,HEIGHT,Height,175.0,cm,175.0,175.0,cm,,WEEK 8,6,2024-11-14,56
STUDY001,VS,STUDY001-SUBJ0008,27,WEIGHT,Weight,69.7,kg,69.7,69.7,kg,,WEEK 8,6,2024-11-14,56
STUDY001,VS,STUDY001-SUBJ0008,28,TEMP,Temperature,35.8,C,35.8,35.8,C,,WEEK 8,6,2024-11-14,56
STUDY001,VS,STUDY001-SUBJ0008,29,BP,Blood Pressure,135/92,mmHg,135/92,,mmHg,,WEEK 8,6,2024-11-14,56
STUDY001,VS,STUDY001-SUBJ0008,30,HR,Heart Rate,69,beats/min,69,69.0,beats/min,,WEEK 8,6,2024-11-14,56
STUDY001,VS,STUDY001-SUBJ0008,31,HEIGHT,Height,175.2,cm,175.2,175.2,cm,,WEEK 12,7,2024-12-12,84
STUDY001,VS,STUDY001-SUBJ0008,32,WEIGHT,Weight,71.0,kg,71.0,71.0,kg,,WEEK 12,7,2024-12-12,84
STUDY001,VS,STUDY001-SUBJ0008,33,TEMP,Temperature,35.8,C,35.8,35.8,C,,WEEK 12,7,2024-12-12,84
STUDY001,VS,STUDY001-SUBJ0008,34,BP,Blood Pressure,131/90,mmHg,131/90,,mmHg,,WEEK 12,7,2024-12-12,84
STUDY001,VS,STUDY001-SUBJ0008,35,HR,Heart Rate,75,beats/min,75,75.0,beats/min,,WEEK 12,7,2024-12-12,84
STUDY001,VS,STUDY001-SUBJ0008,36,HEIGHT,Height,175.2,cm,175.2,175.2,cm,,WEEK 16,8,2025-01-09,112
STUDY001,VS,STUDY001-SUBJ0008,37,WEIGHT,Weight,71.4,kg,71.4,71.4,kg,,WEEK 16,8,2025-01-09,112
STUDY001,VS,STUDY001-SUBJ0008,38,TEMP,Temperature,36.2,C,36.2,36.2,C,,WEEK 16,8,2025-01-09,112
STUDY001,VS,STUDY001-SUBJ0008,39,BP,Blood Pressure,129/97,mmHg,129/97,,mmHg,,WEEK 16,8,2025-01-09,112
STUDY001,VS,STUDY001-SUBJ0008,40,HR,Heart Rate,70,beats/min,70,70.0,beats/min,,WEEK 16,8,2025-01-09,112
STUDY001,VS,STUDY001-SUBJ0008,41,HEIGHT,Height,175.2,cm,175.2,175.2,cm,,END OF TREATMENT,9,2025-02-06,140
STUDY001,VS,STUDY001-SUBJ0008,42,WEIGHT,Weight,70.5,kg,70.5,70.5,kg,,END OF TREATMENT,9,2025-02-06,140
STUDY001,VS,STUDY001-SUBJ0008,43,TEMP,Temperature,36.2,C,36.2,36.2,C,,END OF TREATMENT,9,2025-02-06,140
STUDY001,VS,STUDY001-SUBJ0008,44,BP,Blood Pressure,136/98,mmHg,136/98,,mmHg,,END OF TREATMENT,9,2025-02-06,140
STUDY001,VS,STUDY001-SUBJ0008,45,HR,Heart Rate,73,beats/min,73,73.0,beats/min,,END OF TREATMENT,9,2025-02-06,140
STUDY001,VS,STUDY001-SUBJ0009,1,HEIGHT,Height,181.2,cm,181.2,181.2,cm,,SCREENING,1,2024-12-05,-14
STUDY001,VS,STUDY001-SUBJ0009,2,WEIGHT,Weight,103.6,kg,103.6,103.6,kg,,SCREENING,1,2024-12-05,-14
STUDY001,VS,STUDY001-SUBJ0009,3,TEMP,Temperature,36.6,C,36.6,36.6,C,,SCREENING,1,2024-12-05,-14
STUDY001,VS,STUDY001-SUBJ0009,4,BP,Blood Pressure,139/71,mmHg,139/71,,mmHg,,SCREENING,1,2024-12-05,-14
STUDY001,VS,STUDY001-SUBJ0009,5,HR,Heart Rate,71,beats/min,71,71.0,beats/min,,SCREENING,1,2024-12-05,-14
STUDY001,VS,STUDY001-SUBJ0009,6,HEIGHT,Height,181.1,cm,181.1,181.1,cm,Y,BASELINE,2,2024-12-19,1
STUDY001,VS,STUDY001-SUBJ0009,7,WEIGHT,Weight,102.9,kg,102.9,102.9,kg,Y,BASELINE,2,2024-12-19,1
STUDY001,VS,STUDY001-SUBJ0009,8,TEMP,Temperature,36.8,C,36.8,36.8,C,Y,BASELINE,2,2024-12-19,1
STUDY001,VS,STUDY001-SUBJ0009,9,BP,Blood Pressure,133/74,mmHg,133/74,,mmHg,Y,BASELINE,2,2024-12-19,1
STUDY001,VS,STUDY001-SUBJ0009,10,HR,Heart Rate,74,beats/min,74,74.0,beats/min,Y,BASELINE,2,2024-12-19,1
STUDY001,VS,STUDY001-SUBJ0009,11,HEIGHT,Height,181.1,cm,181.1,181.1,cm,,WEEK 1,3,2024-12-25,7
STUDY001,VS,STUDY001-SUBJ0009,12,WEIGHT,Weight,101.9,kg,101.9,101.9,kg,,WEEK 1,3,2024-12-25,7
STUDY001,VS,STUDY001-SUBJ0009,13,TEMP,Temperature,36.7,C,36.7,36.7,C,,WEEK 1,3,2024-12-25,7
STUDY001,VS,STUDY001-SUBJ0009,14,BP,Blood Pressure,142/77,mmHg,142/77,,mmHg,,WEEK 1,3,2024-12-25,7
STUDY001,VS,STUDY001-SUBJ0009,15,HR,Heart Rate,76,beats/min,76,76.0,beats/min,,WEEK 1,3,2024-12-25,7
STUDY001,VS,STUDY001-SUBJ0009,16,HEIGHT,Height,181.3,cm,181.3,181.3,cm,,WEEK 2,4,2025-01-01,14
STUDY001,VS,STUDY001-SUBJ0009,17,WEIGHT,Weight,102.6,kg,102.6,102.6,kg,,WEEK 2,4,2025-01-01,14
STUDY001,VS,STUDY001-SUBJ0009,18,TEMP,Temperature,37.1,C,37.1,37.1,C,,WEEK 2,4,2025-01-01,14
STUDY001,VS,STUDY001-SUBJ0009,19,BP,Blood Pressure,133/78,mmHg,133/78,,mmHg,,WEEK 2,4,2025-01-01,14
STUDY001,VS,STUDY001-SUBJ0009,20,HR,Heart Rate,75,beats/min,75,75.0,beats/min,,WEEK 2,4,2025-01-01,14
STUDY001,VS,STUDY001-SUBJ0009,21,HEIGHT,Height,181.3,cm,181.3,181.3,cm,,WEEK 4,5,2025-01-15,28
STUDY001,VS,STUDY001-SUBJ0009,22,WEIGHT,Weight,102.3,kg,102.3,102.3,kg,,WEEK 4,5,2025-01-15,28
STUDY001,VS,STUDY001-SUBJ0009,23,TEMP,Temperature,36.7,C,36.7,36.7,C,,WEEK 4,5,2025-01-15,28
STUDY001,VS,STUDY001-SUBJ0009,24,BP,Blood Pressure,135/76,mmHg,135/76,,mmHg,,WEEK 4,5,2025-01-15,28
STUDY001,VS,STUDY001-SUBJ0009,25,HR,Heart Rate,74,beats/min,74,74.0,beats/min,,WEEK 4,5,2025-01-15,28
STUDY001,VS,STUDY001-SUBJ0009,26,HEIGHT,Height,181.2,cm,181.2,181.2,cm,,WEEK 8,6,2025-02-12,56
STUDY001,VS,STUDY001-SUBJ0009,27,WEIGHT,Weight,102.3,kg,102.3,102.3,kg,,WEEK 8,6,2025-02-12,56
STUDY001,VS,STUDY001-SUBJ0009,28,TEMP,Temperature,36.7,C,36.7,36.7,C,,WEEK 8,6,2025-02-12,56
STUDY001,VS,STUDY001-SUBJ0009,29,BP,Blood Pressure,139/75,mmHg,139/75,,mmHg,,WEEK 8,6,2025-02-12,56
STUDY001,VS,STUDY001-SUBJ0009,30,HR,Heart Rate,70,beats/min,70,70.0,beats/min,,WEEK 8,6,2025-02-12,56
STUDY001,VS,STUDY001-SUBJ0009,31,HEIGHT,Height,181.3,cm,181.3,181.3,cm,,WEEK 12,7,2025-03-12,84
STUDY001,VS,STUDY001-SUBJ0009,32,WEIGHT,Weight,102.1,kg,102.1,102.1,kg,,WEEK 12,7,2025-03-12,84
STUDY001,VS,STUDY001-SUBJ0009,33,TEMP,Temperature,37.1,C,37.1,37.1,C,,WEEK 12,7,2025-03-12,84
STUDY001,VS,STUDY001-SUBJ0009,34,BP,Blood Pressure,132/81,mmHg,132/81,,mmHg,,WEEK 12,7,2025-03-12,84
STUDY001,VS,STUDY001-SUBJ0009,35,HR,Heart Rate,73,beats/min,73,73.0,beats/min,,WEEK 12,7,2025-03-12,84
STUDY001,VS,STUDY001-SUBJ0009,36,HEIGHT,Height,181.3,cm,181.3,181.3,cm,,WEEK 16,8,2025-04-09,112
STUDY001,VS,STUDY001-SUBJ0009,37,WEIGHT,Weight,102.9,kg,102.9,102.9,kg,,WEEK 16,8,2025-04-09,112
STUDY001,VS,STUDY001-SUBJ0009,38,TEMP,Temperature,37.1,C,37.1,37.1,C,,WEEK 16,8,2025-04-09,112
STUDY001,VS,STUDY001-SUBJ0009,39,BP,Blood Pressure,141/77,mmHg,141/77,,mmHg,,WEEK 16,8,2025-04-09,112
STUDY001,VS,STUDY001-SUBJ0009,40,HR,Heart Rate,72,beats/min,72,72.0,beats/min,,WEEK 16,8,2025-04-09,112
STUDY001,VS,STUDY001-SUBJ0009,41,HEIGHT,Height,181.3,cm,181.3,181.3,cm,,END OF TREATMENT,9,2025-05-07,140
STUDY001,VS,STUDY001-SUBJ0009,42,WEIGHT,Weight,102.6,kg,102.6,102.6,kg,,END OF TREATMENT,9,2025-05-07,140
STUDY001,VS,STUDY001-SUBJ0009,43,TEMP,Temperature,37.0,C,37.0,37.0,C,,END OF TREATMENT,9,2025-05-07,140
STUDY001,VS,STUDY001-SUBJ0009,44,BP,Blood Pressure,136/78,mmHg,136/78,,mmHg,,END OF TREATMENT,9,2025-05-07,140
STUDY001,VS,STUDY001-SUBJ0009,45,HR,Heart Rate,72,beats/min,72,72.0,beats/min,,END OF TREATMENT,9,2025-05-07,140
STUDY001,VS,STUDY001-SUBJ0010,1,HEIGHT,Height,156.1,cm,156.1,156.1,cm,,SCREENING,1,2024-09-14,-14
STUDY001,VS,STUDY001-SUBJ0010,2,WEIGHT,Weight,71.3,kg,71.3,71.3,kg,,SCREENING,1,2024-09-14,-14
STUDY001,VS,STUDY001-SUBJ0010,3,TEMP,Temperature,36.3,C,36.3,36.3,C,,SCREENING,1,2024-09-14,-14
STUDY001,VS,STUDY001-SUBJ0010,4,BP,Blood Pressure,124/101,mmHg,124/101,,mmHg,,SCREENING,1,2024-09-14,-14
STUDY001,VS,STUDY001-SUBJ0010,5,HR,Heart Rate,83,beats/min,83,83.0,beats/min,,SCREENING,1,2024-09-14,-14
STUDY001,VS,STUDY001-SUBJ0010,6,HEIGHT,Height,156.3,cm,156.3,156.3,cm,Y,BASELINE,2,2024-09-28,1
STUDY001,VS,STUDY001-SUBJ0010,7,WEIGHT,Weight,71.5,kg,71.5,71.5,kg,Y,BASELINE,2,2024-09-28,1
STUDY001,VS,STUDY001-SUBJ0010,8,TEMP,Temperature,36.2,C,36.2,36.2,C,Y,BASELINE,2,2024-09-28,1
STUDY001,VS,STUDY001-SUBJ0010,9,BP,Blood Pressure,121/94,mmHg,121/94,,mmHg,Y,BASELINE,2,2024-09-28,1
STUDY001,VS,STUDY001-SUBJ0010,10,HR,Heart Rate,84,beats/min,84,84.0,beats/min,Y,BASELINE,2,2024-09-28,1
STUDY001,VS,STUDY001-SUBJ0010,11,HEIGHT,Height,155.9,cm,155.9,155.9,cm,,WEEK 1,3,2024-10-04,7
STUDY001,VS,STUDY001-SUBJ0010,12,WEIGHT,Weight,69.9,kg,69.9,69.9,kg,,WEEK 1,3,2024-10-04,7
STUDY001,VS,STUDY001-SUBJ0010,13,TEMP,Temperature,36.2,C,36.2,36.2,C,,WEEK 1,3,2024-10-04,7
STUDY001,VS,STUDY001-SUBJ0010,14,BP,Blood Pressure,121/98,mmHg,121/98,,mmHg,,WEEK 1,3,2024-10-04,7
STUDY001,VS,STUDY001-SUBJ0010,15,HR,Heart Rate,88,beats/min,88,88.0,beats/min,,WEEK 1,3,2024-10-04,7
STUDY001,VS,STUDY001-SUBJ0010,16,HEIGHT,Height,156.3,cm,156.3,156.3,cm,,WEEK 2,4,2024-10-11,14
STUDY001,VS,STUDY001-SUBJ0010,17,WEIGHT,Weight,71.3,kg,71.3,71.3,kg,,WEEK 2,4,2024-10-11,14
STUDY001,VS,STUDY001-SUBJ0010,18,TEMP,Temperature,36.5,C,36.5,36.5,C,,WEEK 2,4,2024-10-11,14
STUDY001,VS,STUDY001-SUBJ0010,19,BP,Blood Pressure,120/100,mmHg,120/100,,mmHg,,WEEK 2,4,2024-10-11,14
STUDY001,VS,STUDY001-SUBJ0010,20,HR,Heart Rate,80,beats/min,80,80.0,beats/min,,WEEK 2,4,2024-10-11,14
STUDY001,VS,STUDY001-SUBJ0010,21,HEIGHT,Height,156.3,cm,156.3,156.3,cm,,WEEK 4,5,2024-10-25,28
STUDY001,VS,STUDY001-SUBJ0010,22,WEIGHT,Weight,70.1,kg,70.1,70.1,kg,,WEEK 4,5,2024-10-25,28
STUDY001,VS,STUDY001-SUBJ0010,23,TEMP,Temperature,36.3,C,36.3,36.3,C,,WEEK 4,5,2024-10-25,28
STUDY001,VS,STUDY001-SUBJ0010,24,BP,Blood Pressure,119/95,mmHg,119/95,,mmHg,,WEEK 4,5,2024-10-25,28
STUDY001,VS,STUDY001-SUBJ0010,25,HR,Heart Rate,83,beats/min,83,83.0,beats/min,,WEEK 4,5,2024-10-25,28
STUDY001,VS,STUDY001-SUBJ0010,26,HEIGHT,Height,156.3,cm,156.3,156.3,cm,,WEEK 8,6,2024-11-22,56
STUDY001,VS,STUDY001-SUBJ0010,27,WEIGHT,Weight,71.5,kg,71.5,71.5,kg,,WEEK 8,6,2024-11-22,56
STUDY001,VS,STUDY001-SUBJ0010,28,TEMP,Temperature,36.4,C,36.4,36.4,C,,WEEK 8,6,2024-11-22,56
STUDY001,VS,STUDY001-SUBJ0010,29,BP,Blood Pressure,122/95,mmHg,122/95,,mmHg,,WEEK 8,6,2024-11-22,56
STUDY001,VS,STUDY001-SUBJ0010,30,HR,Heart Rate,82,beats/min,82,82.0,beats/min,,WEEK 8,6,2024-11-22,56
STUDY001,VS,STUDY001-SUBJ0010,31,HEIGHT,Height,156.1,cm,156.1,156.1,cm,,WEEK 12,7,2024-12-20,84
STUDY001,VS,STUDY001-SUBJ0010,32,WEIGHT,Weight,71.3,kg,71.3,71.3,kg,,WEEK 12,7,2024-12-20,84
STUDY001,VS,STUDY001-SUBJ0010,33,TEMP,Temperature,36.7,C,36.7,36.7,C,,WEEK 12,7,2024-12-20,84
STUDY001,VS,STUDY001-SUBJ0010,34,BP,Blood Pressure,122/97,mmHg,122/97,,mmHg,,WEEK 12,7,2024-12-20,84
STUDY001,VS,STUDY001-SUBJ0010,35,HR,Heart Rate,82,beats/min,82,82.0,beats/min,,WEEK 12,7,2024-12-20,84
STUDY001,VS,STUDY001-SUBJ0010,36,HEIGHT,Height,156.2,cm,156.2,156.2,cm,,WEEK 16,8,2025-01-17,112
STUDY001,VS,STUDY001-SUBJ0010,37,WEIGHT,Weight,71.2,kg,71.2,71.2,kg,,WEEK 16,8,2025-01-17,112
STUDY001,VS,STUDY001-SUBJ0010,38,TEMP,Temperature,36.5,C,36.5,36.5,C,,WEEK 16,8,2025-01-17,112
STUDY001,VS,STUDY001-SUBJ0010,39,BP,Blood Pressure,120/98,mmHg,120/98,,mmHg,,WEEK 16,8,2025-01-17,112
STUDY001,VS,STUDY001-SUBJ0010,40,HR,Heart Rate,83,beats/min,83,83.0,beats/min,,WEEK 16,8,2025-01-17,112
STUDY001,VS,STUDY001-SUBJ0010,41,HEIGHT,Height,156.1,cm,156.1,156.1,cm,,END OF TREATMENT,9,2025-02-14,140
STUDY001,VS,STUDY001-SUBJ0010,42,WEIGHT,Weight,71.4,kg,71.4,71.4,kg,,END OF TREATMENT,9,2025-02-14,140
STUDY001,VS,STUDY001-SUBJ0010,43,TEMP,Temperature,36.3,C,36.3,36.3,C,,END OF TREATMENT,9,2025-02-14,140
STUDY001,VS,STUDY001-SUBJ0010,44,BP,Blood Pressure,119/97,mmHg,119/97,,mmHg,,END OF TREATMENT,9,2025-02-14,140
STUDY001,VS,STUDY001-SUBJ0010,45,HR,Heart Rate,87,beats/min,87,87.0,beats/min,,END OF TREATMENT,9,2025-02-14,140
