STUDYID,DOMAIN,USUBJID,LBSEQ,LBREFID,LBTESTCD,LBTEST,LBCAT,LBORRES,LBORRESU,LBORNRLO,LBORNRHI,LBSTRESC,LBSTRESN,LBSTRESU,LBSTNRLO,LBSTNRHI,LBNRIND,LBBLFL,VISIT,VISITNUM,LBDTC,LBDY
STUDY001,LB,STUDY001-SUBJ0001,1,L00001,HGB,Hemoglobin,HEMATOLOGY,15.27,g/dL,13.5,17.5,15.27,15.27,g/dL,13.5,17.5,NORMAL,,SCREENING,1,2024-09-07,-14
STUDY001,LB,STUDY001-SUBJ0001,2,L00002,HCT,Hematocrit,HEMATOLOGY,46.37,%,41.0,51.0,46.37,46.37,%,41.0,51.0,NORMAL,,SCREENING,1,2024-09-07,-14
STUDY001,LB,STUDY001-SUBJ0001,3,L00003,WBC,White Blood Cell Count,HEMATOLOGY,10.19,10^9/L,4.5,11.0,10.19,10.19,10^9/L,4.5,11.0,NORMAL,,SCREENING,1,2024-09-07,-14
STUDY001,LB,STUDY001-SUBJ0001,4,L00004,PLT,Platelet Count,HEMATOLOGY,298.02,10^9/L,150.0,450.0,298.02,298.02,10^9/L,150.0,450.0,NORMAL,,SCREENING,1,2024-09-07,-14
STUDY001,LB,STUDY001-SUBJ0001,5,L00005,GLUC,Glucose,CHEMISTRY,86.86,mg/dL,70.0,100.0,86.86,86.86,mg/dL,70.0,100.0,NORMAL,,SCREENING,1,2024-09-07,-14
STUDY001,LB,STUDY001-SUBJ0001,6,L00006,BUN,Blood Urea Nitrogen,CHEMISTRY,13.11,mg/dL,7.0,20.0,13.11,13.11,mg/dL,7.0,20.0,NORMAL,,SCREENING,1,2024-09-07,-14
STUDY001,LB,STUDY001-SUBJ0001,7,L00007,CREAT,Creatinine,CHEMISTRY,0.91,mg/dL,0.6,1.2,0.91,0.91,mg/dL,0.6,1.2,NORMAL,,SCREENING,1,2024-09-07,-14
STUDY001,LB,STUDY001-SUBJ0001,8,L00008,BILI,Total Bilirubin,CHEMISTRY,0.47,mg/dL,0.1,1.2,0.47,0.47,mg/dL,0.1,1.2,NORMAL,,SCREENING,1,2024-09-07,-14
STUDY001,LB,STUDY001-SUBJ0001,9,L00009,ALP,Alkaline Phosphatase,CHEMISTRY,78.18,U/L,44.0,147.0,78.18,78.18,U/L,44.0,147.0,NORMAL,,SCREENING,1,2024-09-07,-14
STUDY001,LB,STUDY001-SUBJ0001,10,L00010,ALT,Alanine Aminotransferase,CHEMISTRY,14.78,U/L,7.0,56.0,14.78,14.78,U/L,7.0,56.0,NORMAL,,SCREENING,1,2024-09-07,-14
STUDY001,LB,STUDY001-SUBJ0001,11,L00011,HGB,Hemoglobin,HEMATOLOGY,15.27,g/dL,13.5,17.5,15.27,15.27,g/dL,13.5,17.5,NORMAL,Y,BASELINE,2,2024-09-21,1
STUDY001,LB,STUDY001-SUBJ0001,12,L00012,HCT,Hematocrit,HEMATOLOGY,46.59,%,41.0,51.0,46.59,46.59,%,41.0,51.0,NORMAL,Y,BASELINE,2,2024-09-21,1
STUDY001,LB,STUDY001-SUBJ0001,13,L00013,WBC,White Blood Cell Count,HEMATOLOGY,10.49,10^9/L,4.5,11.0,10.49,10.49,10^9/L,4.5,11.0,NORMAL,Y,BASELINE,2,2024-09-21,1
STUDY001,LB,STUDY001-SUBJ0001,14,L00014,PLT,Platelet Count,HEMATOLOGY,295.15,10^9/L,150.0,450.0,295.15,295.15,10^9/L,150.0,450.0,NORMAL,Y,BASELINE,2,2024-09-21,1
STUDY001,LB,STUDY001-SUBJ0001,15,L00015,GLUC,Glucose,CHEMISTRY,86.65,mg/dL,70.0,100.0,86.65,86.65,mg/dL,70.0,100.0,NORMAL,Y,BASELINE,2,2024-09-21,1
STUDY001,LB,STUDY001-SUBJ0001,16,L00016,BUN,Blood Urea Nitrogen,CHEMISTRY,13.46,mg/dL,7.0,20.0,13.46,13.46,mg/dL,7.0,20.0,NORMAL,Y,BASELINE,2,2024-09-21,1
STUDY001,LB,STUDY001-SUBJ0001,17,L00017,CREAT,Creatinine,CHEMISTRY,0.91,mg/dL,0.6,1.2,0.91,0.91,mg/dL,0.6,1.2,NORMAL,Y,BASELINE,2,2024-09-21,1
STUDY001,LB,STUDY001-SUBJ0001,18,L00018,BILI,Total Bilirubin,CHEMISTRY,0.43,mg/dL,0.1,1.2,0.43,0.43,mg/dL,0.1,1.2,NORMAL,Y,BASELINE,2,2024-09-21,1
STUDY001,LB,STUDY001-SUBJ0001,19,L00019,ALP,Alkaline Phosphatase,CHEMISTRY,79.57,U/L,44.0,147.0,79.57,79.57,U/L,44.0,147.0,NORMAL,Y,BASELINE,2,2024-09-21,1
STUDY001,LB,STUDY001-SUBJ0001,20,L00020,ALT,Alanine Aminotransferase,CHEMISTRY,17.22,U/L,7.0,56.0,17.22,17.22,U/L,7.0,56.0,NORMAL,Y,BASELINE,2,2024-09-21,1
STUDY001,LB,STUDY001-SUBJ0001,21,L00021,HGB,Hemoglobin,HEMATOLOGY,15.46,g/dL,13.5,17.5,15.46,15.46,g/dL,13.5,17.5,NORMAL,,WEEK 1,3,2024-09-27,7
STUDY001,LB,STUDY001-SUBJ0001,22,L00022,HCT,Hematocrit,HEMATOLOGY,46.31,%,41.0,51.0,46.31,46.31,%,41.0,51.0,NORMAL,,WEEK 1,3,2024-09-27,7
STUDY001,LB,STUDY001-SUBJ0001,23,L00023,WBC,White Blood Cell Count,HEMATOLOGY,10.42,10^9/L,4.5,11.0,10.42,10.42,10^9/L,4.5,11.0,NORMAL,,WEEK 1,3,2024-09-27,7
STUDY001,LB,STUDY001-SUBJ0001,24,L00024,PLT,Platelet Count,HEMATOLOGY,293.07,10^9/L,150.0,450.0,293.07,293.07,10^9/L,150.0,450.0,NORMAL,,WEEK 1,3,2024-09-27,7
STUDY001,LB,STUDY001-SUBJ0001,25,L00025,GLUC,Glucose,CHEMISTRY,84.54,mg/dL,70.0,100.0,84.54,84.54,mg/dL,70.0,100.0,NORMAL,,WEEK 1,3,2024-09-27,7
STUDY001,LB,STUDY001-SUBJ0001,26,L00026,BUN,Blood Urea Nitrogen,CHEMISTRY,13.17,mg/dL,7.0,20.0,13.17,13.17,mg/dL,7.0,20.0,NORMAL,,WEEK 1,3,2024-09-27,7
STUDY001,LB,STUDY001-SUBJ0001,27,L00027,CREAT,Creatinine,CHEMISTRY,0.87,mg/dL,0.6,1.2,0.87,0.87,mg/dL,0.6,1.2,NORMAL,,WEEK 1,3,2024-09-27,7
STUDY001,LB,STUDY001-SUBJ0001,28,L00028,BILI,Total Bilirubin,CHEMISTRY,0.44,mg/dL,0.1,1.2,0.44,0.44,mg/dL,0.1,1.2,NORMAL,,WEEK 1,3,2024-09-27,7
STUDY001,LB,STUDY001-SUBJ0001,29,L00029,ALP,Alkaline Phosphatase,CHEMISTRY,83.2,U/L,44.0,147.0,83.2,83.2,U/L,44.0,147.0,NORMAL,,WEEK 1,3,2024-09-27,7
STUDY001,LB,STUDY001-SUBJ0001,30,L00030,ALT,Alanine Aminotransferase,CHEMISTRY,16.22,U/L,7.0,56.0,16.22,16.22,U/L,7.0,56.0,NORMAL,,WEEK 1,3,2024-09-27,7
STUDY001,LB,STUDY001-SUBJ0001,31,L00031,HGB,Hemoglobin,HEMATOLOGY,15.37,g/dL,13.5,17.5,15.37,15.37,g/dL,13.5,17.5,NORMAL,,WEEK 2,4,2024-10-04,14
STUDY001,LB,STUDY001-SUBJ0001,32,L00032,HCT,Hematocrit,HEMATOLOGY,46.79,%,41.0,51.0,46.79,46.79,%,41.0,51.0,NORMAL,,WEEK 2,4,2024-10-04,14
STUDY001,LB,STUDY001-SUBJ0001,33,L00033,WBC,White Blood Cell Count,HEMATOLOGY,10.14,10^9/L,4.5,11.0,10.14,10.14,10^9/L,4.5,11.0,NORMAL,,WEEK 2,4,2024-10-04,14
STUDY001,LB,STUDY001-SUBJ0001,34,L00034,PLT,Platelet Count,HEMATOLOGY,295.39,10^9/L,150.0,450.0,295.39,295.39,10^9/L,150.0,450.0,NORMAL,,WEEK 2,4,2024-10-04,14
STUDY001,LB,STUDY001-SUBJ0001,35,L00035,GLUC,Glucose,CHEMISTRY,84.64,mg/dL,70.0,100.0,84.64,84.64,mg/dL,70.0,100.0,NORMAL,,WEEK 2,4,2024-10-04,14
STUDY001,LB,STUDY001-SUBJ0001,36,L00036,BUN,Blood Urea Nitrogen,CHEMISTRY,13.65,mg/dL,7.0,20.0,13.65,13.65,mg/dL,7.0,20.0,NORMAL,,WEEK 2,4,2024-10-04,14
STUDY001,LB,STUDY001-SUBJ0001,37,L00037,CREAT,Creatinine,CHEMISTRY,0.92,mg/dL,0.6,1.2,0.92,0.92,mg/dL,0.6,1.2,NORMAL,,WEEK 2,4,2024-10-04,14
STUDY001,LB,STUDY001-SUBJ0001,38,L00038,BILI,Total Bilirubin,CHEMISTRY,0.45,mg/dL,0.1,1.2,0.45,0.45,mg/dL,0.1,1.2,NORMAL,,WEEK 2,4,2024-10-04,14
STUDY001,LB,STUDY001-SUBJ0001,39,L00039,ALP,Alkaline Phosphatase,CHEMISTRY,78.89,U/L,44.0,147.0,78.89,78.89,U/L,44.0,147.0,NORMAL,,WEEK 2,4,2024-10-04,14
STUDY001,LB,STUDY001-SUBJ0001,40,L00040,ALT,Alanine Aminotransferase,CHEMISTRY,16.5,U/L,7.0,56.0,16.5,16.5,U/L,7.0,56.0,NORMAL,,WEEK 2,4,2024-10-04,14
STUDY001,LB,STUDY001-SUBJ0001,41,L00041,HGB,Hemoglobin,HEMATOLOGY,15.39,g/dL,13.5,17.5,15.39,15.39,g/dL,13.5,17.5,NORMAL,,WEEK 4,5,2024-10-18,28
STUDY001,LB,STUDY001-SUBJ0001,42,L00042,HCT,Hematocrit,HEMATOLOGY,46.31,%,41.0,51.0,46.31,46.31,%,41.0,51.0,NORMAL,,WEEK 4,5,2024-10-18,28
STUDY001,LB,STUDY001-SUBJ0001,43,L00043,WBC,White Blood Cell Count,HEMATOLOGY,10.37,10^9/L,4.5,11.0,10.37,10.37,10^9/L,4.5,11.0,NORMAL,,WEEK 4,5,2024-10-18,28
STUDY001,LB,STUDY001-SUBJ0001,44,L00044,PLT,Platelet Count,HEMATOLOGY,291.9,10^9/L,150.0,450.0,291.9,291.9,10^9/L,150.0,450.0,NORMAL,,WEEK 4,5,2024-10-18,28
STUDY001,LB,STUDY001-SUBJ0001,45,L00045,GLUC,Glucose,CHEMISTRY,84.53,mg/dL,70.0,100.0,84.53,84.53,mg/dL,70.0,100.0,NORMAL,,WEEK 4,5,2024-10-18,28
STUDY001,LB,STUDY001-SUBJ0001,46,L00046,BUN,Blood Urea Nitrogen,CHEMISTRY,13.35,mg/dL,7.0,20.0,13.35,13.35,mg/dL,7.0,20.0,NORMAL,,WEEK 4,5,2024-10-18,28
STUDY001,LB,STUDY001-SUBJ0001,47,L00047,CREAT,Creatinine,CHEMISTRY,0.94,mg/dL,0.6,1.2,0.94,0.94,mg/dL,0.6,1.2,NORMAL,,WEEK 4,5,2024-10-18,28
STUDY001,LB,STUDY001-SUBJ0001,48,L00048,BILI,Total Bilirubin,CHEMISTRY,0.44,mg/dL,0.1,1.2,0.44,0.44,mg/dL,0.1,1.2,NORMAL,,WEEK 4,5,2024-10-18,28
STUDY001,LB,STUDY001-SUBJ0001,49,L00049,ALP,Alkaline Phosphatase,CHEMISTRY,84.36,U/L,44.0,147.0,84.36,84.36,U/L,44.0,147.0,NORMAL,,WEEK 4,5,2024-10-18,28
STUDY001,LB,STUDY001-SUBJ0001,50,L00050,ALT,Alanine Aminotransferase,CHEMISTRY,17.66,U/L,7.0,56.0,17.66,17.66,U/L,7.0,56.0,NORMAL,,WEEK 4,5,2024-10-18,28
STUDY001,LB,STUDY001-SUBJ0001,51,L00051,HGB,Hemoglobin,HEMATOLOGY,15.33,g/dL,13.5,17.5,15.33,15.33,g/dL,13.5,17.5,NORMAL,,WEEK 8,6,2024-11-15,56
STUDY001,LB,STUDY001-SUBJ0001,52,L00052,HCT,Hematocrit,HEMATOLOGY,46.64,%,41.0,51.0,46.64,46.64,%,41.0,51.0,NORMAL,,WEEK 8,6,2024-11-15,56
STUDY001,LB,STUDY001-SUBJ0001,53,L00053,WBC,White Blood Cell Count,HEMATOLOGY,10.48,10^9/L,4.5,11.0,10.48,10.48,10^9/L,4.5,11.0,NORMAL,,WEEK 8,6,2024-11-15,56
STUDY001,LB,STUDY001-SUBJ0001,54,L00054,PLT,Platelet Count,HEMATOLOGY,295.93,10^9/L,150.0,450.0,295.93,295.93,10^9/L,150.0,450.0,NORMAL,,WEEK 8,6,2024-11-15,56
STUDY001,LB,STUDY001-SUBJ0001,55,L00055,GLUC,Glucose,CHEMISTRY,83.2,mg/dL,70.0,100.0,83.2,83.2,mg/dL,70.0,100.0,NORMAL,,WEEK 8,6,2024-11-15,56
STUDY001,LB,STUDY001-SUBJ0001,56,L00056,BUN,Blood Urea Nitrogen,CHEMISTRY,13.34,mg/dL,7.0,20.0,13.34,13.34,mg/dL,7.0,20.0,NORMAL,,WEEK 8,6,2024-11-15,56
STUDY001,LB,STUDY001-SUBJ0001,57,L00057,CREAT,Creatinine,CHEMISTRY,0.91,mg/dL,0.6,1.2,0.91,0.91,mg/dL,0.6,1.2,NORMAL,,WEEK 8,6,2024-11-15,56
STUDY001,LB,STUDY001-SUBJ0001,58,L00058,BILI,Total Bilirubin,CHEMISTRY,0.43,mg/dL,0.1,1.2,0.43,0.43,mg/dL,0.1,1.2,NORMAL,,WEEK 8,6,2024-11-15,56
STUDY001,LB,STUDY001-SUBJ0001,59,L00059,ALP,Alkaline Phosphatase,CHEMISTRY,84.69,U/L,44.0,147.0,84.69,84.69,U/L,44.0,147.0,NORMAL,,WEEK 8,6,2024-11-15,56
STUDY001,LB,STUDY001-SUBJ0001,60,L00060,ALT,Alanine Aminotransferase,CHEMISTRY,17.38,U/L,7.0,56.0,17.38,17.38,U/L,7.0,56.0,NORMAL,,WEEK 8,6,2024-11-15,56
STUDY001,LB,STUDY001-SUBJ0001,61,L00061,HGB,Hemoglobin,HEMATOLOGY,15.28,g/dL,13.5,17.5,15.28,15.28,g/dL,13.5,17.5,NORMAL,,WEEK 12,7,2024-12-13,84
STUDY001,LB,STUDY001-SUBJ0001,62,L00062,HCT,Hematocrit,HEMATOLOGY,46.4,%,41.0,51.0,46.4,46.4,%,41.0,51.0,NORMAL,,WEEK 12,7,2024-12-13,84
STUDY001,LB,STUDY001-SUBJ0001,63,L00063,WBC,White Blood Cell Count,HEMATOLOGY,10.49,10^9/L,4.5,11.0,10.49,10.49,10^9/L,4.5,11.0,NORMAL,,WEEK 12,7,2024-12-13,84
STUDY001,LB,STUDY001-SUBJ0001,64,L00064,PLT,Platelet Count,HEMATOLOGY,298.67,10^9/L,150.0,450.0,298.67,298.67,10^9/L,150.0,450.0,NORMAL,,WEEK 12,7,2024-12-13,84
STUDY001,LB,STUDY001-SUBJ0001,65,L00065,GLUC,Glucose,CHEMISTRY,84.48,mg/dL,70.0,100.0,84.48,84.48,mg/dL,70.0,100.0,NORMAL,,WEEK 12,7,2024-12-13,84
STUDY001,LB,STUDY001-SUBJ0001,66,L00066,BUN,Blood Urea Nitrogen,CHEMISTRY,13.29,mg/dL,7.0,20.0,13.29,13.29,mg/dL,7.0,20.0,NORMAL,,WEEK 12,7,2024-12-13,84
STUDY001,LB,STUDY001-SUBJ0001,67,L00067,CREAT,Creatinine,CHEMISTRY,0.91,mg/dL,0.6,1.2,0.91,0.91,mg/dL,0.6,1.2,NORMAL,,WEEK 12,7,2024-12-13,84
STUDY001,LB,STUDY001-SUBJ0001,68,L00068,BILI,Total Bilirubin,CHEMISTRY,0.48,mg/dL,0.1,1.2,0.48,0.48,mg/dL,0.1,1.2,NORMAL,,WEEK 12,7,2024-12-13,84
STUDY001,LB,STUDY001-SUBJ0001,69,L00069,ALP,Alkaline Phosphatase,CHEMISTRY,78.42,U/L,44.0,147.0,78.42,78.42,U/L,44.0,147.0,NORMAL,,WEEK 12,7,2024-12-13,84
STUDY001,LB,STUDY001-SUBJ0001,70,L00070,ALT,Alanine Aminotransferase,CHEMISTRY,15.58,U/L,7.0,56.0,15.58,15.58,U/L,7.0,56.0,NORMAL,,WEEK 12,7,2024-12-13,84
STUDY001,LB,STUDY001-SUBJ0001,71,L00071,HGB,Hemoglobin,HEMATOLOGY,15.24,g/dL,13.5,17.5,15.24,15.24,g/dL,13.5,17.5,NORMAL,,WEEK 16,8,2025-01-10,112
STUDY001,LB,STUDY001-SUBJ0001,72,L00072,HCT,Hematocrit,HEMATOLOGY,46.49,%,41.0,51.0,46.49,46.49,%,41.0,51.0,NORMAL,,WEEK 16,8,2025-01-10,112
STUDY001,LB,STUDY001-SUBJ0001,73,L00073,WBC,White Blood Cell Count,HEMATOLOGY,10.27,10^9/L,4.5,11.0,10.27,10.27,10^9/L,4.5,11.0,NORMAL,,WEEK 16,8,2025-01-10,112
STUDY001,LB,STUDY001-SUBJ0001,74,L00074,PLT,Platelet Count,HEMATOLOGY,293.05,10^9/L,150.0,450.0,293.05,293.05,10^9/L,150.0,450.0,NORMAL,,WEEK 16,8,2025-01-10,112
STUDY001,LB,STUDY001-SUBJ0001,75,L00075,GLUC,Glucose,CHEMISTRY,85.33,mg/dL,70.0,100.0,85.33,85.33,mg/dL,70.0,100.0,NORMAL,,WEEK 16,8,2025-01-10,112
STUDY001,LB,STUDY001-SUBJ0001,76,L00076,BUN,Blood Urea Nitrogen,CHEMISTRY,13.71,mg/dL,7.0,20.0,13.71,13.71,mg/dL,7.0,20.0,NORMAL,,WEEK 16,8,2025-01-10,112
STUDY001,LB,STUDY001-SUBJ0001,77,L00077,CREAT,Creatinine,CHEMISTRY,0.89,mg/dL,0.6,1.2,0.89,0.89,mg/dL,0.6,1.2,NORMAL,,WEEK 16,8,2025-01-10,112
STUDY001,LB,STUDY001-SUBJ0001,78,L00078,BILI,Total Bilirubin,CHEMISTRY,0.47,mg/dL,0.1,1.2,0.47,0.47,mg/dL,0.1,1.2,NORMAL,,WEEK 16,8,2025-01-10,112
STUDY001,LB,STUDY001-SUBJ0001,79,L00079,ALP,Alkaline Phosphatase,CHEMISTRY,76.22,U/L,44.0,147.0,76.22,76.22,U/L,44.0,147.0,NORMAL,,WEEK 16,8,2025-01-10,112
STUDY001,LB,STUDY001-SUBJ0001,80,L00080,ALT,Alanine Aminotransferase,CHEMISTRY,16.13,U/L,7.0,56.0,16.13,16.13,U/L,7.0,56.0,NORMAL,,WEEK 16,8,2025-01-10,112
STUDY001,LB,STUDY001-SUBJ0001,81,L00081,HGB,Hemoglobin,HEMATOLOGY,15.14,g/dL,13.5,17.5,15.14,15.14,g/dL,13.5,17.5,NORMAL,,END OF TREATMENT,9,2025-02-07,140
STUDY001,LB,STUDY001-SUBJ0001,82,L00082,HCT,Hematocrit,HEMATOLOGY,46.81,%,41.0,51.0,46.81,46.81,%,41.0,51.0,NORMAL,,END OF TREATMENT,9,2025-02-07,140
STUDY001,LB,STUDY001-SUBJ0001,83,L00083,WBC,White Blood Cell Count,HEMATOLOGY,10.06,10^9/L,4.5,11.0,10.06,10.06,10^9/L,4.5,11.0,NORMAL,,END OF TREATMENT,9,2025-02-07,140
STUDY001,LB,STUDY001-SUBJ0001,84,L00084,PLT,Platelet Count,HEMATOLOGY,292.51,10^9/L,150.0,450.0,292.51,292.51,10^9/L,150.0,450.0,NORMAL,,END OF TREATMENT,9,2025-02-07,140
STUDY001,LB,STUDY001-SUBJ0001,85,L00085,GLUC,Glucose,CHEMISTRY,86.26,mg/dL,70.0,100.0,86.26,86.26,mg/dL,70.0,100.0,NORMAL,,END OF TREATMENT,9,2025-02-07,140
STUDY001,LB,STUDY001-SUBJ0001,86,L00086,BUN,Blood Urea Nitrogen,CHEMISTRY,12.98,mg/dL,7.0,20.0,12.98,12.98,mg/dL,7.0,20.0,NORMAL,,END OF TREATMENT,9,2025-02-07,140
STUDY001,LB,STUDY001-SUBJ0001,87,L00087,CREAT,Creatinine,CHEMISTRY,0.91,mg/dL,0.6,1.2,0.91,0.91,mg/dL,0.6,1.2,NORMAL,,END OF TREATMENT,9,2025-02-07,140
STUDY001,LB,STUDY001-SUBJ0001,88,L00088,BILI,Total Bilirubin,CHEMISTRY,0.48,mg/dL,0.1,1.2,0.48,0.48,mg/dL,0.1,1.2,NORMAL,,END OF TREATMENT,9,2025-02-07,140
STUDY001,LB,STUDY001-SUBJ0001,89,L00089,ALP,Alkaline Phosphatase,CHEMISTRY,79.87,U/L,44.0,147.0,79.87,79.87,U/L,44.0,147.0,NORMAL,,END OF TREATMENT,9,2025-02-07,140
STUDY001,LB,STUDY001-SUBJ0001,90,L00090,ALT,Alanine Aminotransferase,CHEMISTRY,17.15,U/L,7.0,56.0,17.15,17.15,U/L,7.0,56.0,NORMAL,,END OF TREATMENT,9,2025-02-07,140
STUDY001,LB,STUDY001-SUBJ0002,1,L00001,HGB,Hemoglobin,HEMATOLOGY,17.35,g/dL,13.5,17.5,17.35,17.35,g/dL,13.5,17.5,NORMAL,,SCREENING,1,2024-08-08,-14
STUDY001,LB,STUDY001-SUBJ0002,2,L00002,HCT,Hematocrit,HEMATOLOGY,46.9,%,41.0,51.0,46.9,46.9,%,41.0,51.0,NORMAL,,SCREENING,1,2024-08-08,-14
STUDY001,LB,STUDY001-SUBJ0002,3,L00003,WBC,White Blood Cell Count,HEMATOLOGY,6.65,10^9/L,4.5,11.0,6.65,6.65,10^9/L,4.5,11.0,NORMAL,,SCREENING,1,2024-08-08,-14
STUDY001,LB,STUDY001-SUBJ0002,4,L00004,PLT,Platelet Count,HEMATOLOGY,252.98,10^9/L,150.0,450.0,252.98,252.98,10^9/L,150.0,450.0,NORMAL,,SCREENING,1,2024-08-08,-14
STUDY001,LB,STUDY001-SUBJ0002,5,L00005,GLUC,Glucose,CHEMISTRY,85.93,mg/dL,70.0,100.0,85.93,85.93,mg/dL,70.0,100.0,NORMAL,,SCREENING,1,2024-08-08,-14
STUDY001,LB,STUDY001-SUBJ0002,6,L00006,BUN,Blood Urea Nitrogen,CHEMISTRY,11.5,mg/dL,7.0,20.0,11.5,11.5,mg/dL,7.0,20.0,NORMAL,,SCREENING,1,2024-08-08,-14
STUDY001,LB,STUDY001-SUBJ0002,7,L00007,CREAT,Creatinine,CHEMISTRY,0.94,mg/dL,0.6,1.2,0.94,0.94,mg/dL,0.6,1.2,NORMAL,,SCREENING,1,2024-08-08,-14
STUDY001,LB,STUDY001-SUBJ0002,8,L00008,BILI,Total Bilirubin,CHEMISTRY,0.79,mg/dL,0.1,1.2,0.79,0.79,mg/dL,0.1,1.2,NORMAL,,SCREENING,1,2024-08-08,-14
STUDY001,LB,STUDY001-SUBJ0002,9,L00009,ALP,Alkaline Phosphatase,CHEMISTRY,112.01,U/L,44.0,147.0,112.01,112.01,U/L,44.0,147.0,NORMAL,,SCREENING,1,2024-08-08,-14
STUDY001,LB,STUDY001-SUBJ0002,10,L00010,ALT,Alanine Aminotransferase,CHEMISTRY,26.96,U/L,7.0,56.0,26.96,26.96,U/L,7.0,56.0,NORMAL,,SCREENING,1,2024-08-08,-14
STUDY001,LB,STUDY001-SUBJ0002,11,L00011,HGB,Hemoglobin,HEMATOLOGY,17.19,g/dL,13.5,17.5,17.19,17.19,g/dL,13.5,17.5,NORMAL,Y,BASELINE,2,2024-08-22,1
STUDY001,LB,STUDY001-SUBJ0002,12,L00012,HCT,Hematocrit,HEMATOLOGY,47.0,%,41.0,51.0,47.0,47.0,%,41.0,51.0,NORMAL,Y,BASELINE,2,2024-08-22,1
STUDY001,LB,STUDY001-SUBJ0002,13,L00013,WBC,White Blood Cell Count,HEMATOLOGY,6.75,10^9/L,4.5,11.0,6.75,6.75,10^9/L,4.5,11.0,NORMAL,Y,BASELINE,2,2024-08-22,1
STUDY001,LB,STUDY001-SUBJ0002,14,L00014,PLT,Platelet Count,HEMATOLOGY,254.16,10^9/L,150.0,450.0,254.16,254.16,10^9/L,150.0,450.0,NORMAL,Y,BASELINE,2,2024-08-22,1
STUDY001,LB,STUDY001-SUBJ0002,15,L00015,GLUC,Glucose,CHEMISTRY,87.28,mg/dL,70.0,100.0,87.28,87.28,mg/dL,70.0,100.0,NORMAL,Y,BASELINE,2,2024-08-22,1
STUDY001,LB,STUDY001-SUBJ0002,16,L00016,BUN,Blood Urea Nitrogen,CHEMISTRY,11.39,mg/dL,7.0,20.0,11.39,11.39,mg/dL,7.0,20.0,NORMAL,Y,BASELINE,2,2024-08-22,1
STUDY001,LB,STUDY001-SUBJ0002,17,L00017,CREAT,Creatinine,CHEMISTRY,0.97,mg/dL,0.6,1.2,0.97,0.97,mg/dL,0.6,1.2,NORMAL,Y,BASELINE,2,2024-08-22,1
STUDY001,LB,STUDY001-SUBJ0002,18,L00018,BILI,Total Bilirubin,CHEMISTRY,0.79,mg/dL,0.1,1.2,0.79,0.79,mg/dL,0.1,1.2,NORMAL,Y,BASELINE,2,2024-08-22,1
STUDY001,LB,STUDY001-SUBJ0002,19,L00019,ALP,Alkaline Phosphatase,CHEMISTRY,113.55,U/L,44.0,147.0,113.55,113.55,U/L,44.0,147.0,NORMAL,Y,BASELINE,2,2024-08-22,1
STUDY001,LB,STUDY001-SUBJ0002,20,L00020,ALT,Alanine Aminotransferase,CHEMISTRY,26.67,U/L,7.0,56.0,26.67,26.67,U/L,7.0,56.0,NORMAL,Y,BASELINE,2,2024-08-22,1
STUDY001,LB,STUDY001-SUBJ0002,21,L00021,HGB,Hemoglobin,HEMATOLOGY,17.39,g/dL,13.5,17.5,17.39,17.39,g/dL,13.5,17.5,NORMAL,,WEEK 1,3,2024-08-28,7
STUDY001,LB,STUDY001-SUBJ0002,22,L00022,HCT,Hematocrit,HEMATOLOGY,47.29,%,41.0,51.0,47.29,47.29,%,41.0,51.0,NORMAL,,WEEK 1,3,2024-08-28,7
STUDY001,LB,STUDY001-SUBJ0002,23,L00023,WBC,White Blood Cell Count,HEMATOLOGY,6.64,10^9/L,4.5,11.0,6.64,6.64,10^9/L,4.5,11.0,NORMAL,,WEEK 1,3,2024-08-28,7
STUDY001,LB,STUDY001-SUBJ0002,24,L00024,PLT,Platelet Count,HEMATOLOGY,252.88,10^9/L,150.0,450.0,252.88,252.88,10^9/L,150.0,450.0,NORMAL,,WEEK 1,3,2024-08-28,7
STUDY001,LB,STUDY001-SUBJ0002,25,L00025,GLUC,Glucose,CHEMISTRY,86.12,mg/dL,70.0,100.0,86.12,86.12,mg/dL,70.0,100.0,NORMAL,,WEEK 1,3,2024-08-28,7
STUDY001,LB,STUDY001-SUBJ0002,26,L00026,BUN,Blood Urea Nitrogen,CHEMISTRY,11.48,mg/dL,7.0,20.0,11.48,11.48,mg/dL,7.0,20.0,NORMAL,,WEEK 1,3,2024-08-28,7
STUDY001,LB,STUDY001-SUBJ0002,27,L00027,CREAT,Creatinine,CHEMISTRY,0.94,mg/dL,0.6,1.2,0.94,0.94,mg/dL,0.6,1.2,NORMAL,,WEEK 1,3,2024-08-28,7
STUDY001,LB,STUDY001-SUBJ0002,28,L00028,BILI,Total Bilirubin,CHEMISTRY,0.76,mg/dL,0.1,1.2,0.76,0.76,mg/dL,0.1,1.2,NORMAL,,WEEK 1,3,2024-08-28,7
STUDY001,LB,STUDY001-SUBJ0002,29,L00029,ALP,Alkaline Phosphatase,CHEMISTRY,115.56,U/L,44.0,147.0,115.56,115.56,U/L,44.0,147.0,NORMAL,,WEEK 1,3,2024-08-28,7
STUDY001,LB,STUDY001-SUBJ0002,30,L00030,ALT,Alanine Aminotransferase,CHEMISTRY,27.67,U/L,7.0,56.0,27.67,27.67,U/L,7.0,56.0,NORMAL,,WEEK 1,3,2024-08-28,7
STUDY001,LB,STUDY001-SUBJ0002,31,L00031,HGB,Hemoglobin,HEMATOLOGY,17.08,g/dL,13.5,17.5,17.08,17.08,g/dL,13.5,17.5,NORMAL,,WEEK 2,4,2024-09-04,14
STUDY001,LB,STUDY001-SUBJ0002,32,L00032,HCT,Hematocrit,HEMATOLOGY,46.86,%,41.0,51.0,46.86,46.86,%,41.0,51.0,NORMAL,,WEEK 2,4,2024-09-04,14
STUDY001,LB,STUDY001-SUBJ0002,33,L00033,WBC,White Blood Cell Count,HEMATOLOGY,6.51,10^9/L,4.5,11.0,6.51,6.51,10^9/L,4.5,11.0,NORMAL,,WEEK 2,4,2024-09-04,14
STUDY001,LB,STUDY001-SUBJ0002,34,L00034,PLT,Platelet Count,HEMATOLOGY,253.53,10^9/L,150.0,450.0,253.53,253.53,10^9/L,150.0,450.0,NORMAL,,WEEK 2,4,2024-09-04,14
STUDY001,LB,STUDY001-SUBJ0002,35,L00035,GLUC,Glucose,CHEMISTRY,87.63,mg/dL,70.0,100.0,87.63,87.63,mg/dL,70.0,100.0,NORMAL,,WEEK 2,4,2024-09-04,14
STUDY001,LB,STUDY001-SUBJ0002,36,L00036,BUN,Blood Urea Nitrogen,CHEMISTRY,11.81,mg/dL,7.0,20.0,11.81,11.81,mg/dL,7.0,20.0,NORMAL,,WEEK 2,4,2024-09-04,14
STUDY001,LB,STUDY001-SUBJ0002,37,L00037,CREAT,Creatinine,CHEMISTRY,0.96,mg/dL,0.6,1.2,0.96,0.96,mg/dL,0.6,1.2,NORMAL,,WEEK 2,4,2024-09-04,14
STUDY001,LB,STUDY001-SUBJ0002,38,L00038,BILI,Total Bilirubin,CHEMISTRY,0.79,mg/dL,0.1,1.2,0.79,0.79,mg/dL,0.1,1.2,NORMAL,,WEEK 2,4,2024-09-04,14
STUDY001,LB,STUDY001-SUBJ0002,39,L00039,ALP,Alkaline Phosphatase,CHEMISTRY,112.07,U/L,44.0,147.0,112.07,112.07,U/L,44.0,147.0,NORMAL,,WEEK 2,4,2024-09-04,14
STUDY001,LB,STUDY001-SUBJ0002,40,L00040,ALT,Alanine Aminotransferase,CHEMISTRY,27.51,U/L,7.0,56.0,27.51,27.51,U/L,7.0,56.0,NORMAL,,WEEK 2,4,2024-09-04,14
STUDY001,LB,STUDY001-SUBJ0002,41,L00041,HGB,Hemoglobin,HEMATOLOGY,17.2,g/dL,13.5,17.5,17.2,17.2,g/dL,13.5,17.5,NORMAL,,WEEK 4,5,2024-09-18,28
STUDY001,LB,STUDY001-SUBJ0002,42,L00042,HCT,Hematocrit,HEMATOLOGY,46.52,%,41.0,51.0,46.52,46.52,%,41.0,51.0,NORMAL,,WEEK 4,5,2024-09-18,28
STUDY001,LB,STUDY001-SUBJ0002,43,L00043,WBC,White Blood Cell Count,HEMATOLOGY,6.7,10^9/L,4.5,11.0,6.7,6.7,10^9/L,4.5,11.0,NORMAL,,WEEK 4,5,2024-09-18,28
STUDY001,LB,STUDY001-SUBJ0002,44,L00044,PLT,Platelet Count,HEMATOLOGY,247.61,10^9/L,150.0,450.0,247.61,247.61,10^9/L,150.0,450.0,NORMAL,,WEEK 4,5,2024-09-18,28
STUDY001,LB,STUDY001-SUBJ0002,45,L00045,GLUC,Glucose,CHEMISTRY,85.81,mg/dL,70.0,100.0,85.81,85.81,mg/dL,70.0,100.0,NORMAL,,WEEK 4,5,2024-09-18,28
STUDY001,LB,STUDY001-SUBJ0002,46,L00046,BUN,Blood Urea Nitrogen,CHEMISTRY,11.32,mg/dL,7.0,20.0,11.32,11.32,mg/dL,7.0,20.0,NORMAL,,WEEK 4,5,2024-09-18,28
STUDY001,LB,STUDY001-SUBJ0002,47,L00047,CREAT,Creatinine,CHEMISTRY,0.93,mg/dL,0.6,1.2,0.93,0.93,mg/dL,0.6,1.2,NORMAL,,WEEK 4,5,2024-09-18,28
STUDY001,LB,STUDY001-SUBJ0002,48,L00048,BILI,Total Bilirubin,CHEMISTRY,0.81,mg/dL,0.1,1.2,0.81,0.81,mg/dL,0.1,1.2,NORMAL,,WEEK 4,5,2024-09-18,28
STUDY001,LB,STUDY001-SUBJ0002,49,L00049,ALP,Alkaline Phosphatase,CHEMISTRY,114.13,U/L,44.0,147.0,114.13,114.13,U/L,44.0,147.0,NORMAL,,WEEK 4,5,2024-09-18,28
STUDY001,LB,STUDY001-SUBJ0002,50,L00050,ALT,Alanine Aminotransferase,CHEMISTRY,29.0,U/L,7.0,56.0,29.0,29.0,U/L,7.0,56.0,NORMAL,,WEEK 4,5,2024-09-18,28
STUDY001,LB,STUDY001-SUBJ0002,51,L00051,HGB,Hemoglobin,HEMATOLOGY,17.42,g/dL,13.5,17.5,17.42,17.42,g/dL,13.5,17.5,NORMAL,,WEEK 8,6,2024-10-16,56
STUDY001,LB,STUDY001-SUBJ0002,52,L00052,HCT,Hematocrit,HEMATOLOGY,46.73,%,41.0,51.0,46.73,46.73,%,41.0,51.0,NORMAL,,WEEK 8,6,2024-10-16,56
STUDY001,LB,STUDY001-SUBJ0002,53,L00053,WBC,White Blood Cell Count,HEMATOLOGY,6.74,10^9/L,4.5,11.0,6.74,6.74,10^9/L,4.5,11.0,NORMAL,,WEEK 8,6,2024-10-16,56
STUDY001,LB,STUDY001-SUBJ0002,54,L00054,PLT,Platelet Count,HEMATOLOGY,255.23,10^9/L,150.0,450.0,255.23,255.23,10^9/L,150.0,450.0,NORMAL,,WEEK 8,6,2024-10-16,56
STUDY001,LB,STUDY001-SUBJ0002,55,L00055,GLUC,Glucose,CHEMISTRY,85.95,mg/dL,70.0,100.0,85.95,85.95,mg/dL,70.0,100.0,NORMAL,,WEEK 8,6,2024-10-16,56
STUDY001,LB,STUDY001-SUBJ0002,56,L00056,BUN,Blood Urea Nitrogen,CHEMISTRY,11.32,mg/dL,7.0,20.0,11.32,11.32,mg/dL,7.0,20.0,NORMAL,,WEEK 8,6,2024-10-16,56
STUDY001,LB,STUDY001-SUBJ0002,57,L00057,CREAT,Creatinine,CHEMISTRY,0.94,mg/dL,0.6,1.2,0.94,0.94,mg/dL,0.6,1.2,NORMAL,,WEEK 8,6,2024-10-16,56
STUDY001,LB,STUDY001-SUBJ0002,58,L00058,BILI,Total Bilirubin,CHEMISTRY,0.83,mg/dL,0.1,1.2,0.83,0.83,mg/dL,0.1,1.2,NORMAL,,WEEK 8,6,2024-10-16,56
STUDY001,LB,STUDY001-SUBJ0002,59,L00059,ALP,Alkaline Phosphatase,CHEMISTRY,114.84,U/L,44.0,147.0,114.84,114.84,U/L,44.0,147.0,NORMAL,,WEEK 8,6,2024-10-16,56
STUDY001,LB,STUDY001-SUBJ0002,60,L00060,ALT,Alanine Aminotransferase,CHEMISTRY,26.06,U/L,7.0,56.0,26.06,26.06,U/L,7.0,56.0,NORMAL,,WEEK 8,6,2024-10-16,56
STUDY001,LB,STUDY001-SUBJ0002,61,L00061,HGB,Hemoglobin,HEMATOLOGY,17.2,g/dL,13.5,17.5,17.2,17.2,g/dL,13.5,17.5,NORMAL,,WEEK 12,7,2024-11-13,84
STUDY001,LB,STUDY001-SUBJ0002,62,L00062,HCT,Hematocrit,HEMATOLOGY,47.2,%,41.0,51.0,47.2,47.2,%,41.0,51.0,NORMAL,,WEEK 12,7,2024-11-13,84
STUDY001,LB,STUDY001-SUBJ0002,63,L00063,WBC,White Blood Cell Count,HEMATOLOGY,6.85,10^9/L,4.5,11.0,6.85,6.85,10^9/L,4.5,11.0,NORMAL,,WEEK 12,7,2024-11-13,84
STUDY001,LB,STUDY001-SUBJ0002,64,L00064,PLT,Platelet Count,HEMATOLOGY,252.33,10^9/L,150.0,450.0,252.33,252.33,10^9/L,150.0,450.0,NORMAL,,WEEK 12,7,2024-11-13,84
STUDY001,LB,STUDY001-SUBJ0002,65,L00065,GLUC,Glucose,CHEMISTRY,88.07,mg/dL,70.0,100.0,88.07,88.07,mg/dL,70.0,100.0,NORMAL,,WEEK 12,7,2024-11-13,84
STUDY001,LB,STUDY001-SUBJ0002,66,L00066,BUN,Blood Urea Nitrogen,CHEMISTRY,11.15,mg/dL,7.0,20.0,11.15,11.15,mg/dL,7.0,20.0,NORMAL,,WEEK 12,7,2024-11-13,84
STUDY001,LB,STUDY001-SUBJ0002,67,L00067,CREAT,Creatinine,CHEMISTRY,0.95,mg/dL,0.6,1.2,0.95,0.95,mg/dL,0.6,1.2,NORMAL,,WEEK 12,7,2024-11-13,84
STUDY001,LB,STUDY001-SUBJ0002,68,L00068,BILI,Total Bilirubin,CHEMISTRY,0.84,mg/dL,0.1,1.2,0.84,0.84,mg/dL,0.1,1.2,NORMAL,,WEEK 12,7,2024-11-13,84
STUDY001,LB,STUDY001-SUBJ0002,69,L00069,ALP,Alkaline Phosphatase,CHEMISTRY,113.97,U/L,44.0,147.0,113.97,113.97,U/L,44.0,147.0,NORMAL,,WEEK 12,7,2024-11-13,84
STUDY001,LB,STUDY001-SUBJ0002,70,L00070,ALT,Alanine Aminotransferase,CHEMISTRY,25.41,U/L,7.0,56.0,25.41,25.41,U/L,7.0,56.0,NORMAL,,WEEK 12,7,2024-11-13,84
STUDY001,LB,STUDY001-SUBJ0002,71,L00071,HGB,Hemoglobin,HEMATOLOGY,17.21,g/dL,13.5,17.5,17.21,17.21,g/dL,13.5,17.5,NORMAL,,WEEK 16,8,2024-12-11,112
STUDY001,LB,STUDY001-SUBJ0002,72,L00072,HCT,Hematocrit,HEMATOLOGY,46.94,%,41.0,51.0,46.94,46.94,%,41.0,51.0,NORMAL,,WEEK 16,8,2024-12-11,112
STUDY001,LB,STUDY001-SUBJ0002,73,L00073,WBC,White Blood Cell Count,HEMATOLOGY,6.91,10^9/L,4.5,11.0,6.91,6.91,10^9/L,4.5,11.0,NORMAL,,WEEK 16,8,2024-12-11,112
STUDY001,LB,STUDY001-SUBJ0002,74,L00074,PLT,Platelet Count,HEMATOLOGY,258.5,10^9/L,150.0,450.0,258.5,258.5,10^9/L,150.0,450.0,NORMAL,,WEEK 16,8,2024-12-11,112
STUDY001,LB,STUDY001-SUBJ0002,75,L00075,GLUC,Glucose,CHEMISTRY,86.4,mg/dL,70.0,100.0,86.4,86.4,mg/dL,70.0,100.0,NORMAL,,WEEK 16,8,2024-12-11,112
STUDY001,LB,STUDY001-SUBJ0002,76,L00076,BUN,Blood Urea Nitrogen,CHEMISTRY,11.63,mg/dL,7.0,20.0,11.63,11.63,mg/dL,7.0,20.0,NORMAL,,WEEK 16,8,2024-12-11,112
STUDY001,LB,STUDY001-SUBJ0002,77,L00077,CREAT,Creatinine,CHEMISTRY,0.94,mg/dL,0.6,1.2,0.94,0.94,mg/dL,0.6,1.2,NORMAL,,WEEK 16,8,2024-12-11,112
STUDY001,LB,STUDY001-SUBJ0002,78,L00078,BILI,Total Bilirubin,CHEMISTRY,0.8,mg/dL,0.1,1.2,0.8,0.8,mg/dL,0.1,1.2,NORMAL,,WEEK 16,8,2024-12-11,112
STUDY001,LB,STUDY001-SUBJ0002,79,L00079,ALP,Alkaline Phosphatase,CHEMISTRY,116.37,U/L,44.0,147.0,116.37,116.37,U/L,44.0,147.0,NORMAL,,WEEK 16,8,2024-12-11,112
STUDY001,LB,STUDY001-SUBJ0002,80,L00080,ALT,Alanine Aminotransferase,CHEMISTRY,27.24,U/L,7.0,56.0,27.24,27.24,U/L,7.0,56.0,NORMAL,,WEEK 16,8,2024-12-11,112
STUDY001,LB,STUDY001-SUBJ0002,81,L00081,HGB,Hemoglobin,HEMATOLOGY,17.48,g/dL,13.5,17.5,17.48,17.48,g/dL,13.5,17.5,NORMAL,,END OF TREATMENT,9,2025-01-08,140
STUDY001,LB,STUDY001-SUBJ0002,82,L00082,HCT,Hematocrit,HEMATOLOGY,46.96,%,41.0,51.0,46.96,46.96,%,41.0,51.0,NORMAL,,END OF TREATMENT,9,2025-01-08,140
STUDY001,LB,STUDY001-SUBJ0002,83,L00083,WBC,White Blood Cell Count,HEMATOLOGY,7.03,10^9/L,4.5,11.0,7.03,7.03,10^9/L,4.5,11.0,NORMAL,,END OF TREATMENT,9,2025-01-08,140
STUDY001,LB,STUDY001-SUBJ0002,84,L00084,PLT,Platelet Count,HEMATOLOGY,255.17,10^9/L,150.0,450.0,255.17,255.17,10^9/L,150.0,450.0,NORMAL,,END OF TREATMENT,9,2025-01-08,140
STUDY001,LB,STUDY001-SUBJ0002,85,L00085,GLUC,Glucose,CHEMISTRY,85.98,mg/dL,70.0,100.0,85.98,85.98,mg/dL,70.0,100.0,NORMAL,,END OF TREATMENT,9,2025-01-08,140
STUDY001,LB,STUDY001-SUBJ0002,86,L00086,BUN,Blood Urea Nitrogen,CHEMISTRY,11.52,mg/dL,7.0,20.0,11.52,11.52,mg/dL,7.0,20.0,NORMAL,,END OF TREATMENT,9,2025-01-08,140
STUDY001,LB,STUDY001-SUBJ0002,87,L00087,CREAT,Creatinine,CHEMISTRY,0.94,mg/dL,0.6,1.2,0.94,0.94,mg/dL,0.6,1.2,NORMAL,,END OF TREATMENT,9,2025-01-08,140
STUDY001,LB,STUDY001-SUBJ0002,88,L00088,BILI,Total Bilirubin,CHEMISTRY,0.83,mg/dL,0.1,1.2,0.83,0.83,mg/dL,0.1,1.2,NORMAL,,END OF TREATMENT,9,2025-01-08,140
STUDY001,LB,STUDY001-SUBJ0002,89,L00089,ALP,Alkaline Phosphatase,CHEMISTRY,113.65,U/L,44.0,147.0,113.65,113.65,U/L,44.0,147.0,NORMAL,,END OF TREATMENT,9,2025-01-08,140
STUDY001,LB,STUDY001-SUBJ0002,90,L00090,ALT,Alanine Aminotransferase,CHEMISTRY,27.21,U/L,7.0,56.0,27.21,27.21,U/L,7.0,56.0,NORMAL,,END OF TREATMENT,9,2025-01-08,140
STUDY001,LB,STUDY001-SUBJ0003,1,L00001,HGB,Hemoglobin,HEMATOLOGY,15.62,g/dL,13.5,17.5,15.62,15.62,g/dL,13.5,17.5,NORMAL,,SCREENING,1,2024-12-07,-14
STUDY001,LB,STUDY001-SUBJ0003,2,L00002,HCT,Hematocrit,HEMATOLOGY,47.54,%,41.0,51.0,47.54,47.54,%,41.0,51.0,NORMAL,,SCREENING,1,2024-12-07,-14
STUDY001,LB,STUDY001-SUBJ0003,3,L00003,WBC,White Blood Cell Count,HEMATOLOGY,6.63,10^9/L,4.5,11.0,6.63,6.63,10^9/L,4.5,11.0,NORMAL,,SCREENING,1,2024-12-07,-14
STUDY001,LB,STUDY001-SUBJ0003,4,L00004,PLT,Platelet Count,HEMATOLOGY,347.64,10^9/L,150.0,450.0,347.64,347.64,10^9/L,150.0,450.0,NORMAL,,SCREENING,1,2024-12-07,-14
STUDY001,LB,STUDY001-SUBJ0003,5,L00005,GLUC,Glucose,CHEMISTRY,84.54,mg/dL,70.0,100.0,84.54,84.54,mg/dL,70.0,100.0,NORMAL,,SCREENING,1,2024-12-07,-14
STUDY001,LB,STUDY001-SUBJ0003,6,L00006,BUN,Blood Urea Nitrogen,CHEMISTRY,11.96,mg/dL,7.0,20.0,11.96,11.96,mg/dL,7.0,20.0,NORMAL,,SCREENING,1,2024-12-07,-14
STUDY001,LB,STUDY001-SUBJ0003,7,L00007,CREAT,Creatinine,CHEMISTRY,0.79,mg/dL,0.6,1.2,0.79,0.79,mg/dL,0.6,1.2,NORMAL,,SCREENING,1,2024-12-07,-14
STUDY001,LB,STUDY001-SUBJ0003,8,L00008,BILI,Total Bilirubin,CHEMISTRY,0.65,mg/dL,0.1,1.2,0.65,0.65,mg/dL,0.1,1.2,NORMAL,,SCREENING,1,2024-12-07,-14
STUDY001,LB,STUDY001-SUBJ0003,9,L00009,ALP,Alkaline Phosphatase,CHEMISTRY,82.85,U/L,44.0,147.0,82.85,82.85,U/L,44.0,147.0,NORMAL,,SCREENING,1,2024-12-07,-14
STUDY001,LB,STUDY001-SUBJ0003,10,L00010,ALT,Alanine Aminotransferase,CHEMISTRY,21.84,U/L,7.0,56.0,21.84,21.84,U/L,7.0,56.0,NORMAL,,SCREENING,1,2024-12-07,-14
STUDY001,LB,STUDY001-SUBJ0003,11,L00011,HGB,Hemoglobin,HEMATOLOGY,15.84,g/dL,13.5,17.5,15.84,15.84,g/dL,13.5,17.5,NORMAL,Y,BASELINE,2,2024-12-21,1
STUDY001,LB,STUDY001-SUBJ0003,12,L00012,HCT,Hematocrit,HEMATOLOGY,47.77,%,41.0,51.0,47.77,47.77,%,41.0,51.0,NORMAL,Y,BASELINE,2,2024-12-21,1
STUDY001,LB,STUDY001-SUBJ0003,13,L00013,WBC,White Blood Cell Count,HEMATOLOGY,6.6,10^9/L,4.5,11.0,6.6,6.6,10^9/L,4.5,11.0,NORMAL,Y,BASELINE,2,2024-12-21,1
STUDY001,LB,STUDY001-SUBJ0003,14,L00014,PLT,Platelet Count,HEMATOLOGY,337.63,10^9/L,150.0,450.0,337.63,337.63,10^9/L,150.0,450.0,NORMAL,Y,BASELINE,2,2024-12-21,1
STUDY001,LB,STUDY001-SUBJ0003,15,L00015,GLUC,Glucose,CHEMISTRY,82.27,mg/dL,70.0,100.0,82.27,82.27,mg/dL,70.0,100.0,NORMAL,Y,BASELINE,2,2024-12-21,1
STUDY001,LB,STUDY001-SUBJ0003,16,L00016,BUN,Blood Urea Nitrogen,CHEMISTRY,12.68,mg/dL,7.0,20.0,12.68,12.68,mg/dL,7.0,20.0,NORMAL,Y,BASELINE,2,2024-12-21,1
STUDY001,LB,STUDY001-SUBJ0003,17,L00017,CREAT,Creatinine,CHEMISTRY,0.78,mg/dL,0.6,1.2,0.78,0.78,mg/dL,0.6,1.2,NORMAL,Y,BASELINE,2,2024-12-21,1
STUDY001,LB,STUDY001-SUBJ0003,18,L00018,BILI,Total Bilirubin,CHEMISTRY,0.62,mg/dL,0.1,1.2,0.62,0.62,mg/dL,0.1,1.2,NORMAL,Y,BASELINE,2,2024-12-21,1
STUDY001,LB,STUDY001-SUBJ0003,19,L00019,ALP,Alkaline Phosphatase,CHEMISTRY,80.31,U/L,44.0,147.0,80.31,80.31,U/L,44.0,147.0,NORMAL,Y,BASELINE,2,2024-12-21,1
STUDY001,LB,STUDY001-SUBJ0003,20,L00020,ALT,Alanine Aminotransferase,CHEMISTRY,23.1,U/L,7.0,56.0,23.1,23.1,U/L,7.0,56.0,NORMAL,Y,BASELINE,2,2024-12-21,1
STUDY001,LB,STUDY001-SUBJ0003,21,L00021,HGB,Hemoglobin,HEMATOLOGY,15.72,g/dL,13.5,17.5,15.72,15.72,g/dL,13.5,17.5,NORMAL,,WEEK 1,3,2024-12-27,7
STUDY001,LB,STUDY001-SUBJ0003,22,L00022,HCT,Hematocrit,HEMATOLOGY,47.87,%,41.0,51.0,47.87,47.87,%,41.0,51.0,NORMAL,,WEEK 1,3,2024-12-27,7
STUDY001,LB,STUDY001-SUBJ0003,23,L00023,WBC,White Blood Cell Count,HEMATOLOGY,6.76,10^9/L,4.5,11.0,6.76,6.76,10^9/L,4.5,11.0,NORMAL,,WEEK 1,3,2024-12-27,7
STUDY001,LB,STUDY001-SUBJ0003,24,L00024,PLT,Platelet Count,HEMATOLOGY,345.3,10^9/L,150.0,450.0,345.3,345.3,10^9/L,150.0,450.0,NORMAL,,WEEK 1,3,2024-12-27,7
STUDY001,LB,STUDY001-SUBJ0003,25,L00025,GLUC,Glucose,CHEMISTRY,85.65,mg/dL,70.0,100.0,85.65,85.65,mg/dL,70.0,100.0,NORMAL,,WEEK 1,3,2024-12-27,7
STUDY001,LB,STUDY001-SUBJ0003,26,L00026,BUN,Blood Urea Nitrogen,CHEMISTRY,12.34,mg/dL,7.0,20.0,12.34,12.34,mg/dL,7.0,20.0,NORMAL,,WEEK 1,3,2024-12-27,7
STUDY001,LB,STUDY001-SUBJ0003,27,L00027,CREAT,Creatinine,CHEMISTRY,0.76,mg/dL,0.6,1.2,0.76,0.76,mg/dL,0.6,1.2,NORMAL,,WEEK 1,3,2024-12-27,7
STUDY001,LB,STUDY001-SUBJ0003,28,L00028,BILI,Total Bilirubin,CHEMISTRY,0.65,mg/dL,0.1,1.2,0.65,0.65,mg/dL,0.1,1.2,NORMAL,,WEEK 1,3,2024-12-27,7
STUDY001,LB,STUDY001-SUBJ0003,29,L00029,ALP,Alkaline Phosphatase,CHEMISTRY,80.71,U/L,44.0,147.0,80.71,80.71,U/L,44.0,147.0,NORMAL,,WEEK 1,3,2024-12-27,7
STUDY001,LB,STUDY001-SUBJ0003,30,L00030,ALT,Alanine Aminotransferase,CHEMISTRY,22.59,U/L,7.0,56.0,22.59,22.59,U/L,7.0,56.0,NORMAL,,WEEK 1,3,2024-12-27,7
STUDY001,LB,STUDY001-SUBJ0003,31,L00031,HGB,Hemoglobin,HEMATOLOGY,15.75,g/dL,13.5,17.5,15.75,15.75,g/dL,13.5,17.5,NORMAL,,WEEK 2,4,2025-01-03,14
STUDY001,LB,STUDY001-SUBJ0003,32,L00032,HCT,Hematocrit,HEMATOLOGY,47.89,%,41.0,51.0,47.89,47.89,%,41.0,51.0,NORMAL,,WEEK 2,4,2025-01-03,14
STUDY001,LB,STUDY001-SUBJ0003,33,L00033,WBC,White Blood Cell Count,HEMATOLOGY,6.36,10^9/L,4.5,11.0,6.36,6.36,10^9/L,4.5,11.0,NORMAL,,WEEK 2,4,2025-01-03,14
STUDY001,LB,STUDY001-SUBJ0003,34,L00034,PLT,Platelet Count,HEMATOLOGY,348.37,10^9/L,150.0,450.0,348.37,348.37,10^9/L,150.0,450.0,NORMAL,,WEEK 2,4,2025-01-03,14
STUDY001,LB,STUDY001-SUBJ0003,35,L00035,GLUC,Glucose,CHEMISTRY,84.09,mg/dL,70.0,100.0,84.09,84.09,mg/dL,70.0,100.0,NORMAL,,WEEK 2,4,2025-01-03,14
STUDY001,LB,STUDY001-SUBJ0003,36,L00036,BUN,Blood Urea Nitrogen,CHEMISTRY,12.53,mg/dL,7.0,20.0,12.53,12.53,mg/dL,7.0,20.0,NORMAL,,WEEK 2,4,2025-01-03,14
STUDY001,LB,STUDY001-SUBJ0003,37,L00037,CREAT,Creatinine,CHEMISTRY,0.77,mg/dL,0.6,1.2,0.77,0.77,mg/dL,0.6,1.2,NORMAL,,WEEK 2,4,2025-01-03,14
STUDY001,LB,STUDY001-SUBJ0003,38,L00038,BILI,Total Bilirubin,CHEMISTRY,0.61,mg/dL,0.1,1.2,0.61,0.61,mg/dL,0.1,1.2,NORMAL,,WEEK 2,4,2025-01-03,14
STUDY001,LB,STUDY001-SUBJ0003,39,L00039,ALP,Alkaline Phosphatase,CHEMISTRY,80.28,U/L,44.0,147.0,80.28,80.28,U/L,44.0,147.0,NORMAL,,WEEK 2,4,2025-01-03,14
STUDY001,LB,STUDY001-SUBJ0003,40,L00040,ALT,Alanine Aminotransferase,CHEMISTRY,23.89,U/L,7.0,56.0,23.89,23.89,U/L,7.0,56.0,NORMAL,,WEEK 2,4,2025-01-03,14
STUDY001,LB,STUDY001-SUBJ0003,41,L00041,HGB,Hemoglobin,HEMATOLOGY,16.11,g/dL,13.5,17.5,16.11,16.11,g/dL,13.5,17.5,NORMAL,,WEEK 4,5,2025-01-17,28
STUDY001,LB,STUDY001-SUBJ0003,42,L00042,HCT,Hematocrit,HEMATOLOGY,47.57,%,41.0,51.0,47.57,47.57,%,41.0,51.0,NORMAL,,WEEK 4,5,2025-01-17,28
STUDY001,LB,STUDY001-SUBJ0003,43,L00043,WBC,White Blood Cell Count,HEMATOLOGY,6.41,10^9/L,4.5,11.0,6.41,6.41,10^9/L,4.5,11.0,NORMAL,,WEEK 4,5,2025-01-17,28
STUDY001,LB,STUDY001-SUBJ0003,44,L00044,PLT,Platelet Count,HEMATOLOGY,349.7,10^9/L,150.0,450.0,349.7,349.7,10^9/L,150.0,450.0,NORMAL,,WEEK 4,5,2025-01-17,28
STUDY001,LB,STUDY001-SUBJ0003,45,L00045,GLUC,Glucose,CHEMISTRY,84.83,mg/dL,70.0,100.0,84.83,84.83,mg/dL,70.0,100.0,NORMAL,,WEEK 4,5,2025-01-17,28
STUDY001,LB,STUDY001-SUBJ0003,46,L00046,BUN,Blood Urea Nitrogen,CHEMISTRY,12.41,mg/dL,7.0,20.0,12.41,12.41,mg/dL,7.0,20.0,NORMAL,,WEEK 4,5,2025-01-17,28
STUDY001,LB,STUDY001-SUBJ0003,47,L00047,CREAT,Creatinine,CHEMISTRY,0.79,mg/dL,0.6,1.2,0.79,0.79,mg/dL,0.6,1.2,NORMAL,,WEEK 4,5,2025-01-17,28
STUDY001,LB,STUDY001-SUBJ0003,48,L00048,BILI,Total Bilirubin,CHEMISTRY,0.61,mg/dL,0.1,1.2,0.61,0.61,mg/dL,0.1,1.2,NORMAL,,WEEK 4,5,2025-01-17,28
STUDY001,LB,STUDY001-SUBJ0003,49,L00049,ALP,Alkaline Phosphatase,CHEMISTRY,79.51,U/L,44.0,147.0,79.51,79.51,U/L,44.0,147.0,NORMAL,,WEEK 4,5,2025-01-17,28
STUDY001,LB,STUDY001-SUBJ0003,50,L00050,ALT,Alanine Aminotransferase,CHEMISTRY,23.68,U/L,7.0,56.0,23.68,23.68,U/L,7.0,56.0,NORMAL,,WEEK 4,5,2025-01-17,28
STUDY001,LB,STUDY001-SUBJ0003,51,L00051,HGB,Hemoglobin,HEMATOLOGY,15.82,g/dL,13.5,17.5,15.82,15.82,g/dL,13.5,17.5,NORMAL,,WEEK 8,6,2025-02-14,56
STUDY001,LB,STUDY001-SUBJ0003,52,L00052,HCT,Hematocrit,HEMATOLOGY,48.1,%,41.0,51.0,48.1,48.1,%,41.0,51.0,NORMAL,,WEEK 8,6,2025-02-14,56
STUDY001,LB,STUDY001-SUBJ0003,53,L00053,WBC,White Blood Cell Count,HEMATOLOGY,6.5,10^9/L,4.5,11.0,6.5,6.5,10^9/L,4.5,11.0,NORMAL,,WEEK 8,6,2025-02-14,56
STUDY001,LB,STUDY001-SUBJ0003,54,L00054,PLT,Platelet Count,HEMATOLOGY,347.39,10^9/L,150.0,450.0,347.39,347.39,10^9/L,150.0,450.0,NORMAL,,WEEK 8,6,2025-02-14,56
STUDY001,LB,STUDY001-SUBJ0003,55,L00055,GLUC,Glucose,CHEMISTRY,83.78,mg/dL,70.0,100.0,83.78,83.78,mg/dL,70.0,100.0,NORMAL,,WEEK 8,6,2025-02-14,56
STUDY001,LB,STUDY001-SUBJ0003,56,L00056,BUN,Blood Urea Nitrogen,CHEMISTRY,11.74,mg/dL,7.0,20.0,11.74,11.74,mg/dL,7.0,20.0,NORMAL,,WEEK 8,6,2025-02-14,56
STUDY001,LB,STUDY001-SUBJ0003,57,L00057,CREAT,Creatinine,CHEMISTRY,0.77,mg/dL,0.6,1.2,0.77,0.77,mg/dL,0.6,1.2,NORMAL,,WEEK 8,6,2025-02-14,56
STUDY001,LB,STUDY001-SUBJ0003,58,L00058,BILI,Total Bilirubin,CHEMISTRY,0.66,mg/dL,0.1,1.2,0.66,0.66,mg/dL,0.1,1.2,NORMAL,,WEEK 8,6,2025-02-14,56
STUDY001,LB,STUDY001-SUBJ0003,59,L00059,ALP,Alkaline Phosphatase,CHEMISTRY,76.1,U/L,44.0,147.0,76.1,76.1,U/L,44.0,147.0,NORMAL,,WEEK 8,6,2025-02-14,56
STUDY001,LB,STUDY001-SUBJ0003,60,L00060,ALT,Alanine Aminotransferase,CHEMISTRY,23.54,U/L,7.0,56.0,23.54,23.54,U/L,7.0,56.0,NORMAL,,WEEK 8,6,2025-02-14,56
STUDY001,LB,STUDY001-SUBJ0003,61,L00061,HGB,Hemoglobin,HEMATOLOGY,15.86,g/dL,13.5,17.5,15.86,15.86,g/dL,13.5,17.5,NORMAL,,WEEK 12,7,2025-03-14,84
STUDY001,LB,STUDY001-SUBJ0003,62,L00062,HCT,Hematocrit,HEMATOLOGY,47.81,%,41.0,51.0,47.81,47.81,%,41.0,51.0,NORMAL,,WEEK 12,7,2025-03-14,84
STUDY001,LB,STUDY001-SUBJ0003,63,L00063,WBC,White Blood Cell Count,HEMATOLOGY,6.85,10^9/L,4.5,11.0,6.85,6.85,10^9/L,4.5,11.0,NORMAL,,WEEK 12,7,2025-03-14,84
STUDY001,LB,STUDY001-SUBJ0003,64,L00064,PLT,Platelet Count,HEMATOLOGY,337.42,10^9/L,150.0,450.0,337.42,337.42,10^9/L,150.0,450.0,NORMAL,,WEEK 12,7,2025-03-14,84
STUDY001,LB,STUDY001-SUBJ0003,65,L00065,GLUC,Glucose,CHEMISTRY,85.69,mg/dL,70.0,100.0,85.69,85.69,mg/dL,70.0,100.0,NORMAL,,WEEK 12,7,2025-03-14,84
STUDY001,LB,STUDY001-SUBJ0003,66,L00066,BUN,Blood Urea Nitrogen,CHEMISTRY,12.49,mg/dL,7.0,20.0,12.49,12.49,mg/dL,7.0,20.0,NORMAL,,WEEK 12,7,2025-03-14,84
STUDY001,LB,STUDY001-SUBJ0003,67,L00067,CREAT,Creatinine,CHEMISTRY,0.77,mg/dL,0.6,1.2,0.77,0.77,mg/dL,0.6,1.2,NORMAL,,WEEK 12,7,2025-03-14,84
STUDY001,LB,STUDY001-SUBJ0003,68,L00068,BILI,Total Bilirubin,CHEMISTRY,0.62,mg/dL,0.1,1.2,0.62,0.62,mg/dL,0.1,1.2,NORMAL,,WEEK 12,7,2025-03-14,84
STUDY001,LB,STUDY001-SUBJ0003,69,L00069,ALP,Alkaline Phosphatase,CHEMISTRY,76.5,U/L,44.0,147.0,76.5,76.5,U/L,44.0,147.0,NORMAL,,WEEK 12,7,2025-03-14,84
STUDY001,LB,STUDY001-SUBJ0003,70,L00070,ALT,Alanine Aminotransferase,CHEMISTRY,22.38,U/L,7.0,56.0,22.38,22.38,U/L,7.0,56.0,NORMAL,,WEEK 12,7,2025-03-14,84
STUDY001,LB,STUDY001-SUBJ0003,71,L00071,HGB,Hemoglobin,HEMATOLOGY,15.77,g/dL,13.5,17.5,15.77,15.77,g/dL,13.5,17.5,NORMAL,,WEEK 16,8,2025-04-11,112
STUDY001,LB,STUDY001-SUBJ0003,72,L00072,HCT,Hematocrit,HEMATOLOGY,47.6,%,41.0,51.0,47.6,47.6,%,41.0,51.0,NORMAL,,WEEK 16,8,2025-04-11,112
STUDY001,LB,STUDY001-SUBJ0003,73,L00073,WBC,White Blood Cell Count,HEMATOLOGY,6.45,10^9/L,4.5,11.0,6.45,6.45,10^9/L,4.5,11.0,NORMAL,,WEEK 16,8,2025-04-11,112
STUDY001,LB,STUDY001-SUBJ0003,74,L00074,PLT,Platelet Count,HEMATOLOGY,350.18,10^9/L,150.0,450.0,350.18,350.18,10^9/L,150.0,450.0,NORMAL,,WEEK 16,8,2025-04-11,112
STUDY001,LB,STUDY001-SUBJ0003,75,L00075,GLUC,Glucose,CHEMISTRY,84.71,mg/dL,70.0,100.0,84.71,84.71,mg/dL,70.0,100.0,NORMAL,,WEEK 16,8,2025-04-11,112
STUDY001,LB,STUDY001-SUBJ0003,76,L00076,BUN,Blood Urea Nitrogen,CHEMISTRY,11.97,mg/dL,7.0,20.0,11.97,11.97,mg/dL,7.0,20.0,NORMAL,,WEEK 16,8,2025-04-11,112
STUDY001,LB,STUDY001-SUBJ0003,77,L00077,CREAT,Creatinine,CHEMISTRY,0.78,mg/dL,0.6,1.2,0.78,0.78,mg/dL,0.6,1.2,NORMAL,,WEEK 16,8,2025-04-11,112
STUDY001,LB,STUDY001-SUBJ0003,78,L00078,BILI,Total Bilirubin,CHEMISTRY,0.61,mg/dL,0.1,1.2,0.61,0.61,mg/dL,0.1,1.2,NORMAL,,WEEK 16,8,2025-04-11,112
STUDY001,LB,STUDY001-SUBJ0003,79,L00079,ALP,Alkaline Phosphatase,CHEMISTRY,77.26,U/L,44.0,147.0,77.26,77.26,U/L,44.0,147.0,NORMAL,,WEEK 16,8,2025-04-11,112
STUDY001,LB,STUDY001-SUBJ0003,80,L00080,ALT,Alanine Aminotransferase,CHEMISTRY,23.12,U/L,7.0,56.0,23.12,23.12,U/L,7.0,56.0,NORMAL,,WEEK 16,8,2025-04-11,112
STUDY001,LB,STUDY001-SUBJ0003,81,L00081,HGB,Hemoglobin,HEMATOLOGY,15.81,g/dL,13.5,17.5,15.81,15.81,g/dL,13.5,17.5,NORMAL,,END OF TREATMENT,9,2025-05-09,140
STUDY001,LB,STUDY001-SUBJ0003,82,L00082,HCT,Hematocrit,HEMATOLOGY,47.97,%,41.0,51.0,47.97,47.97,%,41.0,51.0,NORMAL,,END OF TREATMENT,9,2025-05-09,140
STUDY001,LB,STUDY001-SUBJ0003,83,L00083,WBC,White Blood Cell Count,HEMATOLOGY,6.76,10^9/L,4.5,11.0,6.76,6.76,10^9/L,4.5,11.0,NORMAL,,END OF TREATMENT,9,2025-05-09,140
STUDY001,LB,STUDY001-SUBJ0003,84,L00084,PLT,Platelet Count,HEMATOLOGY,341.96,10^9/L,150.0,450.0,341.96,341.96,10^9/L,150.0,450.0,NORMAL,,END OF TREATMENT,9,2025-05-09,140
STUDY001,LB,STUDY001-SUBJ0003,85,L00085,GLUC,Glucose,CHEMISTRY,86.07,mg/dL,70.0,100.0,86.07,86.07,mg/dL,70.0,100.0,NORMAL,,END OF TREATMENT,9,2025-05-09,140
STUDY001,LB,STUDY001-SUBJ0003,86,L00086,BUN,Blood Urea Nitrogen,CHEMISTRY,12.27,mg/dL,7.0,20.0,12.27,12.27,mg/dL,7.0,20.0,NORMAL,,END OF TREATMENT,9,2025-05-09,140
STUDY001,LB,STUDY001-SUBJ0003,87,L00087,CREAT,Creatinine,CHEMISTRY,0.77,mg/dL,0.6,1.2,0.77,0.77,mg/dL,0.6,1.2,NORMAL,,END OF TREATMENT,9,2025-05-09,140
STUDY001,LB,STUDY001-SUBJ0003,88,L00088,BILI,Total Bilirubin,CHEMISTRY,0.63,mg/dL,0.1,1.2,0.63,0.63,mg/dL,0.1,1.2,NORMAL,,END OF TREATMENT,9,2025-05-09,140
STUDY001,LB,STUDY001-SUBJ0003,89,L00089,ALP,Alkaline Phosphatase,CHEMISTRY,78.4,U/L,44.0,147.0,78.4,78.4,U/L,44.0,147.0,NORMAL,,END OF TREATMENT,9,2025-05-09,140
STUDY001,LB,STUDY001-SUBJ0003,90,L00090,ALT,Alanine Aminotransferase,CHEMISTRY,21.74,U/L,7.0,56.0,21.74,21.74,U/L,7.0,56.0,NORMAL,,END OF TREATMENT,9,2025-05-09,140
STUDY001,LB,STUDY001-SUBJ0004,1,L00001,HGB,Hemoglobin,HEMATOLOGY,14.36,g/dL,13.5,17.5,14.36,14.36,g/dL,13.5,17.5,NORMAL,,SCREENING,1,2025-03-25,-14
STUDY001,LB,STUDY001-SUBJ0004,2,L00002,HCT,Hematocrit,HEMATOLOGY,49.59,%,41.0,51.0,49.59,49.59,%,41.0,51.0,NORMAL,,SCREENING,1,2025-03-25,-14
STUDY001,LB,STUDY001-SUBJ0004,3,L00003,WBC,White Blood Cell Count,HEMATOLOGY,5.15,10^9/L,4.5,11.0,5.15,5.15,10^9/L,4.5,11.0,NORMAL,,SCREENING,1,2025-03-25,-14
STUDY001,LB,STUDY001-SUBJ0004,4,L00004,PLT,Platelet Count,HEMATOLOGY,279.09,10^9/L,150.0,450.0,279.09,279.09,10^9/L,150.0,450.0,NORMAL,,SCREENING,1,2025-03-25,-14
STUDY001,LB,STUDY001-SUBJ0004,5,L00005,GLUC,Glucose,CHEMISTRY,83.71,mg/dL,70.0,100.0,83.71,83.71,mg/dL,70.0,100.0,NORMAL,,SCREENING,1,2025-03-25,-14
STUDY001,LB,STUDY001-SUBJ0004,6,L00006,BUN,Blood Urea Nitrogen,CHEMISTRY,14.8,mg/dL,7.0,20.0,14.8,14.8,mg/dL,7.0,20.0,NORMAL,,SCREENING,1,2025-03-25,-14
STUDY001,LB,STUDY001-SUBJ0004,7,L00007,CREAT,Creatinine,CHEMISTRY,0.87,mg/dL,0.6,1.2,0.87,0.87,mg/dL,0.6,1.2,NORMAL,,SCREENING,1,2025-03-25,-14
STUDY001,LB,STUDY001-SUBJ0004,8,L00008,BILI,Total Bilirubin,CHEMISTRY,0.96,mg/dL,0.1,1.2,0.96,0.96,mg/dL,0.1,1.2,NORMAL,,SCREENING,1,2025-03-25,-14
STUDY001,LB,STUDY001-SUBJ0004,9,L00009,ALP,Alkaline Phosphatase,CHEMISTRY,109.6,U/L,44.0,147.0,109.6,109.6,U/L,44.0,147.0,NORMAL,,SCREENING,1,2025-03-25,-14
STUDY001,LB,STUDY001-SUBJ0004,10,L00010,ALT,Alanine Aminotransferase,CHEMISTRY,27.61,U/L,7.0,56.0,27.61,27.61,U/L,7.0,56.0,NORMAL,,SCREENING,1,2025-03-25,-14
STUDY001,LB,STUDY001-SUBJ0004,11,L00011,HGB,Hemoglobin,HEMATOLOGY,14.32,g/dL,13.5,17.5,14.32,14.32,g/dL,13.5,17.5,NORMAL,Y,BASELINE,2,2025-04-08,1
STUDY001,LB,STUDY001-SUBJ0004,12,L00012,HCT,Hematocrit,HEMATOLOGY,49.67,%,41.0,51.0,49.67,49.67,%,41.0,51.0,NORMAL,Y,BASELINE,2,2025-04-08,1
STUDY001,LB,STUDY001-SUBJ0004,13,L00013,WBC,White Blood Cell Count,HEMATOLOGY,5.49,10^9/L,4.5,11.0,5.49,5.49,10^9/L,4.5,11.0,NORMAL,Y,BASELINE,2,2025-04-08,1
STUDY001,LB,STUDY001-SUBJ0004,14,L00014,PLT,Platelet Count,HEMATOLOGY,278.78,10^9/L,150.0,450.0,278.78,278.78,10^9/L,150.0,450.0,NORMAL,Y,BASELINE,2,2025-04-08,1
STUDY001,LB,STUDY001-SUBJ0004,15,L00015,GLUC,Glucose,CHEMISTRY,83.12,mg/dL,70.0,100.0,83.12,83.12,mg/dL,70.0,100.0,NORMAL,Y,BASELINE,2,2025-04-08,1
STUDY001,LB,STUDY001-SUBJ0004,16,L00016,BUN,Blood Urea Nitrogen,CHEMISTRY,14.98,mg/dL,7.0,20.0,14.98,14.98,mg/dL,7.0,20.0,NORMAL,Y,BASELINE,2,2025-04-08,1
STUDY001,LB,STUDY001-SUBJ0004,17,L00017,CREAT,Creatinine,CHEMISTRY,0.83,mg/dL,0.6,1.2,0.83,0.83,mg/dL,0.6,1.2,NORMAL,Y,BASELINE,2,2025-04-08,1
STUDY001,LB,STUDY001-SUBJ0004,18,L00018,BILI,Total Bilirubin,CHEMISTRY,0.96,mg/dL,0.1,1.2,0.96,0.96,mg/dL,0.1,1.2,NORMAL,Y,BASELINE,2,2025-04-08,1
STUDY001,LB,STUDY001-SUBJ0004,19,L00019,ALP,Alkaline Phosphatase,CHEMISTRY,109.09,U/L,44.0,147.0,109.09,109.09,U/L,44.0,147.0,NORMAL,Y,BASELINE,2,2025-04-08,1
STUDY001,LB,STUDY001-SUBJ0004,20,L00020,ALT,Alanine Aminotransferase,CHEMISTRY,27.87,U/L,7.0,56.0,27.87,27.87,U/L,7.0,56.0,NORMAL,Y,BASELINE,2,2025-04-08,1
STUDY001,LB,STUDY001-SUBJ0004,21,L00021,HGB,Hemoglobin,HEMATOLOGY,14.55,g/dL,13.5,17.5,14.55,14.55,g/dL,13.5,17.5,NORMAL,,WEEK 1,3,2025-04-14,7
STUDY001,LB,STUDY001-SUBJ0004,22,L00022,HCT,Hematocrit,HEMATOLOGY,50.05,%,41.0,51.0,50.05,50.05,%,41.0,51.0,NORMAL,,WEEK 1,3,2025-04-14,7
STUDY001,LB,STUDY001-SUBJ0004,23,L00023,WBC,White Blood Cell Count,HEMATOLOGY,5.2,10^9/L,4.5,11.0,5.2,5.2,10^9/L,4.5,11.0,NORMAL,,WEEK 1,3,2025-04-14,7
STUDY001,LB,STUDY001-SUBJ0004,24,L00024,PLT,Platelet Count,HEMATOLOGY,274.17,10^9/L,150.0,450.0,274.17,274.17,10^9/L,150.0,450.0,NORMAL,,WEEK 1,3,2025-04-14,7
STUDY001,LB,STUDY001-SUBJ0004,25,L00025,GLUC,Glucose,CHEMISTRY,86.08,mg/dL,70.0,100.0,86.08,86.08,mg/dL,70.0,100.0,NORMAL,,WEEK 1,3,2025-04-14,7
STUDY001,LB,STUDY001-SUBJ0004,26,L00026,BUN,Blood Urea Nitrogen,CHEMISTRY,15.99,mg/dL,7.0,20.0,15.99,15.99,mg/dL,7.0,20.0,NORMAL,,WEEK 1,3,2025-04-14,7
STUDY001,LB,STUDY001-SUBJ0004,27,L00027,CREAT,Creatinine,CHEMISTRY,0.86,mg/dL,0.6,1.2,0.86,0.86,mg/dL,0.6,1.2,NORMAL,,WEEK 1,3,2025-04-14,7
STUDY001,LB,STUDY001-SUBJ0004,28,L00028,BILI,Total Bilirubin,CHEMISTRY,0.99,mg/dL,0.1,1.2,0.99,0.99,mg/dL,0.1,1.2,NORMAL,,WEEK 1,3,2025-04-14,7
STUDY001,LB,STUDY001-SUBJ0004,29,L00029,ALP,Alkaline Phosphatase,CHEMISTRY,107.04,U/L,44.0,147.0,107.04,107.04,U/L,44.0,147.0,NORMAL,,WEEK 1,3,2025-04-14,7
STUDY001,LB,STUDY001-SUBJ0004,30,L00030,ALT,Alanine Aminotransferase,CHEMISTRY,29.82,U/L,7.0,56.0,29.82,29.82,U/L,7.0,56.0,NORMAL,,WEEK 1,3,2025-04-14,7
STUDY001,LB,STUDY001-SUBJ0004,31,L00031,HGB,Hemoglobin,HEMATOLOGY,14.52,g/dL,13.5,17.5,14.52,14.52,g/dL,13.5,17.5,NORMAL,,WEEK 2,4,2025-04-21,14
STUDY001,LB,STUDY001-SUBJ0004,32,L00032,HCT,Hematocrit,HEMATOLOGY,49.85,%,41.0,51.0,49.85,49.85,%,41.0,51.0,NORMAL,,WEEK 2,4,2025-04-21,14
STUDY001,LB,STUDY001-SUBJ0004,33,L00033,WBC,White Blood Cell Count,HEMATOLOGY,5.51,10^9/L,4.5,11.0,5.51,5.51,10^9/L,4.5,11.0,NORMAL,,WEEK 2,4,2025-04-21,14
STUDY001,LB,STUDY001-SUBJ0004,34,L00034,PLT,Platelet Count,HEMATOLOGY,274.41,10^9/L,150.0,450.0,274.41,274.41,10^9/L,150.0,450.0,NORMAL,,WEEK 2,4,2025-04-21,14
STUDY001,LB,STUDY001-SUBJ0004,35,L00035,GLUC,Glucose,CHEMISTRY,84.86,mg/dL,70.0,100.0,84.86,84.86,mg/dL,70.0,100.0,NORMAL,,WEEK 2,4,2025-04-21,14
STUDY001,LB,STUDY001-SUBJ0004,36,L00036,BUN,Blood Urea Nitrogen,CHEMISTRY,15.59,mg/dL,7.0,20.0,15.59,15.59,mg/dL,7.0,20.0,NORMAL,,WEEK 2,4,2025-04-21,14
STUDY001,LB,STUDY001-SUBJ0004,37,L00037,CREAT,Creatinine,CHEMISTRY,0.82,mg/dL,0.6,1.2,0.82,0.82,mg/dL,0.6,1.2,NORMAL,,WEEK 2,4,2025-04-21,14
STUDY001,LB,STUDY001-SUBJ0004,38,L00038,BILI,Total Bilirubin,CHEMISTRY,0.94,mg/dL,0.1,1.2,0.94,0.94,mg/dL,0.1,1.2,NORMAL,,WEEK 2,4,2025-04-21,14
STUDY001,LB,STUDY001-SUBJ0004,39,L00039,ALP,Alkaline Phosphatase,CHEMISTRY,109.92,U/L,44.0,147.0,109.92,109.92,U/L,44.0,147.0,NORMAL,,WEEK 2,4,2025-04-21,14
STUDY001,LB,STUDY001-SUBJ0004,40,L00040,ALT,Alanine Aminotransferase,CHEMISTRY,29.19,U/L,7.0,56.0,29.19,29.19,U/L,7.0,56.0,NORMAL,,WEEK 2,4,2025-04-21,14
STUDY001,LB,STUDY001-SUBJ0004,41,L00041,HGB,Hemoglobin,HEMATOLOGY,14.58,g/dL,13.5,17.5,14.58,14.58,g/dL,13.5,17.5,NORMAL,,WEEK 4,5,2025-05-05,28
STUDY001,LB,STUDY001-SUBJ0004,42,L00042,HCT,Hematocrit,HEMATOLOGY,49.95,%,41.0,51.0,49.95,49.95,%,41.0,51.0,NORMAL,,WEEK 4,5,2025-05-05,28
STUDY001,LB,STUDY001-SUBJ0004,43,L00043,WBC,White Blood Cell Count,HEMATOLOGY,5.12,10^9/L,4.5,11.0,5.12,5.12,10^9/L,4.5,11.0,NORMAL,,WEEK 4,5,2025-05-05,28
STUDY001,LB,STUDY001-SUBJ0004,44,L00044,PLT,Platelet Count,HEMATOLOGY,287.31,10^9/L,150.0,450.0,287.31,287.31,10^9/L,150.0,450.0,NORMAL,,WEEK 4,5,2025-05-05,28
STUDY001,LB,STUDY001-SUBJ0004,45,L00045,GLUC,Glucose,CHEMISTRY,86.12,mg/dL,70.0,100.0,86.12,86.12,mg/dL,70.0,100.0,NORMAL,,WEEK 4,5,2025-05-05,28
STUDY001,LB,STUDY001-SUBJ0004,46,L00046,BUN,Blood Urea Nitrogen,CHEMISTRY,15.28,mg/dL,7.0,20.0,15.28,15.28,mg/dL,7.0,20.0,NORMAL,,WEEK 4,5,2025-05-05,28
STUDY001,LB,STUDY001-SUBJ0004,47,L00047,CREAT,Creatinine,CHEMISTRY,0.87,mg/dL,0.6,1.2,0.87,0.87,mg/dL,0.6,1.2,NORMAL,,WEEK 4,5,2025-05-05,28
STUDY001,LB,STUDY001-SUBJ0004,48,L00048,BILI,Total Bilirubin,CHEMISTRY,0.94,mg/dL,0.1,1.2,0.94,0.94,mg/dL,0.1,1.2,NORMAL,,WEEK 4,5,2025-05-05,28
STUDY001,LB,STUDY001-SUBJ0004,49,L00049,ALP,Alkaline Phosphatase,CHEMISTRY,107.27,U/L,44.0,147.0,107.27,107.27,U/L,44.0,147.0,NORMAL,,WEEK 4,5,2025-05-05,28
STUDY001,LB,STUDY001-SUBJ0004,50,L00050,ALT,Alanine Aminotransferase,CHEMISTRY,30.0,U/L,7.0,56.0,30.0,30.0,U/L,7.0,56.0,NORMAL,,WEEK 4,5,2025-05-05,28
STUDY001,LB,STUDY001-SUBJ0004,51,L00051,HGB,Hemoglobin,HEMATOLOGY,14.49,g/dL,13.5,17.5,14.49,14.49,g/dL,13.5,17.5,NORMAL,,WEEK 8,6,2025-06-02,56
STUDY001,LB,STUDY001-SUBJ0004,52,L00052,HCT,Hematocrit,HEMATOLOGY,50.08,%,41.0,51.0,50.08,50.08,%,41.0,51.0,NORMAL,,WEEK 8,6,2025-06-02,56
STUDY001,LB,STUDY001-SUBJ0004,53,L00053,WBC,White Blood Cell Count,HEMATOLOGY,5.06,10^9/L,4.5,11.0,5.06,5.06,10^9/L,4.5,11.0,NORMAL,,WEEK 8,6,2025-06-02,56
STUDY001,LB,STUDY001-SUBJ0004,54,L00054,PLT,Platelet Count,HEMATOLOGY,280.24,10^9/L,150.0,450.0,280.24,280.24,10^9/L,150.0,450.0,NORMAL,,WEEK 8,6,2025-06-02,56
STUDY001,LB,STUDY001-SUBJ0004,55,L00055,GLUC,Glucose,CHEMISTRY,85.71,mg/dL,70.0,100.0,85.71,85.71,mg/dL,70.0,100.0,NORMAL,,WEEK 8,6,2025-06-02,56
STUDY001,LB,STUDY001-SUBJ0004,56,L00056,BUN,Blood Urea Nitrogen,CHEMISTRY,15.89,mg/dL,7.0,20.0,15.89,15.89,mg/dL,7.0,20.0,NORMAL,,WEEK 8,6,2025-06-02,56
STUDY001,LB,STUDY001-SUBJ0004,57,L00057,CREAT,Creatinine,CHEMISTRY,0.85,mg/dL,0.6,1.2,0.85,0.85,mg/dL,0.6,1.2,NORMAL,,WEEK 8,6,2025-06-02,56
STUDY001,LB,STUDY001-SUBJ0004,58,L00058,BILI,Total Bilirubin,CHEMISTRY,0.95,mg/dL,0.1,1.2,0.95,0.95,mg/dL,0.1,1.2,NORMAL,,WEEK 8,6,2025-06-02,56
STUDY001,LB,STUDY001-SUBJ0004,59,L00059,ALP,Alkaline Phosphatase,CHEMISTRY,112.45,U/L,44.0,147.0,112.45,112.45,U/L,44.0,147.0,NORMAL,,WEEK 8,6,2025-06-02,56
STUDY001,LB,STUDY001-SUBJ0004,60,L00060,ALT,Alanine Aminotransferase,CHEMISTRY,28.88,U/L,7.0,56.0,28.88,28.88,U/L,7.0,56.0,NORMAL,,WEEK 8,6,2025-06-02,56
STUDY001,LB,STUDY001-SUBJ0004,61,L00061,HGB,Hemoglobin,HEMATOLOGY,14.36,g/dL,13.5,17.5,14.36,14.36,g/dL,13.5,17.5,NORMAL,,WEEK 12,7,2025-06-30,84
STUDY001,LB,STUDY001-SUBJ0004,62,L00062,HCT,Hematocrit,HEMATOLOGY,49.79,%,41.0,51.0,49.79,49.79,%,41.0,51.0,NORMAL,,WEEK 12,7,2025-06-30,84
STUDY001,LB,STUDY001-SUBJ0004,63,L00063,WBC,White Blood Cell Count,HEMATOLOGY,5.35,10^9/L,4.5,11.0,5.35,5.35,10^9/L,4.5,11.0,NORMAL,,WEEK 12,7,2025-06-30,84
STUDY001,LB,STUDY001-SUBJ0004,64,L00064,PLT,Platelet Count,HEMATOLOGY,279.5,10^9/L,150.0,450.0,279.5,279.5,10^9/L,150.0,450.0,NORMAL,,WEEK 12,7,2025-06-30,84
STUDY001,LB,STUDY001-SUBJ0004,65,L00065,GLUC,Glucose,CHEMISTRY,85.14,mg/dL,70.0,100.0,85.14,85.14,mg/dL,70.0,100.0,NORMAL,,WEEK 12,7,2025-06-30,84
STUDY001,LB,STUDY001-SUBJ0004,66,L00066,BUN,Blood Urea Nitrogen,CHEMISTRY,14.89,mg/dL,7.0,20.0,14.89,14.89,mg/dL,7.0,20.0,NORMAL,,WEEK 12,7,2025-06-30,84
STUDY001,LB,STUDY001-SUBJ0004,67,L00067,CREAT,Creatinine,CHEMISTRY,0.85,mg/dL,0.6,1.2,0.85,0.85,mg/dL,0.6,1.2,NORMAL,,WEEK 12,7,2025-06-30,84
STUDY001,LB,STUDY001-SUBJ0004,68,L00068,BILI,Total Bilirubin,CHEMISTRY,0.94,mg/dL,0.1,1.2,0.94,0.94,mg/dL,0.1,1.2,NORMAL,,WEEK 12,7,2025-06-30,84
STUDY001,LB,STUDY001-SUBJ0004,69,L00069,ALP,Alkaline Phosphatase,CHEMISTRY,109.64,U/L,44.0,147.0,109.64,109.64,U/L,44.0,147.0,NORMAL,,WEEK 12,7,2025-06-30,84
STUDY001,LB,STUDY001-SUBJ0004,70,L00070,ALT,Alanine Aminotransferase,CHEMISTRY,28.27,U/L,7.0,56.0,28.27,28.27,U/L,7.0,56.0,NORMAL,,WEEK 12,7,2025-06-30,84
STUDY001,LB,STUDY001-SUBJ0004,71,L00071,HGB,Hemoglobin,HEMATOLOGY,14.62,g/dL,13.5,17.5,14.62,14.62,g/dL,13.5,17.5,NORMAL,,WEEK 16,8,2025-07-28,112
STUDY001,LB,STUDY001-SUBJ0004,72,L00072,HCT,Hematocrit,HEMATOLOGY,49.88,%,41.0,51.0,49.88,49.88,%,41.0,51.0,NORMAL,,WEEK 16,8,2025-07-28,112
STUDY001,LB,STUDY001-SUBJ0004,73,L00073,WBC,White Blood Cell Count,HEMATOLOGY,4.91,10^9/L,4.5,11.0,4.91,4.91,10^9/L,4.5,11.0,NORMAL,,WEEK 16,8,2025-07-28,112
STUDY001,LB,STUDY001-SUBJ0004,74,L00074,PLT,Platelet Count,HEMATOLOGY,289.41,10^9/L,150.0,450.0,289.41,289.41,10^9/L,150.0,450.0,NORMAL,,WEEK 16,8,2025-07-28,112
STUDY001,LB,STUDY001-SUBJ0004,75,L00075,GLUC,Glucose,CHEMISTRY,85.57,mg/dL,70.0,100.0,85.57,85.57,mg/dL,70.0,100.0,NORMAL,,WEEK 16,8,2025-07-28,112
STUDY001,LB,STUDY001-SUBJ0004,76,L00076,BUN,Blood Urea Nitrogen,CHEMISTRY,14.94,mg/dL,7.0,20.0,14.94,14.94,mg/dL,7.0,20.0,NORMAL,,WEEK 16,8,2025-07-28,112
STUDY001,LB,STUDY001-SUBJ0004,77,L00077,CREAT,Creatinine,CHEMISTRY,0.86,mg/dL,0.6,1.2,0.86,0.86,mg/dL,0.6,1.2,NORMAL,,WEEK 16,8,2025-07-28,112
STUDY001,LB,STUDY001-SUBJ0004,78,L00078,BILI,Total Bilirubin,CHEMISTRY,0.96,mg/dL,0.1,1.2,0.96,0.96,mg/dL,0.1,1.2,NORMAL,,WEEK 16,8,2025-07-28,112
STUDY001,LB,STUDY001-SUBJ0004,79,L00079,ALP,Alkaline Phosphatase,CHEMISTRY,109.7,U/L,44.0,147.0,109.7,109.7,U/L,44.0,147.0,NORMAL,,WEEK 16,8,2025-07-28,112
STUDY001,LB,STUDY001-SUBJ0004,80,L00080,ALT,Alanine Aminotransferase,CHEMISTRY,28.34,U/L,7.0,56.0,28.34,28.34,U/L,7.0,56.0,NORMAL,,WEEK 16,8,2025-07-28,112
STUDY001,LB,STUDY001-SUBJ0004,81,L00081,HGB,Hemoglobin,HEMATOLOGY,14.72,g/dL,13.5,17.5,14.72,14.72,g/dL,13.5,17.5,NORMAL,,END OF TREATMENT,9,2025-08-25,140
STUDY001,LB,STUDY001-SUBJ0004,82,L00082,HCT,Hematocrit,HEMATOLOGY,49.4,%,41.0,51.0,49.4,49.4,%,41.0,51.0,NORMAL,,END OF TREATMENT,9,2025-08-25,140
STUDY001,LB,STUDY001-SUBJ0004,83,L00083,WBC,White Blood Cell Count,HEMATOLOGY,5.46,10^9/L,4.5,11.0,5.46,5.46,10^9/L,4.5,11.0,NORMAL,,END OF TREATMENT,9,2025-08-25,140
STUDY001,LB,STUDY001-SUBJ0004,84,L00084,PLT,Platelet Count,HEMATOLOGY,283.63,10^9/L,150.0,450.0,283.63,283.63,10^9/L,150.0,450.0,NORMAL,,END OF TREATMENT,9,2025-08-25,140
STUDY001,LB,STUDY001-SUBJ0004,85,L00085,GLUC,Glucose,CHEMISTRY,83.69,mg/dL,70.0,100.0,83.69,83.69,mg/dL,70.0,100.0,NORMAL,,END OF TREATMENT,9,2025-08-25,140
STUDY001,LB,STUDY001-SUBJ0004,86,L00086,BUN,Blood Urea Nitrogen,CHEMISTRY,14.8,mg/dL,7.0,20.0,14.8,14.8,mg/dL,7.0,20.0,NORMAL,,END OF TREATMENT,9,2025-08-25,140
STUDY001,LB,STUDY001-SUBJ0004,87,L00087,CREAT,Creatinine,CHEMISTRY,0.85,mg/dL,0.6,1.2,0.85,0.85,mg/dL,0.6,1.2,NORMAL,,END OF TREATMENT,9,2025-08-25,140
STUDY001,LB,STUDY001-SUBJ0004,88,L00088,BILI,Total Bilirubin,CHEMISTRY,0.93,mg/dL,0.1,1.2,0.93,0.93,mg/dL,0.1,1.2,NORMAL,,END OF TREATMENT,9,2025-08-25,140
STUDY001,LB,STUDY001-SUBJ0004,89,L00089,ALP,Alkaline Phosphatase,CHEMISTRY,110.7,U/L,44.0,147.0,110.7,110.7,U/L,44.0,147.0,NORMAL,,END OF TREATMENT,9,2025-08-25,140
STUDY001,LB,STUDY001-SUBJ0004,90,L00090,ALT,Alanine Aminotransferase,CHEMISTRY,30.86,U/L,7.0,56.0,30.86,30.86,U/L,7.0,56.0,NORMAL,,END OF TREATMENT,9,2025-08-25,140
STUDY001,LB,STUDY001-SUBJ0005,1,L00001,HGB,Hemoglobin,HEMATOLOGY,14.99,g/dL,13.5,17.5,14.99,14.99,g/dL,13.5,17.5,NORMAL,,SCREENING,1,2025-03-29,-14
STUDY001,LB,STUDY001-SUBJ0005,2,L00002,HCT,Hematocrit,HEMATOLOGY,44.7,%,41.0,51.0,44.7,44.7,%,41.0,51.0,NORMAL,,SCREENING,1,2025-03-29,-14
STUDY001,LB,STUDY001-SUBJ0005,3,L00003,WBC,White Blood Cell Count,HEMATOLOGY,5.69,10^9/L,4.5,11.0,5.69,5.69,10^9/L,4.5,11.0,NORMAL,,SCREENING,1,2025-03-29,-14
STUDY001,LB,STUDY001-SUBJ0005,4,L00004,PLT,Platelet Count,HEMATOLOGY,365.31,10^9/L,150.0,450.0,365.31,365.31,10^9/L,150.0,450.0,NORMAL,,SCREENING,1,2025-03-29,-14
STUDY001,LB,STUDY001-SUBJ0005,5,L00005,GLUC,Glucose,CHEMISTRY,70.8,mg/dL,70.0,100.0,70.8,70.8,mg/dL,70.0,100.0,NORMAL,,SCREENING,1,2025-03-29,-14
STUDY001,LB,STUDY001-SUBJ0005,6,L00006,BUN,Blood Urea Nitrogen,CHEMISTRY,7.66,mg/dL,7.0,20.0,7.66,7.66,mg/dL,7.0,20.0,NORMAL,,SCREENING,1,2025-03-29,-14
STUDY001,LB,STUDY001-SUBJ0005,7,L00007,CREAT,Creatinine,CHEMISTRY,0.75,mg/dL,0.6,1.2,0.75,0.75,mg/dL,0.6,1.2,NORMAL,,SCREENING,1,2025-03-29,-14
STUDY001,LB,STUDY001-SUBJ0005,8,L00008,BILI,Total Bilirubin,CHEMISTRY,0.67,mg/dL,0.1,1.2,0.67,0.67,mg/dL,0.1,1.2,NORMAL,,SCREENING,1,2025-03-29,-14
STUDY001,LB,STUDY001-SUBJ0005,9,L00009,ALP,Alkaline Phosphatase,CHEMISTRY,86.8,U/L,44.0,147.0,86.8,86.8,U/L,44.0,147.0,NORMAL,,SCREENING,1,2025-03-29,-14
STUDY001,LB,STUDY001-SUBJ0005,10,L00010,ALT,Alanine Aminotransferase,CHEMISTRY,47.33,U/L,7.0,56.0,47.33,47.33,U/L,7.0,56.0,NORMAL,,SCREENING,1,2025-03-29,-14
STUDY001,LB,STUDY001-SUBJ0005,11,L00011,HGB,Hemoglobin,HEMATOLOGY,15.14,g/dL,13.5,17.5,15.14,15.14,g/dL,13.5,17.5,NORMAL,Y,BASELINE,2,2025-04-12,1
STUDY001,LB,STUDY001-SUBJ0005,12,L00012,HCT,Hematocrit,HEMATOLOGY,45.41,%,41.0,51.0,45.41,45.41,%,41.0,51.0,NORMAL,Y,BASELINE,2,2025-04-12,1
STUDY001,LB,STUDY001-SUBJ0005,13,L00013,WBC,White Blood Cell Count,HEMATOLOGY,5.48,10^9/L,4.5,11.0,5.48,5.48,10^9/L,4.5,11.0,NORMAL,Y,BASELINE,2,2025-04-12,1
STUDY001,LB,STUDY001-SUBJ0005,14,L00014,PLT,Platelet Count,HEMATOLOGY,370.25,10^9/L,150.0,450.0,370.25,370.25,10^9/L,150.0,450.0,NORMAL,Y,BASELINE,2,2025-04-12,1
STUDY001,LB,STUDY001-SUBJ0005,15,L00015,GLUC,Glucose,CHEMISTRY,70.57,mg/dL,70.0,100.0,70.57,70.57,mg/dL,70.0,100.0,NORMAL,Y,BASELINE,2,2025-04-12,1
STUDY001,LB,STUDY001-SUBJ0005,16,L00016,BUN,Blood Urea Nitrogen,CHEMISTRY,8.08,mg/dL,7.0,20.0,8.08,8.08,mg/dL,7.0,20.0,NORMAL,Y,BASELINE,2,2025-04-12,1
STUDY001,LB,STUDY001-SUBJ0005,17,L00017,CREAT,Creatinine,CHEMISTRY,0.77,mg/dL,0.6,1.2,0.77,0.77,mg/dL,0.6,1.2,NORMAL,Y,BASELINE,2,2025-04-12,1
STUDY001,LB,STUDY001-SUBJ0005,18,L00018,BILI,Total Bilirubin,CHEMISTRY,0.67,mg/dL,0.1,1.2,0.67,0.67,mg/dL,0.1,1.2,NORMAL,Y,BASELINE,2,2025-04-12,1
STUDY001,LB,STUDY001-SUBJ0005,19,L00019,ALP,Alkaline Phosphatase,CHEMISTRY,84.8,U/L,44.0,147.0,84.8,84.8,U/L,44.0,147.0,NORMAL,Y,BASELINE,2,2025-04-12,1
STUDY001,LB,STUDY001-SUBJ0005,20,L00020,ALT,Alanine Aminotransferase,CHEMISTRY,45.29,U/L,7.0,56.0,45.29,45.29,U/L,7.0,56.0,NORMAL,Y,BASELINE,2,2025-04-12,1
STUDY001,LB,STUDY001-SUBJ0005,21,L00021,HGB,Hemoglobin,HEMATOLOGY,15.13,g/dL,13.5,17.5,15.13,15.13,g/dL,13.5,17.5,NORMAL,,WEEK 1,3,2025-04-18,7
STUDY001,LB,STUDY001-SUBJ0005,22,L00022,HCT,Hematocrit,HEMATOLOGY,44.9,%,41.0,51.0,44.9,44.9,%,41.0,51.0,NORMAL,,WEEK 1,3,2025-04-18,7
STUDY001,LB,STUDY001-SUBJ0005,23,L00023,WBC,White Blood Cell Count,HEMATOLOGY,5.37,10^9/L,4.5,11.0,5.37,5.37,10^9/L,4.5,11.0,NORMAL,,WEEK 1,3,2025-04-18,7
STUDY001,LB,STUDY001-SUBJ0005,24,L00024,PLT,Platelet Count,HEMATOLOGY,370.39,10^9/L,150.0,450.0,370.39,370.39,10^9/L,150.0,450.0,NORMAL,,WEEK 1,3,2025-04-18,7
STUDY001,LB,STUDY001-SUBJ0005,25,L00025,GLUC,Glucose,CHEMISTRY,72.7,mg/dL,70.0,100.0,72.7,72.7,mg/dL,70.0,100.0,NORMAL,,WEEK 1,3,2025-04-18,7
STUDY001,LB,STUDY001-SUBJ0005,26,L00026,BUN,Blood Urea Nitrogen,CHEMISTRY,7.59,mg/dL,7.0,20.0,7.59,7.59,mg/dL,7.0,20.0,NORMAL,,WEEK 1,3,2025-04-18,7
STUDY001,LB,STUDY001-SUBJ0005,27,L00027,CREAT,Creatinine,CHEMISTRY,0.77,mg/dL,0.6,1.2,0.77,0.77,mg/dL,0.6,1.2,NORMAL,,WEEK 1,3,2025-04-18,7
STUDY001,LB,STUDY001-SUBJ0005,28,L00028,BILI,Total Bilirubin,CHEMISTRY,0.67,mg/dL,0.1,1.2,0.67,0.67,mg/dL,0.1,1.2,NORMAL,,WEEK 1,3,2025-04-18,7
STUDY001,LB,STUDY001-SUBJ0005,29,L00029,ALP,Alkaline Phosphatase,CHEMISTRY,84.2,U/L,44.0,147.0,84.2,84.2,U/L,44.0,147.0,NORMAL,,WEEK 1,3,2025-04-18,7
STUDY001,LB,STUDY001-SUBJ0005,30,L00030,ALT,Alanine Aminotransferase,CHEMISTRY,46.69,U/L,7.0,56.0,46.69,46.69,U/L,7.0,56.0,NORMAL,,WEEK 1,3,2025-04-18,7
STUDY001,LB,STUDY001-SUBJ0005,31,L00031,HGB,Hemoglobin,HEMATOLOGY,15.11,g/dL,13.5,17.5,15.11,15.11,g/dL,13.5,17.5,NORMAL,,WEEK 2,4,2025-04-25,14
STUDY001,LB,STUDY001-SUBJ0005,32,L00032,HCT,Hematocrit,HEMATOLOGY,44.67,%,41.0,51.0,44.67,44.67,%,41.0,51.0,NORMAL,,WEEK 2,4,2025-04-25,14
STUDY001,LB,STUDY001-SUBJ0005,33,L00033,WBC,White Blood Cell Count,HEMATOLOGY,5.87,10^9/L,4.5,11.0,5.87,5.87,10^9/L,4.5,11.0,NORMAL,,WEEK 2,4,2025-04-25,14
STUDY001,LB,STUDY001-SUBJ0005,34,L00034,PLT,Platelet Count,HEMATOLOGY,359.99,10^9/L,150.0,450.0,359.99,359.99,10^9/L,150.0,450.0,NORMAL,,WEEK 2,4,2025-04-25,14
STUDY001,LB,STUDY001-SUBJ0005,35,L00035,GLUC,Glucose,CHEMISTRY,71.16,mg/dL,70.0,100.0,71.16,71.16,mg/dL,70.0,100.0,NORMAL,,WEEK 2,4,2025-04-25,14
STUDY001,LB,STUDY001-SUBJ0005,36,L00036,BUN,Blood Urea Nitrogen,CHEMISTRY,7.37,mg/dL,7.0,20.0,7.37,7.37,mg/dL,7.0,20.0,NORMAL,,WEEK 2,4,2025-04-25,14
STUDY001,LB,STUDY001-SUBJ0005,37,L00037,CREAT,Creatinine,CHEMISTRY,0.75,mg/dL,0.6,1.2,0.75,0.75,mg/dL,0.6,1.2,NORMAL,,WEEK 2,4,2025-04-25,14
STUDY001,LB,STUDY001-SUBJ0005,38,L00038,BILI,Total Bilirubin,CHEMISTRY,0.66,mg/dL,0.1,1.2,0.66,0.66,mg/dL,0.1,1.2,NORMAL,,WEEK 2,4,2025-04-25,14
STUDY001,LB,STUDY001-SUBJ0005,39,L00039,ALP,Alkaline Phosphatase,CHEMISTRY,81.11,U/L,44.0,147.0,81.11,81.11,U/L,44.0,147.0,NORMAL,,WEEK 2,4,2025-04-25,14
STUDY001,LB,STUDY001-SUBJ0005,40,L00040,ALT,Alanine Aminotransferase,CHEMISTRY,49.07,U/L,7.0,56.0,49.07,49.07,U/L,7.0,56.0,NORMAL,,WEEK 2,4,2025-04-25,14
STUDY001,LB,STUDY001-SUBJ0005,41,L00041,HGB,Hemoglobin,HEMATOLOGY,15.19,g/dL,13.5,17.5,15.19,15.19,g/dL,13.5,17.5,NORMAL,,WEEK 4,5,2025-05-09,28
STUDY001,LB,STUDY001-SUBJ0005,42,L00042,HCT,Hematocrit,HEMATOLOGY,44.66,%,41.0,51.0,44.66,44.66,%,41.0,51.0,NORMAL,,WEEK 4,5,2025-05-09,28
STUDY001,LB,STUDY001-SUBJ0005,43,L00043,WBC,White Blood Cell Count,HEMATOLOGY,5.62,10^9/L,4.5,11.0,5.62,5.62,10^9/L,4.5,11.0,NORMAL,,WEEK 4,5,2025-05-09,28
STUDY001,LB,STUDY001-SUBJ0005,44,L00044,PLT,Platelet Count,HEMATOLOGY,365.57,10^9/L,150.0,450.0,365.57,365.57,10^9/L,150.0,450.0,NORMAL,,WEEK 4,5,2025-05-09,28
STUDY001,LB,STUDY001-SUBJ0005,45,L00045,GLUC,Glucose,CHEMISTRY,71.21,mg/dL,70.0,100.0,71.21,71.21,mg/dL,70.0,100.0,NORMAL,,WEEK 4,5,2025-05-09,28
STUDY001,LB,STUDY001-SUBJ0005,46,L00046,BUN,Blood Urea Nitrogen,CHEMISTRY,7.68,mg/dL,7.0,20.0,7.68,7.68,mg/dL,7.0,20.0,NORMAL,,WEEK 4,5,2025-05-09,28
STUDY001,LB,STUDY001-SUBJ0005,47,L00047,CREAT,Creatinine,CHEMISTRY,0.75,mg/dL,0.6,1.2,0.75,0.75,mg/dL,0.6,1.2,NORMAL,,WEEK 4,5,2025-05-09,28
STUDY001,LB,STUDY001-SUBJ0005,48,L00048,BILI,Total Bilirubin,CHEMISTRY,0.64,mg/dL,0.1,1.2,0.64,0.64,mg/dL,0.1,1.2,NORMAL,,WEEK 4,5,2025-05-09,28
STUDY001,LB,STUDY001-SUBJ0005,49,L00049,ALP,Alkaline Phosphatase,CHEMISTRY,82.0,U/L,44.0,147.0,82.0,82.0,U/L,44.0,147.0,NORMAL,,WEEK 4,5,2025-05-09,28
STUDY001,LB,STUDY001-SUBJ0005,50,L00050,ALT,Alanine Aminotransferase,CHEMISTRY,46.14,U/L,7.0,56.0,46.14,46.14,U/L,7.0,56.0,NORMAL,,WEEK 4,5,2025-05-09,28
STUDY001,LB,STUDY001-SUBJ0005,51,L00051,HGB,Hemoglobin,HEMATOLOGY,15.1,g/dL,13.5,17.5,15.1,15.1,g/dL,13.5,17.5,NORMAL,,WEEK 8,6,2025-06-06,56
STUDY001,LB,STUDY001-SUBJ0005,52,L00052,HCT,Hematocrit,HEMATOLOGY,44.63,%,41.0,51.0,44.63,44.63,%,41.0,51.0,NORMAL,,WEEK 8,6,2025-06-06,56
STUDY001,LB,STUDY001-SUBJ0005,53,L00053,WBC,White Blood Cell Count,HEMATOLOGY,5.7,10^9/L,4.5,11.0,5.7,5.7,10^9/L,4.5,11.0,NORMAL,,WEEK 8,6,2025-06-06,56
STUDY001,LB,STUDY001-SUBJ0005,54,L00054,PLT,Platelet Count,HEMATOLOGY,373.77,10^9/L,150.0,450.0,373.77,373.77,10^9/L,150.0,450.0,NORMAL,,WEEK 8,6,2025-06-06,56
STUDY001,LB,STUDY001-SUBJ0005,55,L00055,GLUC,Glucose,CHEMISTRY,71.63,mg/dL,70.0,100.0,71.63,71.63,mg/dL,70.0,100.0,NORMAL,,WEEK 8,6,2025-06-06,56
STUDY001,LB,STUDY001-SUBJ0005,56,L00056,BUN,Blood Urea Nitrogen,CHEMISTRY,7.29,mg/dL,7.0,20.0,7.29,7.29,mg/dL,7.0,20.0,NORMAL,,WEEK 8,6,2025-06-06,56
STUDY001,LB,STUDY001-SUBJ0005,57,L00057,CREAT,Creatinine,CHEMISTRY,0.75,mg/dL,0.6,1.2,0.75,0.75,mg/dL,0.6,1.2,NORMAL,,WEEK 8,6,2025-06-06,56
STUDY001,LB,STUDY001-SUBJ0005,58,L00058,BILI,Total Bilirubin,CHEMISTRY,0.7,mg/dL,0.1,1.2,0.7,0.7,mg/dL,0.1,1.2,NORMAL,,WEEK 8,6,2025-06-06,56
STUDY001,LB,STUDY001-SUBJ0005,59,L00059,ALP,Alkaline Phosphatase,CHEMISTRY,86.15,U/L,44.0,147.0,86.15,86.15,U/L,44.0,147.0,NORMAL,,WEEK 8,6,2025-06-06,56
STUDY001,LB,STUDY001-SUBJ0005,60,L00060,ALT,Alanine Aminotransferase,CHEMISTRY,48.06,U/L,7.0,56.0,48.06,48.06,U/L,7.0,56.0,NORMAL,,WEEK 8,6,2025-06-06,56
STUDY001,LB,STUDY001-SUBJ0005,61,L00061,HGB,Hemoglobin,HEMATOLOGY,15.34,g/dL,13.5,17.5,15.34,15.34,g/dL,13.5,17.5,NORMAL,,WEEK 12,7,2025-07-04,84
STUDY001,LB,STUDY001-SUBJ0005,62,L00062,HCT,Hematocrit,HEMATOLOGY,44.71,%,41.0,51.0,44.71,44.71,%,41.0,51.0,NORMAL,,WEEK 12,7,2025-07-04,84
STUDY001,LB,STUDY001-SUBJ0005,63,L00063,WBC,White Blood Cell Count,HEMATOLOGY,5.53,10^9/L,4.5,11.0,5.53,5.53,10^9/L,4.5,11.0,NORMAL,,WEEK 12,7,2025-07-04,84
STUDY001,LB,STUDY001-SUBJ0005,64,L00064,PLT,Platelet Count,HEMATOLOGY,372.89,10^9/L,150.0,450.0,372.89,372.89,10^9/L,150.0,450.0,NORMAL,,WEEK 12,7,2025-07-04,84
STUDY001,LB,STUDY001-SUBJ0005,65,L00065,GLUC,Glucose,CHEMISTRY,71.74,mg/dL,70.0,100.0,71.74,71.74,mg/dL,70.0,100.0,NORMAL,,WEEK 12,7,2025-07-04,84
STUDY001,LB,STUDY001-SUBJ0005,66,L00066,BUN,Blood Urea Nitrogen,CHEMISTRY,7.17,mg/dL,7.0,20.0,7.17,7.17,mg/dL,7.0,20.0,NORMAL,,WEEK 12,7,2025-07-04,84
STUDY001,LB,STUDY001-SUBJ0005,67,L00067,CREAT,Creatinine,CHEMISTRY,0.74,mg/dL,0.6,1.2,0.74,0.74,mg/dL,0.6,1.2,NORMAL,,WEEK 12,7,2025-07-04,84
STUDY001,LB,STUDY001-SUBJ0005,68,L00068,BILI,Total Bilirubin,CHEMISTRY,0.68,mg/dL,0.1,1.2,0.68,0.68,mg/dL,0.1,1.2,NORMAL,,WEEK 12,7,2025-07-04,84
STUDY001,LB,STUDY001-SUBJ0005,69,L00069,ALP,Alkaline Phosphatase,CHEMISTRY,79.32,U/L,44.0,147.0,79.32,79.32,U/L,44.0,147.0,NORMAL,,WEEK 12,7,2025-07-04,84
STUDY001,LB,STUDY001-SUBJ0005,70,L00070,ALT,Alanine Aminotransferase,CHEMISTRY,47.17,U/L,7.0,56.0,47.17,47.17,U/L,7.0,56.0,NORMAL,,WEEK 12,7,2025-07-04,84
STUDY001,LB,STUDY001-SUBJ0005,71,L00071,HGB,Hemoglobin,HEMATOLOGY,15.13,g/dL,13.5,17.5,15.13,15.13,g/dL,13.5,17.5,NORMAL,,WEEK 16,8,2025-08-01,112
STUDY001,LB,STUDY001-SUBJ0005,72,L00072,HCT,Hematocrit,HEMATOLOGY,44.84,%,41.0,51.0,44.84,44.84,%,41.0,51.0,NORMAL,,WEEK 16,8,2025-08-01,112
STUDY001,LB,STUDY001-SUBJ0005,73,L00073,WBC,White Blood Cell Count,HEMATOLOGY,5.66,10^9/L,4.5,11.0,5.66,5.66,10^9/L,4.5,11.0,NORMAL,,WEEK 16,8,2025-08-01,112
STUDY001,LB,STUDY001-SUBJ0005,74,L00074,PLT,Platelet Count,HEMATOLOGY,365.93,10^9/L,150.0,450.0,365.93,365.93,10^9/L,150.0,450.0,NORMAL,,WEEK 16,8,2025-08-01,112
STUDY001,LB,STUDY001-SUBJ0005,75,L00075,GLUC,Glucose,CHEMISTRY,72.06,mg/dL,70.0,100.0,72.06,72.06,mg/dL,70.0,100.0,NORMAL,,WEEK 16,8,2025-08-01,112
STUDY001,LB,STUDY001-SUBJ0005,76,L00076,BUN,Blood Urea Nitrogen,CHEMISTRY,7.55,mg/dL,7.0,20.0,7.55,7.55,mg/dL,7.0,20.0,NORMAL,,WEEK 16,8,2025-08-01,112
STUDY001,LB,STUDY001-SUBJ0005,77,L00077,CREAT,Creatinine,CHEMISTRY,0.75,mg/dL,0.6,1.2,0.75,0.75,mg/dL,0.6,1.2,NORMAL,,WEEK 16,8,2025-08-01,112
STUDY001,LB,STUDY001-SUBJ0005,78,L00078,BILI,Total Bilirubin,CHEMISTRY,0.66,mg/dL,0.1,1.2,0.66,0.66,mg/dL,0.1,1.2,NORMAL,,WEEK 16,8,2025-08-01,112
STUDY001,LB,STUDY001-SUBJ0005,79,L00079,ALP,Alkaline Phosphatase,CHEMISTRY,86.05,U/L,44.0,147.0,86.05,86.05,U/L,44.0,147.0,NORMAL,,WEEK 16,8,2025-08-01,112
STUDY001,LB,STUDY001-SUBJ0005,80,L00080,ALT,Alanine Aminotransferase,CHEMISTRY,46.8,U/L,7.0,56.0,46.8,46.8,U/L,7.0,56.0,NORMAL,,WEEK 16,8,2025-08-01,112
STUDY001,LB,STUDY001-SUBJ0005,81,L00081,HGB,Hemoglobin,HEMATOLOGY,14.96,g/dL,13.5,17.5,14.96,14.96,g/dL,13.5,17.5,NORMAL,,END OF TREATMENT,9,2025-08-29,140
STUDY001,LB,STUDY001-SUBJ0005,82,L00082,HCT,Hematocrit,HEMATOLOGY,44.74,%,41.0,51.0,44.74,44.74,%,41.0,51.0,NORMAL,,END OF TREATMENT,9,2025-08-29,140
STUDY001,LB,STUDY001-SUBJ0005,83,L00083,WBC,White Blood Cell Count,HEMATOLOGY,5.64,10^9/L,4.5,11.0,5.64,5.64,10^9/L,4.5,11.0,NORMAL,,END OF TREATMENT,9,2025-08-29,140
STUDY001,LB,STUDY001-SUBJ0005,84,L00084,PLT,Platelet Count,HEMATOLOGY,362.87,10^9/L,150.0,450.0,362.87,362.87,10^9/L,150.0,450.0,NORMAL,,END OF TREATMENT,9,2025-08-29,140
STUDY001,LB,STUDY001-SUBJ0005,85,L00085,GLUC,Glucose,CHEMISTRY,70.68,mg/dL,70.0,100.0,70.68,70.68,mg/dL,70.0,100.0,NORMAL,,END OF TREATMENT,9,2025-08-29,140
STUDY001,LB,STUDY001-SUBJ0005,86,L00086,BUN,Blood Urea Nitrogen,CHEMISTRY,7.7,mg/dL,7.0,20.0,7.7,7.7,mg/dL,7.0,20.0,NORMAL,,END OF TREATMENT,9,2025-08-29,140
STUDY001,LB,STUDY001-SUBJ0005,87,L00087,CREAT,Creatinine,CHEMISTRY,0.77,mg/dL,0.6,1.2,0.77,0.77,mg/dL,0.6,1.2,NORMAL,,END OF TREATMENT,9,2025-08-29,140
STUDY001,LB,STUDY001-SUBJ0005,88,L00088,BILI,Total Bilirubin,CHEMISTRY,0.68,mg/dL,0.1,1.2,0.68,0.68,mg/dL,0.1,1.2,NORMAL,,END OF TREATMENT,9,2025-08-29,140
STUDY001,LB,STUDY001-SUBJ0005,89,L00089,ALP,Alkaline Phosphatase,CHEMISTRY,82.54,U/L,44.0,147.0,82.54,82.54,U/L,44.0,147.0,NORMAL,,END OF TREATMENT,9,2025-08-29,140
STUDY001,LB,STUDY001-SUBJ0005,90,L00090,ALT,Alanine Aminotransferase,CHEMISTRY,47.19,U/L,7.0,56.0,47.19,47.19,U/L,7.0,56.0,NORMAL,,END OF TREATMENT,9,2025-08-29,140
STUDY001,LB,STUDY001-SUBJ0006,1,L00001,HGB,Hemoglobin,HEMATOLOGY,15.53,g/dL,13.5,17.5,15.53,15.53,g/dL,13.5,17.5,NORMAL,,SCREENING,1,2024-12-15,-14
STUDY001,LB,STUDY001-SUBJ0006,2,L00002,HCT,Hematocrit,HEMATOLOGY,40.45,%,41.0,51.0,40.45,40.45,%,41.0,51.0,LOW,,SCREENING,1,2024-12-15,-14
STUDY001,LB,STUDY001-SUBJ0006,3,L00003,WBC,White Blood Cell Count,HEMATOLOGY,6.14,10^9/L,4.5,11.0,6.14,6.14,10^9/L,4.5,11.0,NORMAL,,SCREENING,1,2024-12-15,-14
STUDY001,LB,STUDY001-SUBJ0006,4,L00004,PLT,Platelet Count,HEMATOLOGY,328.67,10^9/L,150.0,450.0,328.67,328.67,10^9/L,150.0,450.0,NORMAL,,SCREENING,1,2024-12-15,-14
STUDY001,LB,STUDY001-SUBJ0006,5,L00005,GLUC,Glucose,CHEMISTRY,97.29,mg/dL,70.0,100.0,97.29,97.29,mg/dL,70.0,100.0,NORMAL,,SCREENING,1,2024-12-15,-14
STUDY001,LB,STUDY001-SUBJ0006,6,L00006,BUN,Blood Urea Nitrogen,CHEMISTRY,3.95,mg/dL,7.0,20.0,3.95,3.95,mg/dL,7.0,20.0,LOW,,SCREENING,1,2024-12-15,-14
STUDY001,LB,STUDY001-SUBJ0006,7,L00007,CREAT,Creatinine,CHEMISTRY,0.95,mg/dL,0.6,1.2,0.95,0.95,mg/dL,0.6,1.2,NORMAL,,SCREENING,1,2024-12-15,-14
STUDY001,LB,STUDY001-SUBJ0006,8,L00008,BILI,Total Bilirubin,CHEMISTRY,0.74,mg/dL,0.1,1.2,0.74,0.74,mg/dL,0.1,1.2,NORMAL,,SCREENING,1,2024-12-15,-14
STUDY001,LB,STUDY001-SUBJ0006,9,L00009,ALP,Alkaline Phosphatase,CHEMISTRY,135.76,U/L,44.0,147.0,135.76,135.76,U/L,44.0,147.0,NORMAL,,SCREENING,1,2024-12-15,-14
STUDY001,LB,STUDY001-SUBJ0006,10,L00010,ALT,Alanine Aminotransferase,CHEMISTRY,23.14,U/L,7.0,56.0,23.14,23.14,U/L,7.0,56.0,NORMAL,,SCREENING,1,2024-12-15,-14
STUDY001,LB,STUDY001-SUBJ0006,11,L00011,HGB,Hemoglobin,HEMATOLOGY,15.71,g/dL,13.5,17.5,15.71,15.71,g/dL,13.5,17.5,NORMAL,Y,BASELINE,2,2024-12-29,1
STUDY001,LB,STUDY001-SUBJ0006,12,L00012,HCT,Hematocrit,HEMATOLOGY,40.26,%,41.0,51.0,40.26,40.26,%,41.0,51.0,LOW,Y,BASELINE,2,2024-12-29,1
STUDY001,LB,STUDY001-SUBJ0006,13,L00013,WBC,White Blood Cell Count,HEMATOLOGY,6.03,10^9/L,4.5,11.0,6.03,6.03,10^9/L,4.5,11.0,NORMAL,Y,BASELINE,2,2024-12-29,1
STUDY001,LB,STUDY001-SUBJ0006,14,L00014,PLT,Platelet Count,HEMATOLOGY,325.54,10^9/L,150.0,450.0,325.54,325.54,10^9/L,150.0,450.0,NORMAL,Y,BASELINE,2,2024-12-29,1
STUDY001,LB,STUDY001-SUBJ0006,15,L00015,GLUC,Glucose,CHEMISTRY,96.35,mg/dL,70.0,100.0,96.35,96.35,mg/dL,70.0,100.0,NORMAL,Y,BASELINE,2,2024-12-29,1
STUDY001,LB,STUDY001-SUBJ0006,16,L00016,BUN,Blood Urea Nitrogen,CHEMISTRY,4.68,mg/dL,7.0,20.0,4.68,4.68,mg/dL,7.0,20.0,LOW,Y,BASELINE,2,2024-12-29,1
STUDY001,LB,STUDY001-SUBJ0006,17,L00017,CREAT,Creatinine,CHEMISTRY,0.99,mg/dL,0.6,1.2,0.99,0.99,mg/dL,0.6,1.2,NORMAL,Y,BASELINE,2,2024-12-29,1
STUDY001,LB,STUDY001-SUBJ0006,18,L00018,BILI,Total Bilirubin,CHEMISTRY,0.75,mg/dL,0.1,1.2,0.75,0.75,mg/dL,0.1,1.2,NORMAL,Y,BASELINE,2,2024-12-29,1
STUDY001,LB,STUDY001-SUBJ0006,19,L00019,ALP,Alkaline Phosphatase,CHEMISTRY,134.26,U/L,44.0,147.0,134.26,134.26,U/L,44.0,147.0,NORMAL,Y,BASELINE,2,2024-12-29,1
STUDY001,LB,STUDY001-SUBJ0006,20,L00020,ALT,Alanine Aminotransferase,CHEMISTRY,27.06,U/L,7.0,56.0,27.06,27.06,U/L,7.0,56.0,NORMAL,Y,BASELINE,2,2024-12-29,1
STUDY001,LB,STUDY001-SUBJ0006,21,L00021,HGB,Hemoglobin,HEMATOLOGY,15.41,g/dL,13.5,17.5,15.41,15.41,g/dL,13.5,17.5,NORMAL,,WEEK 1,3,2025-01-04,7
STUDY001,LB,STUDY001-SUBJ0006,22,L00022,HCT,Hematocrit,HEMATOLOGY,40.2,%,41.0,51.0,40.2,40.2,%,41.0,51.0,LOW,,WEEK 1,3,2025-01-04,7
STUDY001,LB,STUDY001-SUBJ0006,23,L00023,WBC,White Blood Cell Count,HEMATOLOGY,6.28,10^9/L,4.5,11.0,6.28,6.28,10^9/L,4.5,11.0,NORMAL,,WEEK 1,3,2025-01-04,7
STUDY001,LB,STUDY001-SUBJ0006,24,L00024,PLT,Platelet Count,HEMATOLOGY,322.92,10^9/L,150.0,450.0,322.92,322.92,10^9/L,150.0,450.0,NORMAL,,WEEK 1,3,2025-01-04,7
STUDY001,LB,STUDY001-SUBJ0006,25,L00025,GLUC,Glucose,CHEMISTRY,99.5,mg/dL,70.0,100.0,99.5,99.5,mg/dL,70.0,100.0,NORMAL,,WEEK 1,3,2025-01-04,7
STUDY001,LB,STUDY001-SUBJ0006,26,L00026,BUN,Blood Urea Nitrogen,CHEMISTRY,4.04,mg/dL,7.0,20.0,4.04,4.04,mg/dL,7.0,20.0,LOW,,WEEK 1,3,2025-01-04,7
STUDY001,LB,STUDY001-SUBJ0006,27,L00027,CREAT,Creatinine,CHEMISTRY,0.98,mg/dL,0.6,1.2,0.98,0.98,mg/dL,0.6,1.2,NORMAL,,WEEK 1,3,2025-01-04,7
STUDY001,LB,STUDY001-SUBJ0006,28,L00028,BILI,Total Bilirubin,CHEMISTRY,0.75,mg/dL,0.1,1.2,0.75,0.75,mg/dL,0.1,1.2,NORMAL,,WEEK 1,3,2025-01-04,7
STUDY001,LB,STUDY001-SUBJ0006,29,L00029,ALP,Alkaline Phosphatase,CHEMISTRY,133.31,U/L,44.0,147.0,133.31,133.31,U/L,44.0,147.0,NORMAL,,WEEK 1,3,2025-01-04,7
STUDY001,LB,STUDY001-SUBJ0006,30,L00030,ALT,Alanine Aminotransferase,CHEMISTRY,23.19,U/L,7.0,56.0,23.19,23.19,U/L,7.0,56.0,NORMAL,,WEEK 1,3,2025-01-04,7
STUDY001,LB,STUDY001-SUBJ0006,31,L00031,HGB,Hemoglobin,HEMATOLOGY,15.31,g/dL,13.5,17.5,15.31,15.31,g/dL,13.5,17.5,NORMAL,,WEEK 2,4,2025-01-11,14
STUDY001,LB,STUDY001-SUBJ0006,32,L00032,HCT,Hematocrit,HEMATOLOGY,40.55,%,41.0,51.0,40.55,40.55,%,41.0,51.0,LOW,,WEEK 2,4,2025-01-11,14
STUDY001,LB,STUDY001-SUBJ0006,33,L00033,WBC,White Blood Cell Count,HEMATOLOGY,6.13,10^9/L,4.5,11.0,6.13,6.13,10^9/L,4.5,11.0,NORMAL,,WEEK 2,4,2025-01-11,14
STUDY001,LB,STUDY001-SUBJ0006,34,L00034,PLT,Platelet Count,HEMATOLOGY,331.38,10^9/L,150.0,450.0,331.38,331.38,10^9/L,150.0,450.0,NORMAL,,WEEK 2,4,2025-01-11,14
STUDY001,LB,STUDY001-SUBJ0006,35,L00035,GLUC,Glucose,CHEMISTRY,98.17,mg/dL,70.0,100.0,98.17,98.17,mg/dL,70.0,100.0,NORMAL,,WEEK 2,4,2025-01-11,14
STUDY001,LB,STUDY001-SUBJ0006,36,L00036,BUN,Blood Urea Nitrogen,CHEMISTRY,4.33,mg/dL,7.0,20.0,4.33,4.33,mg/dL,7.0,20.0,LOW,,WEEK 2,4,2025-01-11,14
STUDY001,LB,STUDY001-SUBJ0006,37,L00037,CREAT,Creatinine,CHEMISTRY,0.99,mg/dL,0.6,1.2,0.99,0.99,mg/dL,0.6,1.2,NORMAL,,WEEK 2,4,2025-01-11,14
STUDY001,LB,STUDY001-SUBJ0006,38,L00038,BILI,Total Bilirubin,CHEMISTRY,0.78,mg/dL,0.1,1.2,0.78,0.78,mg/dL,0.1,1.2,NORMAL,,WEEK 2,4,2025-01-11,14
STUDY001,LB,STUDY001-SUBJ0006,39,L00039,ALP,Alkaline Phosphatase,CHEMISTRY,131.87,U/L,44.0,147.0,131.87,131.87,U/L,44.0,147.0,NORMAL,,WEEK 2,4,2025-01-11,14
STUDY001,LB,STUDY001-SUBJ0006,40,L00040,ALT,Alanine Aminotransferase,CHEMISTRY,25.32,U/L,7.0,56.0,25.32,25.32,U/L,7.0,56.0,NORMAL,,WEEK 2,4,2025-01-11,14
STUDY001,LB,STUDY001-SUBJ0006,41,L00041,HGB,Hemoglobin,HEMATOLOGY,15.7,g/dL,13.5,17.5,15.7,15.7,g/dL,13.5,17.5,NORMAL,,WEEK 4,5,2025-01-25,28
STUDY001,LB,STUDY001-SUBJ0006,42,L00042,HCT,Hematocrit,HEMATOLOGY,40.01,%,41.0,51.0,40.01,40.01,%,41.0,51.0,LOW,,WEEK 4,5,2025-01-25,28
STUDY001,LB,STUDY001-SUBJ0006,43,L00043,WBC,White Blood Cell Count,HEMATOLOGY,6.15,10^9/L,4.5,11.0,6.15,6.15,10^9/L,4.5,11.0,NORMAL,,WEEK 4,5,2025-01-25,28
STUDY001,LB,STUDY001-SUBJ0006,44,L00044,PLT,Platelet Count,HEMATOLOGY,332.29,10^9/L,150.0,450.0,332.29,332.29,10^9/L,150.0,450.0,NORMAL,,WEEK 4,5,2025-01-25,28
STUDY001,LB,STUDY001-SUBJ0006,45,L00045,GLUC,Glucose,CHEMISTRY,97.23,mg/dL,70.0,100.0,97.23,97.23,mg/dL,70.0,100.0,NORMAL,,WEEK 4,5,2025-01-25,28
STUDY001,LB,STUDY001-SUBJ0006,46,L00046,BUN,Blood Urea Nitrogen,CHEMISTRY,4.04,mg/dL,7.0,20.0,4.04,4.04,mg/dL,7.0,20.0,LOW,,WEEK 4,5,2025-01-25,28
STUDY001,LB,STUDY001-SUBJ0006,47,L00047,CREAT,Creatinine,CHEMISTRY,0.98,mg/dL,0.6,1.2,0.98,0.98,mg/dL,0.6,1.2,NORMAL,,WEEK 4,5,2025-01-25,28
STUDY001,LB,STUDY001-SUBJ0006,48,L00048,BILI,Total Bilirubin,CHEMISTRY,0.72,mg/dL,0.1,1.2,0.72,0.72,mg/dL,0.1,1.2,NORMAL,,WEEK 4,5,2025-01-25,28
STUDY001,LB,STUDY001-SUBJ0006,49,L00049,ALP,Alkaline Phosphatase,CHEMISTRY,129.73,U/L,44.0,147.0,129.73,129.73,U/L,44.0,147.0,NORMAL,,WEEK 4,5,2025-01-25,28
STUDY001,LB,STUDY001-SUBJ0006,50,L00050,ALT,Alanine Aminotransferase,CHEMISTRY,25.1,U/L,7.0,56.0,25.1,25.1,U/L,7.0,56.0,NORMAL,,WEEK 4,5,2025-01-25,28
STUDY001,LB,STUDY001-SUBJ0006,51,L00051,HGB,Hemoglobin,HEMATOLOGY,15.48,g/dL,13.5,17.5,15.48,15.48,g/dL,13.5,17.5,NORMAL,,WEEK 8,6,2025-02-22,56
STUDY001,LB,STUDY001-SUBJ0006,52,L00052,HCT,Hematocrit,HEMATOLOGY,39.84,%,41.0,51.0,39.84,39.84,%,41.0,51.0,LOW,,WEEK 8,6,2025-02-22,56
STUDY001,LB,STUDY001-SUBJ0006,53,L00053,WBC,White Blood Cell Count,HEMATOLOGY,5.91,10^9/L,4.5,11.0,5.91,5.91,10^9/L,4.5,11.0,NORMAL,,WEEK 8,6,2025-02-22,56
STUDY001,LB,STUDY001-SUBJ0006,54,L00054,PLT,Platelet Count,HEMATOLOGY,331.03,10^9/L,150.0,450.0,331.03,331.03,10^9/L,150.0,450.0,NORMAL,,WEEK 8,6,2025-02-22,56
STUDY001,LB,STUDY001-SUBJ0006,55,L00055,GLUC,Glucose,CHEMISTRY,96.39,mg/dL,70.0,100.0,96.39,96.39,mg/dL,70.0,100.0,NORMAL,,WEEK 8,6,2025-02-22,56
STUDY001,LB,STUDY001-SUBJ0006,56,L00056,BUN,Blood Urea Nitrogen,CHEMISTRY,4.56,mg/dL,7.0,20.0,4.56,4.56,mg/dL,7.0,20.0,LOW,,WEEK 8,6,2025-02-22,56
STUDY001,LB,STUDY001-SUBJ0006,57,L00057,CREAT,Creatinine,CHEMISTRY,0.98,mg/dL,0.6,1.2,0.98,0.98,mg/dL,0.6,1.2,NORMAL,,WEEK 8,6,2025-02-22,56
STUDY001,LB,STUDY001-SUBJ0006,58,L00058,BILI,Total Bilirubin,CHEMISTRY,0.73,mg/dL,0.1,1.2,0.73,0.73,mg/dL,0.1,1.2,NORMAL,,WEEK 8,6,2025-02-22,56
STUDY001,LB,STUDY001-SUBJ0006,59,L00059,ALP,Alkaline Phosphatase,CHEMISTRY,130.56,U/L,44.0,147.0,130.56,130.56,U/L,44.0,147.0,NORMAL,,WEEK 8,6,2025-02-22,56
STUDY001,LB,STUDY001-SUBJ0006,60,L00060,ALT,Alanine Aminotransferase,CHEMISTRY,25.1,U/L,7.0,56.0,25.1,25.1,U/L,7.0,56.0,NORMAL,,WEEK 8,6,2025-02-22,56
STUDY001,LB,STUDY001-SUBJ0006,61,L00061,HGB,Hemoglobin,HEMATOLOGY,15.57,g/dL,13.5,17.5,15.57,15.57,g/dL,13.5,17.5,NORMAL,,WEEK 12,7,2025-03-22,84
STUDY001,LB,STUDY001-SUBJ0006,62,L00062,HCT,Hematocrit,HEMATOLOGY,40.27,%,41.0,51.0,40.27,40.27,%,41.0,51.0,LOW,,WEEK 12,7,2025-03-22,84
STUDY001,LB,STUDY001-SUBJ0006,63,L00063,WBC,White Blood Cell Count,HEMATOLOGY,6.08,10^9/L,4.5,11.0,6.08,6.08,10^9/L,4.5,11.0,NORMAL,,WEEK 12,7,2025-03-22,84
STUDY001,LB,STUDY001-SUBJ0006,64,L00064,PLT,Platelet Count,HEMATOLOGY,328.33,10^9/L,150.0,450.0,328.33,328.33,10^9/L,150.0,450.0,NORMAL,,WEEK 12,7,2025-03-22,84
STUDY001,LB,STUDY001-SUBJ0006,65,L00065,GLUC,Glucose,CHEMISTRY,96.92,mg/dL,70.0,100.0,96.92,96.92,mg/dL,70.0,100.0,NORMAL,,WEEK 12,7,2025-03-22,84
STUDY001,LB,STUDY001-SUBJ0006,66,L00066,BUN,Blood Urea Nitrogen,CHEMISTRY,4.3,mg/dL,7.0,20.0,4.3,4.3,mg/dL,7.0,20.0,LOW,,WEEK 12,7,2025-03-22,84
STUDY001,LB,STUDY001-SUBJ0006,67,L00067,CREAT,Creatinine,CHEMISTRY,0.99,mg/dL,0.6,1.2,0.99,0.99,mg/dL,0.6,1.2,NORMAL,,WEEK 12,7,2025-03-22,84
STUDY001,LB,STUDY001-SUBJ0006,68,L00068,BILI,Total Bilirubin,CHEMISTRY,0.77,mg/dL,0.1,1.2,0.77,0.77,mg/dL,0.1,1.2,NORMAL,,WEEK 12,7,2025-03-22,84
STUDY001,LB,STUDY001-SUBJ0006,69,L00069,ALP,Alkaline Phosphatase,CHEMISTRY,129.68,U/L,44.0,147.0,129.68,129.68,U/L,44.0,147.0,NORMAL,,WEEK 12,7,2025-03-22,84
STUDY001,LB,STUDY001-SUBJ0006,70,L00070,ALT,Alanine Aminotransferase,CHEMISTRY,25.01,U/L,7.0,56.0,25.01,25.01,U/L,7.0,56.0,NORMAL,,WEEK 12,7,2025-03-22,84
STUDY001,LB,STUDY001-SUBJ0006,71,L00071,HGB,Hemoglobin,HEMATOLOGY,15.69,g/dL,13.5,17.5,15.69,15.69,g/dL,13.5,17.5,NORMAL,,WEEK 16,8,2025-04-19,112
STUDY001,LB,STUDY001-SUBJ0006,72,L00072,HCT,Hematocrit,HEMATOLOGY,39.92,%,41.0,51.0,39.92,39.92,%,41.0,51.0,LOW,,WEEK 16,8,2025-04-19,112
STUDY001,LB,STUDY001-SUBJ0006,73,L00073,WBC,White Blood Cell Count,HEMATOLOGY,6.22,10^9/L,4.5,11.0,6.22,6.22,10^9/L,4.5,11.0,NORMAL,,WEEK 16,8,2025-04-19,112
STUDY001,LB,STUDY001-SUBJ0006,74,L00074,PLT,Platelet Count,HEMATOLOGY,325.08,10^9/L,150.0,450.0,325.08,325.08,10^9/L,150.0,450.0,NORMAL,,WEEK 16,8,2025-04-19,112
STUDY001,LB,STUDY001-SUBJ0006,75,L00075,GLUC,Glucose,CHEMISTRY,95.53,mg/dL,70.0,100.0,95.53,95.53,mg/dL,70.0,100.0,NORMAL,,WEEK 16,8,2025-04-19,112
STUDY001,LB,STUDY001-SUBJ0006,76,L00076,BUN,Blood Urea Nitrogen,CHEMISTRY,3.79,mg/dL,7.0,20.0,3.79,3.79,mg/dL,7.0,20.0,LOW,,WEEK 16,8,2025-04-19,112
STUDY001,LB,STUDY001-SUBJ0006,77,L00077,CREAT,Creatinine,CHEMISTRY,0.97,mg/dL,0.6,1.2,0.97,0.97,mg/dL,0.6,1.2,NORMAL,,WEEK 16,8,2025-04-19,112
STUDY001,LB,STUDY001-SUBJ0006,78,L00078,BILI,Total Bilirubin,CHEMISTRY,0.76,mg/dL,0.1,1.2,0.76,0.76,mg/dL,0.1,1.2,NORMAL,,WEEK 16,8,2025-04-19,112
STUDY001,LB,STUDY001-SUBJ0006,79,L00079,ALP,Alkaline Phosphatase,CHEMISTRY,134.31,U/L,44.0,147.0,134.31,134.31,U/L,44.0,147.0,NORMAL,,WEEK 16,8,2025-04-19,112
STUDY001,LB,STUDY001-SUBJ0006,80,L00080,ALT,Alanine Aminotransferase,CHEMISTRY,24.52,U/L,7.0,56.0,24.52,24.52,U/L,7.0,56.0,NORMAL,,WEEK 16,8,2025-04-19,112
STUDY001,LB,STUDY001-SUBJ0006,81,L00081,HGB,Hemoglobin,HEMATOLOGY,15.6,g/dL,13.5,17.5,15.6,15.6,g/dL,13.5,17.5,NORMAL,,END OF TREATMENT,9,2025-05-17,140
STUDY001,LB,STUDY001-SUBJ0006,82,L00082,HCT,Hematocrit,HEMATOLOGY,40.72,%,41.0,51.0,40.72,40.72,%,41.0,51.0,LOW,,END OF TREATMENT,9,2025-05-17,140
STUDY001,LB,STUDY001-SUBJ0006,83,L00083,WBC,White Blood Cell Count,HEMATOLOGY,6.23,10^9/L,4.5,11.0,6.23,6.23,10^9/L,4.5,11.0,NORMAL,,END OF TREATMENT,9,2025-05-17,140
STUDY001,LB,STUDY001-SUBJ0006,84,L00084,PLT,Platelet Count,HEMATOLOGY,324.49,10^9/L,150.0,450.0,324.49,324.49,10^9/L,150.0,450.0,NORMAL,,END OF TREATMENT,9,2025-05-17,140
STUDY001,LB,STUDY001-SUBJ0006,85,L00085,GLUC,Glucose,CHEMISTRY,98.68,mg/dL,70.0,100.0,98.68,98.68,mg/dL,70.0,100.0,NORMAL,,END OF TREATMENT,9,2025-05-17,140
STUDY001,LB,STUDY001-SUBJ0006,86,L00086,BUN,Blood Urea Nitrogen,CHEMISTRY,4.26,mg/dL,7.0,20.0,4.26,4.26,mg/dL,7.0,20.0,LOW,,END OF TREATMENT,9,2025-05-17,140
STUDY001,LB,STUDY001-SUBJ0006,87,L00087,CREAT,Creatinine,CHEMISTRY,0.94,mg/dL,0.6,1.2,0.94,0.94,mg/dL,0.6,1.2,NORMAL,,END OF TREATMENT,9,2025-05-17,140
STUDY001,LB,STUDY001-SUBJ0006,88,L00088,BILI,Total Bilirubin,CHEMISTRY,0.71,mg/dL,0.1,1.2,0.71,0.71,mg/dL,0.1,1.2,NORMAL,,END OF TREATMENT,9,2025-05-17,140
STUDY001,LB,STUDY001-SUBJ0006,89,L00089,ALP,Alkaline Phosphatase,CHEMISTRY,132.23,U/L,44.0,147.0,132.23,132.23,U/L,44.0,147.0,NORMAL,,END OF TREATMENT,9,2025-05-17,140
STUDY001,LB,STUDY001-SUBJ0006,90,L00090,ALT,Alanine Aminotransferase,CHEMISTRY,22.52,U/L,7.0,56.0,22.52,22.52,U/L,7.0,56.0,NORMAL,,END OF TREATMENT,9,2025-05-17,140
STUDY001,LB,STUDY001-SUBJ0007,1,L00001,HGB,Hemoglobin,HEMATOLOGY,14.16,g/dL,13.5,17.5,14.16,14.16,g/dL,13.5,17.5,NORMAL,,SCREENING,1,2024-11-20,-14
STUDY001,LB,STUDY001-SUBJ0007,2,L00002,HCT,Hematocrit,HEMATOLOGY,47.89,%,41.0,51.0,47.89,47.89,%,41.0,51.0,NORMAL,,SCREENING,1,2024-11-20,-14
STUDY001,LB,STUDY001-SUBJ0007,3,L00003,WBC,White Blood Cell Count,HEMATOLOGY,6.77,10^9/L,4.5,11.0,6.77,6.77,10^9/L,4.5,11.0,NORMAL,,SCREENING,1,2024-11-20,-14
STUDY001,LB,STUDY001-SUBJ0007,4,L00004,PLT,Platelet Count,HEMATOLOGY,372.3,10^9/L,150.0,450.0,372.3,372.3,10^9/L,150.0,450.0,NORMAL,,SCREENING,1,2024-11-20,-14
STUDY001,LB,STUDY001-SUBJ0007,5,L00005,GLUC,Glucose,CHEMISTRY,71.19,mg/dL,70.0,100.0,71.19,71.19,mg/dL,70.0,100.0,NORMAL,,SCREENING,1,2024-11-20,-14
STUDY001,LB,STUDY001-SUBJ0007,6,L00006,BUN,Blood Urea Nitrogen,CHEMISTRY,11.89,mg/dL,7.0,20.0,11.89,11.89,mg/dL,7.0,20.0,NORMAL,,SCREENING,1,2024-11-20,-14
STUDY001,LB,STUDY001-SUBJ0007,7,L00007,CREAT,Creatinine,CHEMISTRY,1.12,mg/dL,0.6,1.2,1.12,1.12,mg/dL,0.6,1.2,NORMAL,,SCREENING,1,2024-11-20,-14
STUDY001,LB,STUDY001-SUBJ0007,8,L00008,BILI,Total Bilirubin,CHEMISTRY,0.3,mg/dL,0.1,1.2,0.3,0.3,mg/dL,0.1,1.2,NORMAL,,SCREENING,1,2024-11-20,-14
STUDY001,LB,STUDY001-SUBJ0007,9,L00009,ALP,Alkaline Phosphatase,CHEMISTRY,116.23,U/L,44.0,147.0,116.23,116.23,U/L,44.0,147.0,NORMAL,,SCREENING,1,2024-11-20,-14
STUDY001,LB,STUDY001-SUBJ0007,10,L00010,ALT,Alanine Aminotransferase,CHEMISTRY,40.4,U/L,7.0,56.0,40.4,40.4,U/L,7.0,56.0,NORMAL,,SCREENING,1,2024-11-20,-14
STUDY001,LB,STUDY001-SUBJ0007,11,L00011,HGB,Hemoglobin,HEMATOLOGY,14.16,g/dL,13.5,17.5,14.16,14.16,g/dL,13.5,17.5,NORMAL,Y,BASELINE,2,2024-12-04,1
STUDY001,LB,STUDY001-SUBJ0007,12,L00012,HCT,Hematocrit,HEMATOLOGY,48.18,%,41.0,51.0,48.18,48.18,%,41.0,51.0,NORMAL,Y,BASELINE,2,2024-12-04,1
STUDY001,LB,STUDY001-SUBJ0007,13,L00013,WBC,White Blood Cell Count,HEMATOLOGY,6.93,10^9/L,4.5,11.0,6.93,6.93,10^9/L,4.5,11.0,NORMAL,Y,BASELINE,2,2024-12-04,1
STUDY001,LB,STUDY001-SUBJ0007,14,L00014,PLT,Platelet Count,HEMATOLOGY,386.38,10^9/L,150.0,450.0,386.38,386.38,10^9/L,150.0,450.0,NORMAL,Y,BASELINE,2,2024-12-04,1
STUDY001,LB,STUDY001-SUBJ0007,15,L00015,GLUC,Glucose,CHEMISTRY,72.13,mg/dL,70.0,100.0,72.13,72.13,mg/dL,70.0,100.0,NORMAL,Y,BASELINE,2,2024-12-04,1
STUDY001,LB,STUDY001-SUBJ0007,16,L00016,BUN,Blood Urea Nitrogen,CHEMISTRY,11.03,mg/dL,7.0,20.0,11.03,11.03,mg/dL,7.0,20.0,NORMAL,Y,BASELINE,2,2024-12-04,1
STUDY001,LB,STUDY001-SUBJ0007,17,L00017,CREAT,Creatinine,CHEMISTRY,1.12,mg/dL,0.6,1.2,1.12,1.12,mg/dL,0.6,1.2,NORMAL,Y,BASELINE,2,2024-12-04,1
STUDY001,LB,STUDY001-SUBJ0007,18,L00018,BILI,Total Bilirubin,CHEMISTRY,0.27,mg/dL,0.1,1.2,0.27,0.27,mg/dL,0.1,1.2,NORMAL,Y,BASELINE,2,2024-12-04,1
STUDY001,LB,STUDY001-SUBJ0007,19,L00019,ALP,Alkaline Phosphatase,CHEMISTRY,116.17,U/L,44.0,147.0,116.17,116.17,U/L,44.0,147.0,NORMAL,Y,BASELINE,2,2024-12-04,1
STUDY001,LB,STUDY001-SUBJ0007,20,L00020,ALT,Alanine Aminotransferase,CHEMISTRY,41.03,U/L,7.0,56.0,41.03,41.03,U/L,7.0,56.0,NORMAL,Y,BASELINE,2,2024-12-04,1
STUDY001,LB,STUDY001-SUBJ0007,21,L00021,HGB,Hemoglobin,HEMATOLOGY,13.95,g/dL,13.5,17.5,13.95,13.95,g/dL,13.5,17.5,NORMAL,,WEEK 1,3,2024-12-10,7
STUDY001,LB,STUDY001-SUBJ0007,22,L00022,HCT,Hematocrit,HEMATOLOGY,47.26,%,41.0,51.0,47.26,47.26,%,41.0,51.0,NORMAL,,WEEK 1,3,2024-12-10,7
STUDY001,LB,STUDY001-SUBJ0007,23,L00023,WBC,White Blood Cell Count,HEMATOLOGY,6.81,10^9/L,4.5,11.0,6.81,6.81,10^9/L,4.5,11.0,NORMAL,,WEEK 1,3,2024-12-10,7
STUDY001,LB,STUDY001-SUBJ0007,24,L00024,PLT,Platelet Count,HEMATOLOGY,373.05,10^9/L,150.0,450.0,373.05,373.05,10^9/L,150.0,450.0,NORMAL,,WEEK 1,3,2024-12-10,7
STUDY001,LB,STUDY001-SUBJ0007,25,L00025,GLUC,Glucose,CHEMISTRY,72.09,mg/dL,70.0,100.0,72.09,72.09,mg/dL,70.0,100.0,NORMAL,,WEEK 1,3,2024-12-10,7
STUDY001,LB,STUDY001-SUBJ0007,26,L00026,BUN,Blood Urea Nitrogen,CHEMISTRY,10.86,mg/dL,7.0,20.0,10.86,10.86,mg/dL,7.0,20.0,NORMAL,,WEEK 1,3,2024-12-10,7
STUDY001,LB,STUDY001-SUBJ0007,27,L00027,CREAT,Creatinine,CHEMISTRY,1.12,mg/dL,0.6,1.2,1.12,1.12,mg/dL,0.6,1.2,NORMAL,,WEEK 1,3,2024-12-10,7
STUDY001,LB,STUDY001-SUBJ0007,28,L00028,BILI,Total Bilirubin,CHEMISTRY,0.3,mg/dL,0.1,1.2,0.3,0.3,mg/dL,0.1,1.2,NORMAL,,WEEK 1,3,2024-12-10,7
STUDY001,LB,STUDY001-SUBJ0007,29,L00029,ALP,Alkaline Phosphatase,CHEMISTRY,118.46,U/L,44.0,147.0,118.46,118.46,U/L,44.0,147.0,NORMAL,,WEEK 1,3,2024-12-10,7
STUDY001,LB,STUDY001-SUBJ0007,30,L00030,ALT,Alanine Aminotransferase,CHEMISTRY,41.05,U/L,7.0,56.0,41.05,41.05,U/L,7.0,56.0,NORMAL,,WEEK 1,3,2024-12-10,7
STUDY001,LB,STUDY001-SUBJ0007,31,L00031,HGB,Hemoglobin,HEMATOLOGY,14.25,g/dL,13.5,17.5,14.25,14.25,g/dL,13.5,17.5,NORMAL,,WEEK 2,4,2024-12-17,14
STUDY001,LB,STUDY001-SUBJ0007,32,L00032,HCT,Hematocrit,HEMATOLOGY,47.82,%,41.0,51.0,47.82,47.82,%,41.0,51.0,NORMAL,,WEEK 2,4,2024-12-17,14
STUDY001,LB,STUDY001-SUBJ0007,33,L00033,WBC,White Blood Cell Count,HEMATOLOGY,6.59,10^9/L,4.5,11.0,6.59,6.59,10^9/L,4.5,11.0,NORMAL,,WEEK 2,4,2024-12-17,14
STUDY001,LB,STUDY001-SUBJ0007,34,L00034,PLT,Platelet Count,HEMATOLOGY,379.39,10^9/L,150.0,450.0,379.39,379.39,10^9/L,150.0,450.0,NORMAL,,WEEK 2,4,2024-12-17,14
STUDY001,LB,STUDY001-SUBJ0007,35,L00035,GLUC,Glucose,CHEMISTRY,72.06,mg/dL,70.0,100.0,72.06,72.06,mg/dL,70.0,100.0,NORMAL,,WEEK 2,4,2024-12-17,14
STUDY001,LB,STUDY001-SUBJ0007,36,L00036,BUN,Blood Urea Nitrogen,CHEMISTRY,10.98,mg/dL,7.0,20.0,10.98,10.98,mg/dL,7.0,20.0,NORMAL,,WEEK 2,4,2024-12-17,14
STUDY001,LB,STUDY001-SUBJ0007,37,L00037,CREAT,Creatinine,CHEMISTRY,1.12,mg/dL,0.6,1.2,1.12,1.12,mg/dL,0.6,1.2,NORMAL,,WEEK 2,4,2024-12-17,14
STUDY001,LB,STUDY001-SUBJ0007,38,L00038,BILI,Total Bilirubin,CHEMISTRY,0.27,mg/dL,0.1,1.2,0.27,0.27,mg/dL,0.1,1.2,NORMAL,,WEEK 2,4,2024-12-17,14
STUDY001,LB,STUDY001-SUBJ0007,39,L00039,ALP,Alkaline Phosphatase,CHEMISTRY,117.71,U/L,44.0,147.0,117.71,117.71,U/L,44.0,147.0,NORMAL,,WEEK 2,4,2024-12-17,14
STUDY001,LB,STUDY001-SUBJ0007,40,L00040,ALT,Alanine Aminotransferase,CHEMISTRY,40.41,U/L,7.0,56.0,40.41,40.41,U/L,7.0,56.0,NORMAL,,WEEK 2,4,2024-12-17,14
STUDY001,LB,STUDY001-SUBJ0007,41,L00041,HGB,Hemoglobin,HEMATOLOGY,14.2,g/dL,13.5,17.5,14.2,14.2,g/dL,13.5,17.5,NORMAL,,WEEK 4,5,2024-12-31,28
STUDY001,LB,STUDY001-SUBJ0007,42,L00042,HCT,Hematocrit,HEMATOLOGY,48.01,%,41.0,51.0,48.01,48.01,%,41.0,51.0,NORMAL,,WEEK 4,5,2024-12-31,28
STUDY001,LB,STUDY001-SUBJ0007,43,L00043,WBC,White Blood Cell Count,HEMATOLOGY,6.8,10^9/L,4.5,11.0,6.8,6.8,10^9/L,4.5,11.0,NORMAL,,WEEK 4,5,2024-12-31,28
STUDY001,LB,STUDY001-SUBJ0007,44,L00044,PLT,Platelet Count,HEMATOLOGY,379.82,10^9/L,150.0,450.0,379.82,379.82,10^9/L,150.0,450.0,NORMAL,,WEEK 4,5,2024-12-31,28
STUDY001,LB,STUDY001-SUBJ0007,45,L00045,GLUC,Glucose,CHEMISTRY,72.89,mg/dL,70.0,100.0,72.89,72.89,mg/dL,70.0,100.0,NORMAL,,WEEK 4,5,2024-12-31,28
STUDY001,LB,STUDY001-SUBJ0007,46,L00046,BUN,Blood Urea Nitrogen,CHEMISTRY,11.06,mg/dL,7.0,20.0,11.06,11.06,mg/dL,7.0,20.0,NORMAL,,WEEK 4,5,2024-12-31,28
STUDY001,LB,STUDY001-SUBJ0007,47,L00047,CREAT,Creatinine,CHEMISTRY,1.11,mg/dL,0.6,1.2,1.11,1.11,mg/dL,0.6,1.2,NORMAL,,WEEK 4,5,2024-12-31,28
STUDY001,LB,STUDY001-SUBJ0007,48,L00048,BILI,Total Bilirubin,CHEMISTRY,0.26,mg/dL,0.1,1.2,0.26,0.26,mg/dL,0.1,1.2,NORMAL,,WEEK 4,5,2024-12-31,28
STUDY001,LB,STUDY001-SUBJ0007,49,L00049,ALP,Alkaline Phosphatase,CHEMISTRY,115.31,U/L,44.0,147.0,115.31,115.31,U/L,44.0,147.0,NORMAL,,WEEK 4,5,2024-12-31,28
STUDY001,LB,STUDY001-SUBJ0007,50,L00050,ALT,Alanine Aminotransferase,CHEMISTRY,40.54,U/L,7.0,56.0,40.54,40.54,U/L,7.0,56.0,NORMAL,,WEEK 4,5,2024-12-31,28
STUDY001,LB,STUDY001-SUBJ0007,51,L00051,HGB,Hemoglobin,HEMATOLOGY,13.94,g/dL,13.5,17.5,13.94,13.94,g/dL,13.5,17.5,NORMAL,,WEEK 8,6,2025-01-28,56
STUDY001,LB,STUDY001-SUBJ0007,52,L00052,HCT,Hematocrit,HEMATOLOGY,47.63,%,41.0,51.0,47.63,47.63,%,41.0,51.0,NORMAL,,WEEK 8,6,2025-01-28,56
STUDY001,LB,STUDY001-SUBJ0007,53,L00053,WBC,White Blood Cell Count,HEMATOLOGY,6.87,10^9/L,4.5,11.0,6.87,6.87,10^9/L,4.5,11.0,NORMAL,,WEEK 8,6,2025-01-28,56
STUDY001,LB,STUDY001-SUBJ0007,54,L00054,PLT,Platelet Count,HEMATOLOGY,368.57,10^9/L,150.0,450.0,368.57,368.57,10^9/L,150.0,450.0,NORMAL,,WEEK 8,6,2025-01-28,56
STUDY001,LB,STUDY001-SUBJ0007,55,L00055,GLUC,Glucose,CHEMISTRY,71.96,mg/dL,70.0,100.0,71.96,71.96,mg/dL,70.0,100.0,NORMAL,,WEEK 8,6,2025-01-28,56
STUDY001,LB,STUDY001-SUBJ0007,56,L00056,BUN,Blood Urea Nitrogen,CHEMISTRY,11.18,mg/dL,7.0,20.0,11.18,11.18,mg/dL,7.0,20.0,NORMAL,,WEEK 8,6,2025-01-28,56
STUDY001,LB,STUDY001-SUBJ0007,57,L00057,CREAT,Creatinine,CHEMISTRY,1.11,mg/dL,0.6,1.2,1.11,1.11,mg/dL,0.6,1.2,NORMAL,,WEEK 8,6,2025-01-28,56
STUDY001,LB,STUDY001-SUBJ0007,58,L00058,BILI,Total Bilirubin,CHEMISTRY,0.28,mg/dL,0.1,1.2,0.28,0.28,mg/dL,0.1,1.2,NORMAL,,WEEK 8,6,2025-01-28,56
STUDY001,LB,STUDY001-SUBJ0007,59,L00059,ALP,Alkaline Phosphatase,CHEMISTRY,115.37,U/L,44.0,147.0,115.37,115.37,U/L,44.0,147.0,NORMAL,,WEEK 8,6,2025-01-28,56
STUDY001,LB,STUDY001-SUBJ0007,60,L00060,ALT,Alanine Aminotransferase,CHEMISTRY,41.21,U/L,7.0,56.0,41.21,41.21,U/L,7.0,56.0,NORMAL,,WEEK 8,6,2025-01-28,56
STUDY001,LB,STUDY001-SUBJ0007,61,L00061,HGB,Hemoglobin,HEMATOLOGY,14.26,g/dL,13.5,17.5,14.26,14.26,g/dL,13.5,17.5,NORMAL,,WEEK 12,7,2025-02-25,84
STUDY001,LB,STUDY001-SUBJ0007,62,L00062,HCT,Hematocrit,HEMATOLOGY,47.48,%,41.0,51.0,47.48,47.48,%,41.0,51.0,NORMAL,,WEEK 12,7,2025-02-25,84
STUDY001,LB,STUDY001-SUBJ0007,63,L00063,WBC,White Blood Cell Count,HEMATOLOGY,7.09,10^9/L,4.5,11.0,7.09,7.09,10^9/L,4.5,11.0,NORMAL,,WEEK 12,7,2025-02-25,84
STUDY001,LB,STUDY001-SUBJ0007,64,L00064,PLT,Platelet Count,HEMATOLOGY,366.75,10^9/L,150.0,450.0,366.75,366.75,10^9/L,150.0,450.0,NORMAL,,WEEK 12,7,2025-02-25,84
STUDY001,LB,STUDY001-SUBJ0007,65,L00065,GLUC,Glucose,CHEMISTRY,71.13,mg/dL,70.0,100.0,71.13,71.13,mg/dL,70.0,100.0,NORMAL,,WEEK 12,7,2025-02-25,84
STUDY001,LB,STUDY001-SUBJ0007,66,L00066,BUN,Blood Urea Nitrogen,CHEMISTRY,11.07,mg/dL,7.0,20.0,11.07,11.07,mg/dL,7.0,20.0,NORMAL,,WEEK 12,7,2025-02-25,84
STUDY001,LB,STUDY001-SUBJ0007,67,L00067,CREAT,Creatinine,CHEMISTRY,1.12,mg/dL,0.6,1.2,1.12,1.12,mg/dL,0.6,1.2,NORMAL,,WEEK 12,7,2025-02-25,84
STUDY001,LB,STUDY001-SUBJ0007,68,L00068,BILI,Total Bilirubin,CHEMISTRY,0.29,mg/dL,0.1,1.2,0.29,0.29,mg/dL,0.1,1.2,NORMAL,,WEEK 12,7,2025-02-25,84
STUDY001,LB,STUDY001-SUBJ0007,69,L00069,ALP,Alkaline Phosphatase,CHEMISTRY,117.69,U/L,44.0,147.0,117.69,117.69,U/L,44.0,147.0,NORMAL,,WEEK 12,7,2025-02-25,84
STUDY001,LB,STUDY001-SUBJ0007,70,L00070,ALT,Alanine Aminotransferase,CHEMISTRY,40.51,U/L,7.0,56.0,40.51,40.51,U/L,7.0,56.0,NORMAL,,WEEK 12,7,2025-02-25,84
STUDY001,LB,STUDY001-SUBJ0007,71,L00071,HGB,Hemoglobin,HEMATOLOGY,14.15,g/dL,13.5,17.5,14.15,14.15,g/dL,13.5,17.5,NORMAL,,WEEK 16,8,2025-03-25,112
STUDY001,LB,STUDY001-SUBJ0007,72,L00072,HCT,Hematocrit,HEMATOLOGY,47.93,%,41.0,51.0,47.93,47.93,%,41.0,51.0,NORMAL,,WEEK 16,8,2025-03-25,112
STUDY001,LB,STUDY001-SUBJ0007,73,L00073,WBC,White Blood Cell Count,HEMATOLOGY,6.86,10^9/L,4.5,11.0,6.86,6.86,10^9/L,4.5,11.0,NORMAL,,WEEK 16,8,2025-03-25,112
STUDY001,LB,STUDY001-SUBJ0007,74,L00074,PLT,Platelet Count,HEMATOLOGY,376.44,10^9/L,150.0,450.0,376.44,376.44,10^9/L,150.0,450.0,NORMAL,,WEEK 16,8,2025-03-25,112
STUDY001,LB,STUDY001-SUBJ0007,75,L00075,GLUC,Glucose,CHEMISTRY,73.1,mg/dL,70.0,100.0,73.1,73.1,mg/dL,70.0,100.0,NORMAL,,WEEK 16,8,2025-03-25,112
STUDY001,LB,STUDY001-SUBJ0007,76,L00076,BUN,Blood Urea Nitrogen,CHEMISTRY,11.36,mg/dL,7.0,20.0,11.36,11.36,mg/dL,7.0,20.0,NORMAL,,WEEK 16,8,2025-03-25,112
STUDY001,LB,STUDY001-SUBJ0007,77,L00077,CREAT,Creatinine,CHEMISTRY,1.13,mg/dL,0.6,1.2,1.13,1.13,mg/dL,0.6,1.2,NORMAL,,WEEK 16,8,2025-03-25,112
STUDY001,LB,STUDY001-SUBJ0007,78,L00078,BILI,Total Bilirubin,CHEMISTRY,0.28,mg/dL,0.1,1.2,0.28,0.28,mg/dL,0.1,1.2,NORMAL,,WEEK 16,8,2025-03-25,112
STUDY001,LB,STUDY001-SUBJ0007,79,L00079,ALP,Alkaline Phosphatase,CHEMISTRY,113.85,U/L,44.0,147.0,113.85,113.85,U/L,44.0,147.0,NORMAL,,WEEK 16,8,2025-03-25,112
STUDY001,LB,STUDY001-SUBJ0007,80,L00080,ALT,Alanine Aminotransferase,CHEMISTRY,40.03,U/L,7.0,56.0,40.03,40.03,U/L,7.0,56.0,NORMAL,,WEEK 16,8,2025-03-25,112
STUDY001,LB,STUDY001-SUBJ0007,81,L00081,HGB,Hemoglobin,HEMATOLOGY,14.2,g/dL,13.5,17.5,14.2,14.2,g/dL,13.5,17.5,NORMAL,,END OF TREATMENT,9,2025-04-22,140
STUDY001,LB,STUDY001-SUBJ0007,82,L00082,HCT,Hematocrit,HEMATOLOGY,47.52,%,41.0,51.0,47.52,47.52,%,41.0,51.0,NORMAL,,END OF TREATMENT,9,2025-04-22,140
STUDY001,LB,STUDY001-SUBJ0007,83,L00083,WBC,White Blood Cell Count,HEMATOLOGY,6.92,10^9/L,4.5,11.0,6.92,6.92,10^9/L,4.5,11.0,NORMAL,,END OF TREATMENT,9,2025-04-22,140
STUDY001,LB,STUDY001-SUBJ0007,84,L00084,PLT,Platelet Count,HEMATOLOGY,373.46,10^9/L,150.0,450.0,373.46,373.46,10^9/L,150.0,450.0,NORMAL,,END OF TREATMENT,9,2025-04-22,140
STUDY001,LB,STUDY001-SUBJ0007,85,L00085,GLUC,Glucose,CHEMISTRY,73.04,mg/dL,70.0,100.0,73.04,73.04,mg/dL,70.0,100.0,NORMAL,,END OF TREATMENT,9,2025-04-22,140
STUDY001,LB,STUDY001-SUBJ0007,86,L00086,BUN,Blood Urea Nitrogen,CHEMISTRY,11.0,mg/dL,7.0,20.0,11.0,11.0,mg/dL,7.0,20.0,NORMAL,,END OF TREATMENT,9,2025-04-22,140
STUDY001,LB,STUDY001-SUBJ0007,87,L00087,CREAT,Creatinine,CHEMISTRY,1.12,mg/dL,0.6,1.2,1.12,1.12,mg/dL,0.6,1.2,NORMAL,,END OF TREATMENT,9,2025-04-22,140
STUDY001,LB,STUDY001-SUBJ0007,88,L00088,BILI,Total Bilirubin,CHEMISTRY,0.26,mg/dL,0.1,1.2,0.26,0.26,mg/dL,0.1,1.2,NORMAL,,END OF TREATMENT,9,2025-04-22,140
STUDY001,LB,STUDY001-SUBJ0007,89,L00089,ALP,Alkaline Phosphatase,CHEMISTRY,114.01,U/L,44.0,147.0,114.01,114.01,U/L,44.0,147.0,NORMAL,,END OF TREATMENT,9,2025-04-22,140
STUDY001,LB,STUDY001-SUBJ0007,90,L00090,ALT,Alanine Aminotransferase,CHEMISTRY,40.49,U/L,7.0,56.0,40.49,40.49,U/L,7.0,56.0,NORMAL,,END OF TREATMENT,9,2025-04-22,140
STUDY001,LB,STUDY001-SUBJ0008,1,L00001,HGB,Hemoglobin,HEMATOLOGY,14.69,g/dL,13.5,17.5,14.69,14.69,g/dL,13.5,17.5,NORMAL,,SCREENING,1,2025-05-23,-14
STUDY001,LB,STUDY001-SUBJ0008,2,L00002,HCT,Hematocrit,HEMATOLOGY,43.43,%,41.0,51.0,43.43,43.43,%,41.0,51.0,NORMAL,,SCREENING,1,2025-05-23,-14
STUDY001,LB,STUDY001-SUBJ0008,3,L00003,WBC,White Blood Cell Count,HEMATOLOGY,6.08,10^9/L,4.5,11.0,6.08,6.08,10^9/L,4.5,11.0,NORMAL,,SCREENING,1,2025-05-23,-14
STUDY001,LB,STUDY001-SUBJ0008,4,L00004,PLT,Platelet Count,HEMATOLOGY,266.95,10^9/L,150.0,450.0,266.95,266.95,10^9/L,150.0,450.0,NORMAL,,SCREENING,1,2025-05-23,-14
STUDY001,LB,STUDY001-SUBJ0008,5,L00005,GLUC,Glucose,CHEMISTRY,62.7,mg/dL,70.0,100.0,62.7,62.7,mg/dL,70.0,100.0,LOW,,SCREENING,1,2025-05-23,-14
STUDY001,LB,STUDY001-SUBJ0008,6,L00006,BUN,Blood Urea Nitrogen,CHEMISTRY,11.38,mg/dL,7.0,20.0,11.38,11.38,mg/dL,7.0,20.0,NORMAL,,SCREENING,1,2025-05-23,-14
STUDY001,LB,STUDY001-SUBJ0008,7,L00007,CREAT,Creatinine,CHEMISTRY,0.88,mg/dL,0.6,1.2,0.88,0.88,mg/dL,0.6,1.2,NORMAL,,SCREENING,1,2025-05-23,-14
STUDY001,LB,STUDY001-SUBJ0008,8,L00008,BILI,Total Bilirubin,CHEMISTRY,0.82,mg/dL,0.1,1.2,0.82,0.82,mg/dL,0.1,1.2,NORMAL,,SCREENING,1,2025-05-23,-14
STUDY001,LB,STUDY001-SUBJ0008,9,L00009,ALP,Alkaline Phosphatase,CHEMISTRY,89.41,U/L,44.0,147.0,89.41,89.41,U/L,44.0,147.0,NORMAL,,SCREENING,1,2025-05-23,-14
STUDY001,LB,STUDY001-SUBJ0008,10,L00010,ALT,Alanine Aminotransferase,CHEMISTRY,26.65,U/L,7.0,56.0,26.65,26.65,U/L,7.0,56.0,NORMAL,,SCREENING,1,2025-05-23,-14
STUDY001,LB,STUDY001-SUBJ0008,11,L00011,HGB,Hemoglobin,HEMATOLOGY,14.4,g/dL,13.5,17.5,14.4,14.4,g/dL,13.5,17.5,NORMAL,Y,BASELINE,2,2025-06-06,1
STUDY001,LB,STUDY001-SUBJ0008,12,L00012,HCT,Hematocrit,HEMATOLOGY,43.45,%,41.0,51.0,43.45,43.45,%,41.0,51.0,NORMAL,Y,BASELINE,2,2025-06-06,1
STUDY001,LB,STUDY001-SUBJ0008,13,L00013,WBC,White Blood Cell Count,HEMATOLOGY,6.27,10^9/L,4.5,11.0,6.27,6.27,10^9/L,4.5,11.0,NORMAL,Y,BASELINE,2,2025-06-06,1
STUDY001,LB,STUDY001-SUBJ0008,14,L00014,PLT,Platelet Count,HEMATOLOGY,280.24,10^9/L,150.0,450.0,280.24,280.24,10^9/L,150.0,450.0,NORMAL,Y,BASELINE,2,2025-06-06,1
STUDY001,LB,STUDY001-SUBJ0008,15,L00015,GLUC,Glucose,CHEMISTRY,63.65,mg/dL,70.0,100.0,63.65,63.65,mg/dL,70.0,100.0,LOW,Y,BASELINE,2,2025-06-06,1
STUDY001,LB,STUDY001-SUBJ0008,16,L00016,BUN,Blood Urea Nitrogen,CHEMISTRY,11.62,mg/dL,7.0,20.0,11.62,11.62,mg/dL,7.0,20.0,NORMAL,Y,BASELINE,2,2025-06-06,1
STUDY001,LB,STUDY001-SUBJ0008,17,L00017,CREAT,Creatinine,CHEMISTRY,0.9,mg/dL,0.6,1.2,0.9,0.9,mg/dL,0.6,1.2,NORMAL,Y,BASELINE,2,2025-06-06,1
STUDY001,LB,STUDY001-SUBJ0008,18,L00018,BILI,Total Bilirubin,CHEMISTRY,0.82,mg/dL,0.1,1.2,0.82,0.82,mg/dL,0.1,1.2,NORMAL,Y,BASELINE,2,2025-06-06,1
STUDY001,LB,STUDY001-SUBJ0008,19,L00019,ALP,Alkaline Phosphatase,CHEMISTRY,87.53,U/L,44.0,147.0,87.53,87.53,U/L,44.0,147.0,NORMAL,Y,BASELINE,2,2025-06-06,1
STUDY001,LB,STUDY001-SUBJ0008,20,L00020,ALT,Alanine Aminotransferase,CHEMISTRY,27.56,U/L,7.0,56.0,27.56,27.56,U/L,7.0,56.0,NORMAL,Y,BASELINE,2,2025-06-06,1
STUDY001,LB,STUDY001-SUBJ0008,21,L00021,HGB,Hemoglobin,HEMATOLOGY,14.66,g/dL,13.5,17.5,14.66,14.66,g/dL,13.5,17.5,NORMAL,,WEEK 1,3,2025-06-12,7
STUDY001,LB,STUDY001-SUBJ0008,22,L00022,HCT,Hematocrit,HEMATOLOGY,43.37,%,41.0,51.0,43.37,43.37,%,41.0,51.0,NORMAL,,WEEK 1,3,2025-06-12,7
STUDY001,LB,STUDY001-SUBJ0008,23,L00023,WBC,White Blood Cell Count,HEMATOLOGY,5.81,10^9/L,4.5,11.0,5.81,5.81,10^9/L,4.5,11.0,NORMAL,,WEEK 1,3,2025-06-12,7
STUDY001,LB,STUDY001-SUBJ0008,24,L00024,PLT,Platelet Count,HEMATOLOGY,278.35,10^9/L,150.0,450.0,278.35,278.35,10^9/L,150.0,450.0,NORMAL,,WEEK 1,3,2025-06-12,7
STUDY001,LB,STUDY001-SUBJ0008,25,L00025,GLUC,Glucose,CHEMISTRY,63.09,mg/dL,70.0,100.0,63.09,63.09,mg/dL,70.0,100.0,LOW,,WEEK 1,3,2025-06-12,7
STUDY001,LB,STUDY001-SUBJ0008,26,L00026,BUN,Blood Urea Nitrogen,CHEMISTRY,11.41,mg/dL,7.0,20.0,11.41,11.41,mg/dL,7.0,20.0,NORMAL,,WEEK 1,3,2025-06-12,7
STUDY001,LB,STUDY001-SUBJ0008,27,L00027,CREAT,Creatinine,CHEMISTRY,0.87,mg/dL,0.6,1.2,0.87,0.87,mg/dL,0.6,1.2,NORMAL,,WEEK 1,3,2025-06-12,7
STUDY001,LB,STUDY001-SUBJ0008,28,L00028,BILI,Total Bilirubin,CHEMISTRY,0.82,mg/dL,0.1,1.2,0.82,0.82,mg/dL,0.1,1.2,NORMAL,,WEEK 1,3,2025-06-12,7
STUDY001,LB,STUDY001-SUBJ0008,29,L00029,ALP,Alkaline Phosphatase,CHEMISTRY,83.61,U/L,44.0,147.0,83.61,83.61,U/L,44.0,147.0,NORMAL,,WEEK 1,3,2025-06-12,7
STUDY001,LB,STUDY001-SUBJ0008,30,L00030,ALT,Alanine Aminotransferase,CHEMISTRY,27.55,U/L,7.0,56.0,27.55,27.55,U/L,7.0,56.0,NORMAL,,WEEK 1,3,2025-06-12,7
STUDY001,LB,STUDY001-SUBJ0008,31,L00031,HGB,Hemoglobin,HEMATOLOGY,14.61,g/dL,13.5,17.5,14.61,14.61,g/dL,13.5,17.5,NORMAL,,WEEK 2,4,2025-06-19,14
STUDY001,LB,STUDY001-SUBJ0008,32,L00032,HCT,Hematocrit,HEMATOLOGY,43.25,%,41.0,51.0,43.25,43.25,%,41.0,51.0,NORMAL,,WEEK 2,4,2025-06-19,14
STUDY001,LB,STUDY001-SUBJ0008,33,L00033,WBC,White Blood Cell Count,HEMATOLOGY,5.87,10^9/L,4.5,11.0,5.87,5.87,10^9/L,4.5,11.0,NORMAL,,WEEK 2,4,2025-06-19,14
STUDY001,LB,STUDY001-SUBJ0008,34,L00034,PLT,Platelet Count,HEMATOLOGY,270.21,10^9/L,150.0,450.0,270.21,270.21,10^9/L,150.0,450.0,NORMAL,,WEEK 2,4,2025-06-19,14
STUDY001,LB,STUDY001-SUBJ0008,35,L00035,GLUC,Glucose,CHEMISTRY,64.55,mg/dL,70.0,100.0,64.55,64.55,mg/dL,70.0,100.0,LOW,,WEEK 2,4,2025-06-19,14
STUDY001,LB,STUDY001-SUBJ0008,36,L00036,BUN,Blood Urea Nitrogen,CHEMISTRY,11.42,mg/dL,7.0,20.0,11.42,11.42,mg/dL,7.0,20.0,NORMAL,,WEEK 2,4,2025-06-19,14
STUDY001,LB,STUDY001-SUBJ0008,37,L00037,CREAT,Creatinine,CHEMISTRY,0.87,mg/dL,0.6,1.2,0.87,0.87,mg/dL,0.6,1.2,NORMAL,,WEEK 2,4,2025-06-19,14
STUDY001,LB,STUDY001-SUBJ0008,38,L00038,BILI,Total Bilirubin,CHEMISTRY,0.86,mg/dL,0.1,1.2,0.86,0.86,mg/dL,0.1,1.2,NORMAL,,WEEK 2,4,2025-06-19,14
STUDY001,LB,STUDY001-SUBJ0008,39,L00039,ALP,Alkaline Phosphatase,CHEMISTRY,85.21,U/L,44.0,147.0,85.21,85.21,U/L,44.0,147.0,NORMAL,,WEEK 2,4,2025-06-19,14
STUDY001,LB,STUDY001-SUBJ0008,40,L00040,ALT,Alanine Aminotransferase,CHEMISTRY,26.43,U/L,7.0,56.0,26.43,26.43,U/L,7.0,56.0,NORMAL,,WEEK 2,4,2025-06-19,14
STUDY001,LB,STUDY001-SUBJ0008,41,L00041,HGB,Hemoglobin,HEMATOLOGY,14.68,g/dL,13.5,17.5,14.68,14.68,g/dL,13.5,17.5,NORMAL,,WEEK 4,5,2025-07-03,28
STUDY001,LB,STUDY001-SUBJ0008,42,L00042,HCT,Hematocrit,HEMATOLOGY,43.76,%,41.0,51.0,43.76,43.76,%,41.0,51.0,NORMAL,,WEEK 4,5,2025-07-03,28
STUDY001,LB,STUDY001-SUBJ0008,43,L00043,WBC,White Blood Cell Count,HEMATOLOGY,5.91,10^9/L,4.5,11.0,5.91,5.91,10^9/L,4.5,11.0,NORMAL,,WEEK 4,5,2025-07-03,28
STUDY001,LB,STUDY001-SUBJ0008,44,L00044,PLT,Platelet Count,HEMATOLOGY,266.54,10^9/L,150.0,450.0,266.54,266.54,10^9/L,150.0,450.0,NORMAL,,WEEK 4,5,2025-07-03,28
STUDY001,LB,STUDY001-SUBJ0008,45,L00045,GLUC,Glucose,CHEMISTRY,62.98,mg/dL,70.0,100.0,62.98,62.98,mg/dL,70.0,100.0,LOW,,WEEK 4,5,2025-07-03,28
STUDY001,LB,STUDY001-SUBJ0008,46,L00046,BUN,Blood Urea Nitrogen,CHEMISTRY,11.16,mg/dL,7.0,20.0,11.16,11.16,mg/dL,7.0,20.0,NORMAL,,WEEK 4,5,2025-07-03,28
STUDY001,LB,STUDY001-SUBJ0008,47,L00047,CREAT,Creatinine,CHEMISTRY,0.87,mg/dL,0.6,1.2,0.87,0.87,mg/dL,0.6,1.2,NORMAL,,WEEK 4,5,2025-07-03,28
STUDY001,LB,STUDY001-SUBJ0008,48,L00048,BILI,Total Bilirubin,CHEMISTRY,0.8,mg/dL,0.1,1.2,0.8,0.8,mg/dL,0.1,1.2,NORMAL,,WEEK 4,5,2025-07-03,28
STUDY001,LB,STUDY001-SUBJ0008,49,L00049,ALP,Alkaline Phosphatase,CHEMISTRY,86.82,U/L,44.0,147.0,86.82,86.82,U/L,44.0,147.0,NORMAL,,WEEK 4,5,2025-07-03,28
STUDY001,LB,STUDY001-SUBJ0008,50,L00050,ALT,Alanine Aminotransferase,CHEMISTRY,27.15,U/L,7.0,56.0,27.15,27.15,U/L,7.0,56.0,NORMAL,,WEEK 4,5,2025-07-03,28
STUDY001,LB,STUDY001-SUBJ0008,51,L00051,HGB,Hemoglobin,HEMATOLOGY,14.56,g/dL,13.5,17.5,14.56,14.56,g/dL,13.5,17.5,NORMAL,,WEEK 8,6,2025-07-31,56
STUDY001,LB,STUDY001-SUBJ0008,52,L00052,HCT,Hematocrit,HEMATOLOGY,43.62,%,41.0,51.0,43.62,43.62,%,41.0,51.0,NORMAL,,WEEK 8,6,2025-07-31,56
STUDY001,LB,STUDY001-SUBJ0008,53,L00053,WBC,White Blood Cell Count,HEMATOLOGY,6.24,10^9/L,4.5,11.0,6.24,6.24,10^9/L,4.5,11.0,NORMAL,,WEEK 8,6,2025-07-31,56
STUDY001,LB,STUDY001-SUBJ0008,54,L00054,PLT,Platelet Count,HEMATOLOGY,277.01,10^9/L,150.0,450.0,277.01,277.01,10^9/L,150.0,450.0,NORMAL,,WEEK 8,6,2025-07-31,56
STUDY001,LB,STUDY001-SUBJ0008,55,L00055,GLUC,Glucose,CHEMISTRY,64.11,mg/dL,70.0,100.0,64.11,64.11,mg/dL,70.0,100.0,LOW,,WEEK 8,6,2025-07-31,56
STUDY001,LB,STUDY001-SUBJ0008,56,L00056,BUN,Blood Urea Nitrogen,CHEMISTRY,11.66,mg/dL,7.0,20.0,11.66,11.66,mg/dL,7.0,20.0,NORMAL,,WEEK 8,6,2025-07-31,56
STUDY001,LB,STUDY001-SUBJ0008,57,L00057,CREAT,Creatinine,CHEMISTRY,0.86,mg/dL,0.6,1.2,0.86,0.86,mg/dL,0.6,1.2,NORMAL,,WEEK 8,6,2025-07-31,56
STUDY001,LB,STUDY001-SUBJ0008,58,L00058,BILI,Total Bilirubin,CHEMISTRY,0.83,mg/dL,0.1,1.2,0.83,0.83,mg/dL,0.1,1.2,NORMAL,,WEEK 8,6,2025-07-31,56
STUDY001,LB,STUDY001-SUBJ0008,59,L00059,ALP,Alkaline Phosphatase,CHEMISTRY,88.41,U/L,44.0,147.0,88.41,88.41,U/L,44.0,147.0,NORMAL,,WEEK 8,6,2025-07-31,56
STUDY001,LB,STUDY001-SUBJ0008,60,L00060,ALT,Alanine Aminotransferase,CHEMISTRY,25.95,U/L,7.0,56.0,25.95,25.95,U/L,7.0,56.0,NORMAL,,WEEK 8,6,2025-07-31,56
STUDY001,LB,STUDY001-SUBJ0008,61,L00061,HGB,Hemoglobin,HEMATOLOGY,14.41,g/dL,13.5,17.5,14.41,14.41,g/dL,13.5,17.5,NORMAL,,WEEK 12,7,2025-08-28,84
STUDY001,LB,STUDY001-SUBJ0008,62,L00062,HCT,Hematocrit,HEMATOLOGY,43.99,%,41.0,51.0,43.99,43.99,%,41.0,51.0,NORMAL,,WEEK 12,7,2025-08-28,84
STUDY001,LB,STUDY001-SUBJ0008,63,L00063,WBC,White Blood Cell Count,HEMATOLOGY,6.02,10^9/L,4.5,11.0,6.02,6.02,10^9/L,4.5,11.0,NORMAL,,WEEK 12,7,2025-08-28,84
STUDY001,LB,STUDY001-SUBJ0008,64,L00064,PLT,Platelet Count,HEMATOLOGY,259.7,10^9/L,150.0,450.0,259.7,259.7,10^9/L,150.0,450.0,NORMAL,,WEEK 12,7,2025-08-28,84
STUDY001,LB,STUDY001-SUBJ0008,65,L00065,GLUC,Glucose,CHEMISTRY,63.78,mg/dL,70.0,100.0,63.78,63.78,mg/dL,70.0,100.0,LOW,,WEEK 12,7,2025-08-28,84
STUDY001,LB,STUDY001-SUBJ0008,66,L00066,BUN,Blood Urea Nitrogen,CHEMISTRY,11.56,mg/dL,7.0,20.0,11.56,11.56,mg/dL,7.0,20.0,NORMAL,,WEEK 12,7,2025-08-28,84
STUDY001,LB,STUDY001-SUBJ0008,67,L00067,CREAT,Creatinine,CHEMISTRY,0.87,mg/dL,0.6,1.2,0.87,0.87,mg/dL,0.6,1.2,NORMAL,,WEEK 12,7,2025-08-28,84
STUDY001,LB,STUDY001-SUBJ0008,68,L00068,BILI,Total Bilirubin,CHEMISTRY,0.82,mg/dL,0.1,1.2,0.82,0.82,mg/dL,0.1,1.2,NORMAL,,WEEK 12,7,2025-08-28,84
STUDY001,LB,STUDY001-SUBJ0008,69,L00069,ALP,Alkaline Phosphatase,CHEMISTRY,85.42,U/L,44.0,147.0,85.42,85.42,U/L,44.0,147.0,NORMAL,,WEEK 12,7,2025-08-28,84
STUDY001,LB,STUDY001-SUBJ0008,70,L00070,ALT,Alanine Aminotransferase,CHEMISTRY,27.85,U/L,7.0,56.0,27.85,27.85,U/L,7.0,56.0,NORMAL,,WEEK 12,7,2025-08-28,84
STUDY001,LB,STUDY001-SUBJ0008,71,L00071,HGB,Hemoglobin,HEMATOLOGY,14.52,g/dL,13.5,17.5,14.52,14.52,g/dL,13.5,17.5,NORMAL,,WEEK 16,8,2025-09-25,112
STUDY001,LB,STUDY001-SUBJ0008,72,L00072,HCT,Hematocrit,HEMATOLOGY,43.32,%,41.0,51.0,43.32,43.32,%,41.0,51.0,NORMAL,,WEEK 16,8,2025-09-25,112
STUDY001,LB,STUDY001-SUBJ0008,73,L00073,WBC,White Blood Cell Count,HEMATOLOGY,5.81,10^9/L,4.5,11.0,5.81,5.81,10^9/L,4.5,11.0,NORMAL,,WEEK 16,8,2025-09-25,112
STUDY001,LB,STUDY001-SUBJ0008,74,L00074,PLT,Platelet Count,HEMATOLOGY,267.56,10^9/L,150.0,450.0,267.56,267.56,10^9/L,150.0,450.0,NORMAL,,WEEK 16,8,2025-09-25,112
STUDY001,LB,STUDY001-SUBJ0008,75,L00075,GLUC,Glucose,CHEMISTRY,62.8,mg/dL,70.0,100.0,62.8,62.8,mg/dL,70.0,100.0,LOW,,WEEK 16,8,2025-09-25,112
STUDY001,LB,STUDY001-SUBJ0008,76,L00076,BUN,Blood Urea Nitrogen,CHEMISTRY,11.52,mg/dL,7.0,20.0,11.52,11.52,mg/dL,7.0,20.0,NORMAL,,WEEK 16,8,2025-09-25,112
STUDY001,LB,STUDY001-SUBJ0008,77,L00077,CREAT,Creatinine,CHEMISTRY,0.88,mg/dL,0.6,1.2,0.88,0.88,mg/dL,0.6,1.2,NORMAL,,WEEK 16,8,2025-09-25,112
STUDY001,LB,STUDY001-SUBJ0008,78,L00078,BILI,Total Bilirubin,CHEMISTRY,0.85,mg/dL,0.1,1.2,0.85,0.85,mg/dL,0.1,1.2,NORMAL,,WEEK 16,8,2025-09-25,112
STUDY001,LB,STUDY001-SUBJ0008,79,L00079,ALP,Alkaline Phosphatase,CHEMISTRY,84.18,U/L,44.0,147.0,84.18,84.18,U/L,44.0,147.0,NORMAL,,WEEK 16,8,2025-09-25,112
STUDY001,LB,STUDY001-SUBJ0008,80,L00080,ALT,Alanine Aminotransferase,CHEMISTRY,27.05,U/L,7.0,56.0,27.05,27.05,U/L,7.0,56.0,NORMAL,,WEEK 16,8,2025-09-25,112
STUDY001,LB,STUDY001-SUBJ0008,81,L00081,HGB,Hemoglobin,HEMATOLOGY,14.32,g/dL,13.5,17.5,14.32,14.32,g/dL,13.5,17.5,NORMAL,,END OF TREATMENT,9,2025-10-23,140
STUDY001,LB,STUDY001-SUBJ0008,82,L00082,HCT,Hematocrit,HEMATOLOGY,43.63,%,41.0,51.0,43.63,43.63,%,41.0,51.0,NORMAL,,END OF TREATMENT,9,2025-10-23,140
STUDY001,LB,STUDY001-SUBJ0008,83,L00083,WBC,White Blood Cell Count,HEMATOLOGY,5.79,10^9/L,4.5,11.0,5.79,5.79,10^9/L,4.5,11.0,NORMAL,,END OF TREATMENT,9,2025-10-23,140
STUDY001,LB,STUDY001-SUBJ0008,84,L00084,PLT,Platelet Count,HEMATOLOGY,272.95,10^9/L,150.0,450.0,272.95,272.95,10^9/L,150.0,450.0,NORMAL,,END OF TREATMENT,9,2025-10-23,140
STUDY001,LB,STUDY001-SUBJ0008,85,L00085,GLUC,Glucose,CHEMISTRY,64.71,mg/dL,70.0,100.0,64.71,64.71,mg/dL,70.0,100.0,LOW,,END OF TREATMENT,9,2025-10-23,140
STUDY001,LB,STUDY001-SUBJ0008,86,L00086,BUN,Blood Urea Nitrogen,CHEMISTRY,11.84,mg/dL,7.0,20.0,11.84,11.84,mg/dL,7.0,20.0,NORMAL,,END OF TREATMENT,9,2025-10-23,140
STUDY001,LB,STUDY001-SUBJ0008,87,L00087,CREAT,Creatinine,CHEMISTRY,0.87,mg/dL,0.6,1.2,0.87,0.87,mg/dL,0.6,1.2,NORMAL,,END OF TREATMENT,9,2025-10-23,140
STUDY001,LB,STUDY001-SUBJ0008,88,L00088,BILI,Total Bilirubin,CHEMISTRY,0.86,mg/dL,0.1,1.2,0.86,0.86,mg/dL,0.1,1.2,NORMAL,,END OF TREATMENT,9,2025-10-23,140
STUDY001,LB,STUDY001-SUBJ0008,89,L00089,ALP,Alkaline Phosphatase,CHEMISTRY,84.17,U/L,44.0,147.0,84.17,84.17,U/L,44.0,147.0,NORMAL,,END OF TREATMENT,9,2025-10-23,140
STUDY001,LB,STUDY001-SUBJ0008,90,L00090,ALT,Alanine Aminotransferase,CHEMISTRY,26.89,U/L,7.0,56.0,26.89,26.89,U/L,7.0,56.0,NORMAL,,END OF TREATMENT,9,2025-10-23,140
STUDY001,LB,STUDY001-SUBJ0009,1,L00001,HGB,Hemoglobin,HEMATOLOGY,14.08,g/dL,13.5,17.5,14.08,14.08,g/dL,13.5,17.5,NORMAL,,SCREENING,1,2024-10-01,-14
STUDY001,LB,STUDY001-SUBJ0009,2,L00002,HCT,Hematocrit,HEMATOLOGY,47.78,%,41.0,51.0,47.78,47.78,%,41.0,51.0,NORMAL,,SCREENING,1,2024-10-01,-14
STUDY001,LB,STUDY001-SUBJ0009,3,L00003,WBC,White Blood Cell Count,HEMATOLOGY,6.57,10^9/L,4.5,11.0,6.57,6.57,10^9/L,4.5,11.0,NORMAL,,SCREENING,1,2024-10-01,-14
STUDY001,LB,STUDY001-SUBJ0009,4,L00004,PLT,Platelet Count,HEMATOLOGY,245.11,10^9/L,150.0,450.0,245.11,245.11,10^9/L,150.0,450.0,NORMAL,,SCREENING,1,2024-10-01,-14
STUDY001,LB,STUDY001-SUBJ0009,5,L00005,GLUC,Glucose,CHEMISTRY,86.97,mg/dL,70.0,100.0,86.97,86.97,mg/dL,70.0,100.0,NORMAL,,SCREENING,1,2024-10-01,-14
STUDY001,LB,STUDY001-SUBJ0009,6,L00006,BUN,Blood Urea Nitrogen,CHEMISTRY,15.61,mg/dL,7.0,20.0,15.61,15.61,mg/dL,7.0,20.0,NORMAL,,SCREENING,1,2024-10-01,-14
STUDY001,LB,STUDY001-SUBJ0009,7,L00007,CREAT,Creatinine,CHEMISTRY,0.74,mg/dL,0.6,1.2,0.74,0.74,mg/dL,0.6,1.2,NORMAL,,SCREENING,1,2024-10-01,-14
STUDY001,LB,STUDY001-SUBJ0009,8,L00008,BILI,Total Bilirubin,CHEMISTRY,1.06,mg/dL,0.1,1.2,1.06,1.06,mg/dL,0.1,1.2,NORMAL,,SCREENING,1,2024-10-01,-14
STUDY001,LB,STUDY001-SUBJ0009,9,L00009,ALP,Alkaline Phosphatase,CHEMISTRY,97.1,U/L,44.0,147.0,97.1,97.1,U/L,44.0,147.0,NORMAL,,SCREENING,1,2024-10-01,-14
STUDY001,LB,STUDY001-SUBJ0009,10,L00010,ALT,Alanine Aminotransferase,CHEMISTRY,44.54,U/L,7.0,56.0,44.54,44.54,U/L,7.0,56.0,NORMAL,,SCREENING,1,2024-10-01,-14
STUDY001,LB,STUDY001-SUBJ0009,11,L00011,HGB,Hemoglobin,HEMATOLOGY,14.13,g/dL,13.5,17.5,14.13,14.13,g/dL,13.5,17.5,NORMAL,Y,BASELINE,2,2024-10-15,1
STUDY001,LB,STUDY001-SUBJ0009,12,L00012,HCT,Hematocrit,HEMATOLOGY,48.26,%,41.0,51.0,48.26,48.26,%,41.0,51.0,NORMAL,Y,BASELINE,2,2024-10-15,1
STUDY001,LB,STUDY001-SUBJ0009,13,L00013,WBC,White Blood Cell Count,HEMATOLOGY,6.44,10^9/L,4.5,11.0,6.44,6.44,10^9/L,4.5,11.0,NORMAL,Y,BASELINE,2,2024-10-15,1
STUDY001,LB,STUDY001-SUBJ0009,14,L00014,PLT,Platelet Count,HEMATOLOGY,249.25,10^9/L,150.0,450.0,249.25,249.25,10^9/L,150.0,450.0,NORMAL,Y,BASELINE,2,2024-10-15,1
STUDY001,LB,STUDY001-SUBJ0009,15,L00015,GLUC,Glucose,CHEMISTRY,88.06,mg/dL,70.0,100.0,88.06,88.06,mg/dL,70.0,100.0,NORMAL,Y,BASELINE,2,2024-10-15,1
STUDY001,LB,STUDY001-SUBJ0009,16,L00016,BUN,Blood Urea Nitrogen,CHEMISTRY,14.98,mg/dL,7.0,20.0,14.98,14.98,mg/dL,7.0,20.0,NORMAL,Y,BASELINE,2,2024-10-15,1
STUDY001,LB,STUDY001-SUBJ0009,17,L00017,CREAT,Creatinine,CHEMISTRY,0.74,mg/dL,0.6,1.2,0.74,0.74,mg/dL,0.6,1.2,NORMAL,Y,BASELINE,2,2024-10-15,1
STUDY001,LB,STUDY001-SUBJ0009,18,L00018,BILI,Total Bilirubin,CHEMISTRY,1.1,mg/dL,0.1,1.2,1.1,1.1,mg/dL,0.1,1.2,NORMAL,Y,BASELINE,2,2024-10-15,1
STUDY001,LB,STUDY001-SUBJ0009,19,L00019,ALP,Alkaline Phosphatase,CHEMISTRY,96.68,U/L,44.0,147.0,96.68,96.68,U/L,44.0,147.0,NORMAL,Y,BASELINE,2,2024-10-15,1
STUDY001,LB,STUDY001-SUBJ0009,20,L00020,ALT,Alanine Aminotransferase,CHEMISTRY,42.99,U/L,7.0,56.0,42.99,42.99,U/L,7.0,56.0,NORMAL,Y,BASELINE,2,2024-10-15,1
STUDY001,LB,STUDY001-SUBJ0009,21,L00021,HGB,Hemoglobin,HEMATOLOGY,14.09,g/dL,13.5,17.5,14.09,14.09,g/dL,13.5,17.5,NORMAL,,WEEK 1,3,2024-10-21,7
STUDY001,LB,STUDY001-SUBJ0009,22,L00022,HCT,Hematocrit,HEMATOLOGY,48.53,%,41.0,51.0,48.53,48.53,%,41.0,51.0,NORMAL,,WEEK 1,3,2024-10-21,7
STUDY001,LB,STUDY001-SUBJ0009,23,L00023,WBC,White Blood Cell Count,HEMATOLOGY,6.82,10^9/L,4.5,11.0,6.82,6.82,10^9/L,4.5,11.0,NORMAL,,WEEK 1,3,2024-10-21,7
STUDY001,LB,STUDY001-SUBJ0009,24,L00024,PLT,Platelet Count,HEMATOLOGY,250.54,10^9/L,150.0,450.0,250.54,250.54,10^9/L,150.0,450.0,NORMAL,,WEEK 1,3,2024-10-21,7
STUDY001,LB,STUDY001-SUBJ0009,25,L00025,GLUC,Glucose,CHEMISTRY,86.69,mg/dL,70.0,100.0,86.69,86.69,mg/dL,70.0,100.0,NORMAL,,WEEK 1,3,2024-10-21,7
STUDY001,LB,STUDY001-SUBJ0009,26,L00026,BUN,Blood Urea Nitrogen,CHEMISTRY,15.69,mg/dL,7.0,20.0,15.69,15.69,mg/dL,7.0,20.0,NORMAL,,WEEK 1,3,2024-10-21,7
STUDY001,LB,STUDY001-SUBJ0009,27,L00027,CREAT,Creatinine,CHEMISTRY,0.75,mg/dL,0.6,1.2,0.75,0.75,mg/dL,0.6,1.2,NORMAL,,WEEK 1,3,2024-10-21,7
STUDY001,LB,STUDY001-SUBJ0009,28,L00028,BILI,Total Bilirubin,CHEMISTRY,1.1,mg/dL,0.1,1.2,1.1,1.1,mg/dL,0.1,1.2,NORMAL,,WEEK 1,3,2024-10-21,7
STUDY001,LB,STUDY001-SUBJ0009,29,L00029,ALP,Alkaline Phosphatase,CHEMISTRY,95.4,U/L,44.0,147.0,95.4,95.4,U/L,44.0,147.0,NORMAL,,WEEK 1,3,2024-10-21,7
STUDY001,LB,STUDY001-SUBJ0009,30,L00030,ALT,Alanine Aminotransferase,CHEMISTRY,43.95,U/L,7.0,56.0,43.95,43.95,U/L,7.0,56.0,NORMAL,,WEEK 1,3,2024-10-21,7
STUDY001,LB,STUDY001-SUBJ0009,31,L00031,HGB,Hemoglobin,HEMATOLOGY,13.82,g/dL,13.5,17.5,13.82,13.82,g/dL,13.5,17.5,NORMAL,,WEEK 2,4,2024-10-28,14
STUDY001,LB,STUDY001-SUBJ0009,32,L00032,HCT,Hematocrit,HEMATOLOGY,48.37,%,41.0,51.0,48.37,48.37,%,41.0,51.0,NORMAL,,WEEK 2,4,2024-10-28,14
STUDY001,LB,STUDY001-SUBJ0009,33,L00033,WBC,White Blood Cell Count,HEMATOLOGY,6.36,10^9/L,4.5,11.0,6.36,6.36,10^9/L,4.5,11.0,NORMAL,,WEEK 2,4,2024-10-28,14
STUDY001,LB,STUDY001-SUBJ0009,34,L00034,PLT,Platelet Count,HEMATOLOGY,246.45,10^9/L,150.0,450.0,246.45,246.45,10^9/L,150.0,450.0,NORMAL,,WEEK 2,4,2024-10-28,14
STUDY001,LB,STUDY001-SUBJ0009,35,L00035,GLUC,Glucose,CHEMISTRY,86.52,mg/dL,70.0,100.0,86.52,86.52,mg/dL,70.0,100.0,NORMAL,,WEEK 2,4,2024-10-28,14
STUDY001,LB,STUDY001-SUBJ0009,36,L00036,BUN,Blood Urea Nitrogen,CHEMISTRY,15.4,mg/dL,7.0,20.0,15.4,15.4,mg/dL,7.0,20.0,NORMAL,,WEEK 2,4,2024-10-28,14
STUDY001,LB,STUDY001-SUBJ0009,37,L00037,CREAT,Creatinine,CHEMISTRY,0.75,mg/dL,0.6,1.2,0.75,0.75,mg/dL,0.6,1.2,NORMAL,,WEEK 2,4,2024-10-28,14
STUDY001,LB,STUDY001-SUBJ0009,38,L00038,BILI,Total Bilirubin,CHEMISTRY,1.06,mg/dL,0.1,1.2,1.06,1.06,mg/dL,0.1,1.2,NORMAL,,WEEK 2,4,2024-10-28,14
STUDY001,LB,STUDY001-SUBJ0009,39,L00039,ALP,Alkaline Phosphatase,CHEMISTRY,93.53,U/L,44.0,147.0,93.53,93.53,U/L,44.0,147.0,NORMAL,,WEEK 2,4,2024-10-28,14
STUDY001,LB,STUDY001-SUBJ0009,40,L00040,ALT,Alanine Aminotransferase,CHEMISTRY,42.9,U/L,7.0,56.0,42.9,42.9,U/L,7.0,56.0,NORMAL,,WEEK 2,4,2024-10-28,14
STUDY001,LB,STUDY001-SUBJ0009,41,L00041,HGB,Hemoglobin,HEMATOLOGY,13.97,g/dL,13.5,17.5,13.97,13.97,g/dL,13.5,17.5,NORMAL,,WEEK 4,5,2024-11-11,28
STUDY001,LB,STUDY001-SUBJ0009,42,L00042,HCT,Hematocrit,HEMATOLOGY,48.21,%,41.0,51.0,48.21,48.21,%,41.0,51.0,NORMAL,,WEEK 4,5,2024-11-11,28
STUDY001,LB,STUDY001-SUBJ0009,43,L00043,WBC,White Blood Cell Count,HEMATOLOGY,6.47,10^9/L,4.5,11.0,6.47,6.47,10^9/L,4.5,11.0,NORMAL,,WEEK 4,5,2024-11-11,28
STUDY001,LB,STUDY001-SUBJ0009,44,L00044,PLT,Platelet Count,HEMATOLOGY,253.15,10^9/L,150.0,450.0,253.15,253.15,10^9/L,150.0,450.0,NORMAL,,WEEK 4,5,2024-11-11,28
STUDY001,LB,STUDY001-SUBJ0009,45,L00045,GLUC,Glucose,CHEMISTRY,87.71,mg/dL,70.0,100.0,87.71,87.71,mg/dL,70.0,100.0,NORMAL,,WEEK 4,5,2024-11-11,28
STUDY001,LB,STUDY001-SUBJ0009,46,L00046,BUN,Blood Urea Nitrogen,CHEMISTRY,14.76,mg/dL,7.0,20.0,14.76,14.76,mg/dL,7.0,20.0,NORMAL,,WEEK 4,5,2024-11-11,28
STUDY001,LB,STUDY001-SUBJ0009,47,L00047,CREAT,Creatinine,CHEMISTRY,0.72,mg/dL,0.6,1.2,0.72,0.72,mg/dL,0.6,1.2,NORMAL,,WEEK 4,5,2024-11-11,28
STUDY001,LB,STUDY001-SUBJ0009,48,L00048,BILI,Total Bilirubin,CHEMISTRY,1.08,mg/dL,0.1,1.2,1.08,1.08,mg/dL,0.1,1.2,NORMAL,,WEEK 4,5,2024-11-11,28
STUDY001,LB,STUDY001-SUBJ0009,49,L00049,ALP,Alkaline Phosphatase,CHEMISTRY,95.73,U/L,44.0,147.0,95.73,95.73,U/L,44.0,147.0,NORMAL,,WEEK 4,5,2024-11-11,28
STUDY001,LB,STUDY001-SUBJ0009,50,L00050,ALT,Alanine Aminotransferase,CHEMISTRY,44.74,U/L,7.0,56.0,44.74,44.74,U/L,7.0,56.0,NORMAL,,WEEK 4,5,2024-11-11,28
STUDY001,LB,STUDY001-SUBJ0009,51,L00051,HGB,Hemoglobin,HEMATOLOGY,13.97,g/dL,13.5,17.5,13.97,13.97,g/dL,13.5,17.5,NORMAL,,WEEK 8,6,2024-12-09,56
STUDY001,LB,STUDY001-SUBJ0009,52,L00052,HCT,Hematocrit,HEMATOLOGY,48.44,%,41.0,51.0,48.44,48.44,%,41.0,51.0,NORMAL,,WEEK 8,6,2024-12-09,56
STUDY001,LB,STUDY001-SUBJ0009,53,L00053,WBC,White Blood Cell Count,HEMATOLOGY,6.88,10^9/L,4.5,11.0,6.88,6.88,10^9/L,4.5,11.0,NORMAL,,WEEK 8,6,2024-12-09,56
STUDY001,LB,STUDY001-SUBJ0009,54,L00054,PLT,Platelet Count,HEMATOLOGY,252.3,10^9/L,150.0,450.0,252.3,252.3,10^9/L,150.0,450.0,NORMAL,,WEEK 8,6,2024-12-09,56
STUDY001,LB,STUDY001-SUBJ0009,55,L00055,GLUC,Glucose,CHEMISTRY,87.17,mg/dL,70.0,100.0,87.17,87.17,mg/dL,70.0,100.0,NORMAL,,WEEK 8,6,2024-12-09,56
STUDY001,LB,STUDY001-SUBJ0009,56,L00056,BUN,Blood Urea Nitrogen,CHEMISTRY,15.53,mg/dL,7.0,20.0,15.53,15.53,mg/dL,7.0,20.0,NORMAL,,WEEK 8,6,2024-12-09,56
STUDY001,LB,STUDY001-SUBJ0009,57,L00057,CREAT,Creatinine,CHEMISTRY,0.74,mg/dL,0.6,1.2,0.74,0.74,mg/dL,0.6,1.2,NORMAL,,WEEK 8,6,2024-12-09,56
STUDY001,LB,STUDY001-SUBJ0009,58,L00058,BILI,Total Bilirubin,CHEMISTRY,1.04,mg/dL,0.1,1.2,1.04,1.04,mg/dL,0.1,1.2,NORMAL,,WEEK 8,6,2024-12-09,56
STUDY001,LB,STUDY001-SUBJ0009,59,L00059,ALP,Alkaline Phosphatase,CHEMISTRY,97.54,U/L,44.0,147.0,97.54,97.54,U/L,44.0,147.0,NORMAL,,WEEK 8,6,2024-12-09,56
STUDY001,LB,STUDY001-SUBJ0009,60,L00060,ALT,Alanine Aminotransferase,CHEMISTRY,42.1,U/L,7.0,56.0,42.1,42.1,U/L,7.0,56.0,NORMAL,,WEEK 8,6,2024-12-09,56
STUDY001,LB,STUDY001-SUBJ0009,61,L00061,HGB,Hemoglobin,HEMATOLOGY,13.93,g/dL,13.5,17.5,13.93,13.93,g/dL,13.5,17.5,NORMAL,,WEEK 12,7,2025-01-06,84
STUDY001,LB,STUDY001-SUBJ0009,62,L00062,HCT,Hematocrit,HEMATOLOGY,48.06,%,41.0,51.0,48.06,48.06,%,41.0,51.0,NORMAL,,WEEK 12,7,2025-01-06,84
STUDY001,LB,STUDY001-SUBJ0009,63,L00063,WBC,White Blood Cell Count,HEMATOLOGY,6.37,10^9/L,4.5,11.0,6.37,6.37,10^9/L,4.5,11.0,NORMAL,,WEEK 12,7,2025-01-06,84
STUDY001,LB,STUDY001-SUBJ0009,64,L00064,PLT,Platelet Count,HEMATOLOGY,247.99,10^9/L,150.0,450.0,247.99,247.99,10^9/L,150.0,450.0,NORMAL,,WEEK 12,7,2025-01-06,84
STUDY001,LB,STUDY001-SUBJ0009,65,L00065,GLUC,Glucose,CHEMISTRY,87.74,mg/dL,70.0,100.0,87.74,87.74,mg/dL,70.0,100.0,NORMAL,,WEEK 12,7,2025-01-06,84
STUDY001,LB,STUDY001-SUBJ0009,66,L00066,BUN,Blood Urea Nitrogen,CHEMISTRY,14.69,mg/dL,7.0,20.0,14.69,14.69,mg/dL,7.0,20.0,NORMAL,,WEEK 12,7,2025-01-06,84
STUDY001,LB,STUDY001-SUBJ0009,67,L00067,CREAT,Creatinine,CHEMISTRY,0.76,mg/dL,0.6,1.2,0.76,0.76,mg/dL,0.6,1.2,NORMAL,,WEEK 12,7,2025-01-06,84
STUDY001,LB,STUDY001-SUBJ0009,68,L00068,BILI,Total Bilirubin,CHEMISTRY,1.07,mg/dL,0.1,1.2,1.07,1.07,mg/dL,0.1,1.2,NORMAL,,WEEK 12,7,2025-01-06,84
STUDY001,LB,STUDY001-SUBJ0009,69,L00069,ALP,Alkaline Phosphatase,CHEMISTRY,100.38,U/L,44.0,147.0,100.38,100.38,U/L,44.0,147.0,NORMAL,,WEEK 12,7,2025-01-06,84
STUDY001,LB,STUDY001-SUBJ0009,70,L00070,ALT,Alanine Aminotransferase,CHEMISTRY,44.91,U/L,7.0,56.0,44.91,44.91,U/L,7.0,56.0,NORMAL,,WEEK 12,7,2025-01-06,84
STUDY001,LB,STUDY001-SUBJ0009,71,L00071,HGB,Hemoglobin,HEMATOLOGY,14.01,g/dL,13.5,17.5,14.01,14.01,g/dL,13.5,17.5,NORMAL,,WEEK 16,8,2025-02-03,112
STUDY001,LB,STUDY001-SUBJ0009,72,L00072,HCT,Hematocrit,HEMATOLOGY,48.21,%,41.0,51.0,48.21,48.21,%,41.0,51.0,NORMAL,,WEEK 16,8,2025-02-03,112
STUDY001,LB,STUDY001-SUBJ0009,73,L00073,WBC,White Blood Cell Count,HEMATOLOGY,6.32,10^9/L,4.5,11.0,6.32,6.32,10^9/L,4.5,11.0,NORMAL,,WEEK 16,8,2025-02-03,112
STUDY001,LB,STUDY001-SUBJ0009,74,L00074,PLT,Platelet Count,HEMATOLOGY,254.46,10^9/L,150.0,450.0,254.46,254.46,10^9/L,150.0,450.0,NORMAL,,WEEK 16,8,2025-02-03,112
STUDY001,LB,STUDY001-SUBJ0009,75,L00075,GLUC,Glucose,CHEMISTRY,88.46,mg/dL,70.0,100.0,88.46,88.46,mg/dL,70.0,100.0,NORMAL,,WEEK 16,8,2025-02-03,112
STUDY001,LB,STUDY001-SUBJ0009,76,L00076,BUN,Blood Urea Nitrogen,CHEMISTRY,15.43,mg/dL,7.0,20.0,15.43,15.43,mg/dL,7.0,20.0,NORMAL,,WEEK 16,8,2025-02-03,112
STUDY001,LB,STUDY001-SUBJ0009,77,L00077,CREAT,Creatinine,CHEMISTRY,0.72,mg/dL,0.6,1.2,0.72,0.72,mg/dL,0.6,1.2,NORMAL,,WEEK 16,8,2025-02-03,112
STUDY001,LB,STUDY001-SUBJ0009,78,L00078,BILI,Total Bilirubin,CHEMISTRY,1.05,mg/dL,0.1,1.2,1.05,1.05,mg/dL,0.1,1.2,NORMAL,,WEEK 16,8,2025-02-03,112
STUDY001,LB,STUDY001-SUBJ0009,79,L00079,ALP,Alkaline Phosphatase,CHEMISTRY,97.51,U/L,44.0,147.0,97.51,97.51,U/L,44.0,147.0,NORMAL,,WEEK 16,8,2025-02-03,112
STUDY001,LB,STUDY001-SUBJ0009,80,L00080,ALT,Alanine Aminotransferase,CHEMISTRY,42.92,U/L,7.0,56.0,42.92,42.92,U/L,7.0,56.0,NORMAL,,WEEK 16,8,2025-02-03,112
STUDY001,LB,STUDY001-SUBJ0009,81,L00081,HGB,Hemoglobin,HEMATOLOGY,14.05,g/dL,13.5,17.5,14.05,14.05,g/dL,13.5,17.5,NORMAL,,END OF TREATMENT,9,2025-03-03,140
STUDY001,LB,STUDY001-SUBJ0009,82,L00082,HCT,Hematocrit,HEMATOLOGY,48.85,%,41.0,51.0,48.85,48.85,%,41.0,51.0,NORMAL,,END OF TREATMENT,9,2025-03-03,140
STUDY001,LB,STUDY001-SUBJ0009,83,L00083,WBC,White Blood Cell Count,HEMATOLOGY,6.42,10^9/L,4.5,11.0,6.42,6.42,10^9/L,4.5,11.0,NORMAL,,END OF TREATMENT,9,2025-03-03,140
STUDY001,LB,STUDY001-SUBJ0009,84,L00084,PLT,Platelet Count,HEMATOLOGY,253.3,10^9/L,150.0,450.0,253.3,253.3,10^9/L,150.0,450.0,NORMAL,,END OF TREATMENT,9,2025-03-03,140
STUDY001,LB,STUDY001-SUBJ0009,85,L00085,GLUC,Glucose,CHEMISTRY,88.37,mg/dL,70.0,100.0,88.37,88.37,mg/dL,70.0,100.0,NORMAL,,END OF TREATMENT,9,2025-03-03,140
STUDY001,LB,STUDY001-SUBJ0009,86,L00086,BUN,Blood Urea Nitrogen,CHEMISTRY,14.65,mg/dL,7.0,20.0,14.65,14.65,mg/dL,7.0,20.0,NORMAL,,END OF TREATMENT,9,2025-03-03,140
STUDY001,LB,STUDY001-SUBJ0009,87,L00087,CREAT,Creatinine,CHEMISTRY,0.73,mg/dL,0.6,1.2,0.73,0.73,mg/dL,0.6,1.2,NORMAL,,END OF TREATMENT,9,2025-03-03,140
STUDY001,LB,STUDY001-SUBJ0009,88,L00088,BILI,Total Bilirubin,CHEMISTRY,1.07,mg/dL,0.1,1.2,1.07,1.07,mg/dL,0.1,1.2,NORMAL,,END OF TREATMENT,9,2025-03-03,140
STUDY001,LB,STUDY001-SUBJ0009,89,L00089,ALP,Alkaline Phosphatase,CHEMISTRY,94.14,U/L,44.0,147.0,94.14,94.14,U/L,44.0,147.0,NORMAL,,END OF TREATMENT,9,2025-03-03,140
STUDY001,LB,STUDY001-SUBJ0009,90,L00090,ALT,Alanine Aminotransferase,CHEMISTRY,44.52,U/L,7.0,56.0,44.52,44.52,U/L,7.0,56.0,NORMAL,,END OF TREATMENT,9,2025-03-03,140
STUDY001,LB,STUDY001-SUBJ0010,1,L00001,HGB,Hemoglobin,HEMATOLOGY,14.45,g/dL,13.5,17.5,14.45,14.45,g/dL,13.5,17.5,NORMAL,,SCREENING,1,2025-05-18,-14
STUDY001,LB,STUDY001-SUBJ0010,2,L00002,HCT,Hematocrit,HEMATOLOGY,46.94,%,41.0,51.0,46.94,46.94,%,41.0,51.0,NORMAL,,SCREENING,1,2025-05-18,-14
STUDY001,LB,STUDY001-SUBJ0010,3,L00003,WBC,White Blood Cell Count,HEMATOLOGY,8.75,10^9/L,4.5,11.0,8.75,8.75,10^9/L,4.5,11.0,NORMAL,,SCREENING,1,2025-05-18,-14
STUDY001,LB,STUDY001-SUBJ0010,4,L00004,PLT,Platelet Count,HEMATOLOGY,275.5,10^9/L,150.0,450.0,275.5,275.5,10^9/L,150.0,450.0,NORMAL,,SCREENING,1,2025-05-18,-14
STUDY001,LB,STUDY001-SUBJ0010,5,L00005,GLUC,Glucose,CHEMISTRY,98.84,mg/dL,70.0,100.0,98.84,98.84,mg/dL,70.0,100.0,NORMAL,,SCREENING,1,2025-05-18,-14
STUDY001,LB,STUDY001-SUBJ0010,6,L00006,BUN,Blood Urea Nitrogen,CHEMISTRY,9.6,mg/dL,7.0,20.0,9.6,9.6,mg/dL,7.0,20.0,NORMAL,,SCREENING,1,2025-05-18,-14
STUDY001,LB,STUDY001-SUBJ0010,7,L00007,CREAT,Creatinine,CHEMISTRY,0.65,mg/dL,0.6,1.2,0.65,0.65,mg/dL,0.6,1.2,NORMAL,,SCREENING,1,2025-05-18,-14
STUDY001,LB,STUDY001-SUBJ0010,8,L00008,BILI,Total Bilirubin,CHEMISTRY,0.43,mg/dL,0.1,1.2,0.43,0.43,mg/dL,0.1,1.2,NORMAL,,SCREENING,1,2025-05-18,-14
STUDY001,LB,STUDY001-SUBJ0010,9,L00009,ALP,Alkaline Phosphatase,CHEMISTRY,117.46,U/L,44.0,147.0,117.46,117.46,U/L,44.0,147.0,NORMAL,,SCREENING,1,2025-05-18,-14
STUDY001,LB,STUDY001-SUBJ0010,10,L00010,ALT,Alanine Aminotransferase,CHEMISTRY,23.23,U/L,7.0,56.0,23.23,23.23,U/L,7.0,56.0,NORMAL,,SCREENING,1,2025-05-18,-14
STUDY001,LB,STUDY001-SUBJ0010,11,L00011,HGB,Hemoglobin,HEMATOLOGY,14.38,g/dL,13.5,17.5,14.38,14.38,g/dL,13.5,17.5,NORMAL,Y,BASELINE,2,2025-06-01,1
STUDY001,LB,STUDY001-SUBJ0010,12,L00012,HCT,Hematocrit,HEMATOLOGY,46.69,%,41.0,51.0,46.69,46.69,%,41.0,51.0,NORMAL,Y,BASELINE,2,2025-06-01,1
STUDY001,LB,STUDY001-SUBJ0010,13,L00013,WBC,White Blood Cell Count,HEMATOLOGY,8.56,10^9/L,4.5,11.0,8.56,8.56,10^9/L,4.5,11.0,NORMAL,Y,BASELINE,2,2025-06-01,1
STUDY001,LB,STUDY001-SUBJ0010,14,L00014,PLT,Platelet Count,HEMATOLOGY,298.38,10^9/L,150.0,450.0,298.38,298.38,10^9/L,150.0,450.0,NORMAL,Y,BASELINE,2,2025-06-01,1
STUDY001,LB,STUDY001-SUBJ0010,15,L00015,GLUC,Glucose,CHEMISTRY,98.04,mg/dL,70.0,100.0,98.04,98.04,mg/dL,70.0,100.0,NORMAL,Y,BASELINE,2,2025-06-01,1
STUDY001,LB,STUDY001-SUBJ0010,16,L00016,BUN,Blood Urea Nitrogen,CHEMISTRY,8.49,mg/dL,7.0,20.0,8.49,8.49,mg/dL,7.0,20.0,NORMAL,Y,BASELINE,2,2025-06-01,1
STUDY001,LB,STUDY001-SUBJ0010,17,L00017,CREAT,Creatinine,CHEMISTRY,0.68,mg/dL,0.6,1.2,0.68,0.68,mg/dL,0.6,1.2,NORMAL,Y,BASELINE,2,2025-06-01,1
STUDY001,LB,STUDY001-SUBJ0010,18,L00018,BILI,Total Bilirubin,CHEMISTRY,0.42,mg/dL,0.1,1.2,0.42,0.42,mg/dL,0.1,1.2,NORMAL,Y,BASELINE,2,2025-06-01,1
STUDY001,LB,STUDY001-SUBJ0010,19,L00019,ALP,Alkaline Phosphatase,CHEMISTRY,116.43,U/L,44.0,147.0,116.43,116.43,U/L,44.0,147.0,NORMAL,Y,BASELINE,2,2025-06-01,1
STUDY001,LB,STUDY001-SUBJ0010,20,L00020,ALT,Alanine Aminotransferase,CHEMISTRY,24.28,U/L,7.0,56.0,24.28,24.28,U/L,7.0,56.0,NORMAL,Y,BASELINE,2,2025-06-01,1
STUDY001,LB,STUDY001-SUBJ0010,21,L00021,HGB,Hemoglobin,HEMATOLOGY,14.45,g/dL,13.5,17.5,14.45,14.45,g/dL,13.5,17.5,NORMAL,,WEEK 1,3,2025-06-07,7
STUDY001,LB,STUDY001-SUBJ0010,22,L00022,HCT,Hematocrit,HEMATOLOGY,47.1,%,41.0,51.0,47.1,47.1,%,41.0,51.0,NORMAL,,WEEK 1,3,2025-06-07,7
STUDY001,LB,STUDY001-SUBJ0010,23,L00023,WBC,White Blood Cell Count,HEMATOLOGY,8.6,10^9/L,4.5,11.0,8.6,8.6,10^9/L,4.5,11.0,NORMAL,,WEEK 1,3,2025-06-07,7
STUDY001,LB,STUDY001-SUBJ0010,24,L00024,PLT,Platelet Count,HEMATOLOGY,293.41,10^9/L,150.0,450.0,293.41,293.41,10^9/L,150.0,450.0,NORMAL,,WEEK 1,3,2025-06-07,7
STUDY001,LB,STUDY001-SUBJ0010,25,L00025,GLUC,Glucose,CHEMISTRY,100.15,mg/dL,70.0,100.0,100.15,100.15,mg/dL,70.0,100.0,HIGH,,WEEK 1,3,2025-06-07,7
STUDY001,LB,STUDY001-SUBJ0010,26,L00026,BUN,Blood Urea Nitrogen,CHEMISTRY,9.27,mg/dL,7.0,20.0,9.27,9.27,mg/dL,7.0,20.0,NORMAL,,WEEK 1,3,2025-06-07,7
STUDY001,LB,STUDY001-SUBJ0010,27,L00027,CREAT,Creatinine,CHEMISTRY,0.68,mg/dL,0.6,1.2,0.68,0.68,mg/dL,0.6,1.2,NORMAL,,WEEK 1,3,2025-06-07,7
STUDY001,LB,STUDY001-SUBJ0010,28,L00028,BILI,Total Bilirubin,CHEMISTRY,0.47,mg/dL,0.1,1.2,0.47,0.47,mg/dL,0.1,1.2,NORMAL,,WEEK 1,3,2025-06-07,7
STUDY001,LB,STUDY001-SUBJ0010,29,L00029,ALP,Alkaline Phosphatase,CHEMISTRY,115.56,U/L,44.0,147.0,115.56,115.56,U/L,44.0,147.0,NORMAL,,WEEK 1,3,2025-06-07,7
STUDY001,LB,STUDY001-SUBJ0010,30,L00030,ALT,Alanine Aminotransferase,CHEMISTRY,23.37,U/L,7.0,56.0,23.37,23.37,U/L,7.0,56.0,NORMAL,,WEEK 1,3,2025-06-07,7
STUDY001,LB,STUDY001-SUBJ0010,31,L00031,HGB,Hemoglobin,HEMATOLOGY,14.28,g/dL,13.5,17.5,14.28,14.28,g/dL,13.5,17.5,NORMAL,,WEEK 2,4,2025-06-14,14
STUDY001,LB,STUDY001-SUBJ0010,32,L00032,HCT,Hematocrit,HEMATOLOGY,46.53,%,41.0,51.0,46.53,46.53,%,41.0,51.0,NORMAL,,WEEK 2,4,2025-06-14,14
STUDY001,LB,STUDY001-SUBJ0010,33,L00033,WBC,White Blood Cell Count,HEMATOLOGY,8.56,10^9/L,4.5,11.0,8.56,8.56,10^9/L,4.5,11.0,NORMAL,,WEEK 2,4,2025-06-14,14
STUDY001,LB,STUDY001-SUBJ0010,34,L00034,PLT,Platelet Count,HEMATOLOGY,300.89,10^9/L,150.0,450.0,300.89,300.89,10^9/L,150.0,450.0,NORMAL,,WEEK 2,4,2025-06-14,14
STUDY001,LB,STUDY001-SUBJ0010,35,L00035,GLUC,Glucose,CHEMISTRY,99.62,mg/dL,70.0,100.0,99.62,99.62,mg/dL,70.0,100.0,NORMAL,,WEEK 2,4,2025-06-14,14
STUDY001,LB,STUDY001-SUBJ0010,36,L00036,BUN,Blood Urea Nitrogen,CHEMISTRY,9.49,mg/dL,7.0,20.0,9.49,9.49,mg/dL,7.0,20.0,NORMAL,,WEEK 2,4,2025-06-14,14
STUDY001,LB,STUDY001-SUBJ0010,37,L00037,CREAT,Creatinine,CHEMISTRY,0.66,mg/dL,0.6,1.2,0.66,0.66,mg/dL,0.6,1.2,NORMAL,,WEEK 2,4,2025-06-14,14
STUDY001,LB,STUDY001-SUBJ0010,38,L00038,BILI,Total Bilirubin,CHEMISTRY,0.4,mg/dL,0.1,1.2,0.4,0.4,mg/dL,0.1,1.2,NORMAL,,WEEK 2,4,2025-06-14,14
STUDY001,LB,STUDY001-SUBJ0010,39,L00039,ALP,Alkaline Phosphatase,CHEMISTRY,116.24,U/L,44.0,147.0,116.24,116.24,U/L,44.0,147.0,NORMAL,,WEEK 2,4,2025-06-14,14
STUDY001,LB,STUDY001-SUBJ0010,40,L00040,ALT,Alanine Aminotransferase,CHEMISTRY,25.15,U/L,7.0,56.0,25.15,25.15,U/L,7.0,56.0,NORMAL,,WEEK 2,4,2025-06-14,14
STUDY001,LB,STUDY001-SUBJ0010,41,L00041,HGB,Hemoglobin,HEMATOLOGY,14.42,g/dL,13.5,17.5,14.42,14.42,g/dL,13.5,17.5,NORMAL,,WEEK 4,5,2025-06-28,28
STUDY001,LB,STUDY001-SUBJ0010,42,L00042,HCT,Hematocrit,HEMATOLOGY,46.65,%,41.0,51.0,46.65,46.65,%,41.0,51.0,NORMAL,,WEEK 4,5,2025-06-28,28
STUDY001,LB,STUDY001-SUBJ0010,43,L00043,WBC,White Blood Cell Count,HEMATOLOGY,8.6,10^9/L,4.5,11.0,8.6,8.6,10^9/L,4.5,11.0,NORMAL,,WEEK 4,5,2025-06-28,28
STUDY001,LB,STUDY001-SUBJ0010,44,L00044,PLT,Platelet Count,HEMATOLOGY,283.46,10^9/L,150.0,450.0,283.46,283.46,10^9/L,150.0,450.0,NORMAL,,WEEK 4,5,2025-06-28,28
STUDY001,LB,STUDY001-SUBJ0010,45,L00045,GLUC,Glucose,CHEMISTRY,98.0,mg/dL,70.0,100.0,98.0,98.0,mg/dL,70.0,100.0,NORMAL,,WEEK 4,5,2025-06-28,28
STUDY001,LB,STUDY001-SUBJ0010,46,L00046,BUN,Blood Urea Nitrogen,CHEMISTRY,9.59,mg/dL,7.0,20.0,9.59,9.59,mg/dL,7.0,20.0,NORMAL,,WEEK 4,5,2025-06-28,28
STUDY001,LB,STUDY001-SUBJ0010,47,L00047,CREAT,Creatinine,CHEMISTRY,0.67,mg/dL,0.6,1.2,0.67,0.67,mg/dL,0.6,1.2,NORMAL,,WEEK 4,5,2025-06-28,28
STUDY001,LB,STUDY001-SUBJ0010,48,L00048,BILI,Total Bilirubin,CHEMISTRY,0.44,mg/dL,0.1,1.2,0.44,0.44,mg/dL,0.1,1.2,NORMAL,,WEEK 4,5,2025-06-28,28
STUDY001,LB,STUDY001-SUBJ0010,49,L00049,ALP,Alkaline Phosphatase,CHEMISTRY,119.24,U/L,44.0,147.0,119.24,119.24,U/L,44.0,147.0,NORMAL,,WEEK 4,5,2025-06-28,28
STUDY001,LB,STUDY001-SUBJ0010,50,L00050,ALT,Alanine Aminotransferase,CHEMISTRY,22.93,U/L,7.0,56.0,22.93,22.93,U/L,7.0,56.0,NORMAL,,WEEK 4,5,2025-06-28,28
STUDY001,LB,STUDY001-SUBJ0010,51,L00051,HGB,Hemoglobin,HEMATOLOGY,14.37,g/dL,13.5,17.5,14.37,14.37,g/dL,13.5,17.5,NORMAL,,WEEK 8,6,2025-07-26,56
STUDY001,LB,STUDY001-SUBJ0010,52,L00052,HCT,Hematocrit,HEMATOLOGY,46.76,%,41.0,51.0,46.76,46.76,%,41.0,51.0,NORMAL,,WEEK 8,6,2025-07-26,56
STUDY001,LB,STUDY001-SUBJ0010,53,L00053,WBC,White Blood Cell Count,HEMATOLOGY,8.67,10^9/L,4.5,11.0,8.67,8.67,10^9/L,4.5,11.0,NORMAL,,WEEK 8,6,2025-07-26,56
STUDY001,LB,STUDY001-SUBJ0010,54,L00054,PLT,Platelet Count,HEMATOLOGY,301.37,10^9/L,150.0,450.0,301.37,301.37,10^9/L,150.0,450.0,NORMAL,,WEEK 8,6,2025-07-26,56
STUDY001,LB,STUDY001-SUBJ0010,55,L00055,GLUC,Glucose,CHEMISTRY,97.94,mg/dL,70.0,100.0,97.94,97.94,mg/dL,70.0,100.0,NORMAL,,WEEK 8,6,2025-07-26,56
STUDY001,LB,STUDY001-SUBJ0010,56,L00056,BUN,Blood Urea Nitrogen,CHEMISTRY,9.76,mg/dL,7.0,20.0,9.76,9.76,mg/dL,7.0,20.0,NORMAL,,WEEK 8,6,2025-07-26,56
STUDY001,LB,STUDY001-SUBJ0010,57,L00057,CREAT,Creatinine,CHEMISTRY,0.67,mg/dL,0.6,1.2,0.67,0.67,mg/dL,0.6,1.2,NORMAL,,WEEK 8,6,2025-07-26,56
STUDY001,LB,STUDY001-SUBJ0010,58,L00058,BILI,Total Bilirubin,CHEMISTRY,0.36,mg/dL,0.1,1.2,0.36,0.36,mg/dL,0.1,1.2,NORMAL,,WEEK 8,6,2025-07-26,56
STUDY001,LB,STUDY001-SUBJ0010,59,L00059,ALP,Alkaline Phosphatase,CHEMISTRY,116.24,U/L,44.0,147.0,116.24,116.24,U/L,44.0,147.0,NORMAL,,WEEK 8,6,2025-07-26,56
STUDY001,LB,STUDY001-SUBJ0010,60,L00060,ALT,Alanine Aminotransferase,CHEMISTRY,22.74,U/L,7.0,56.0,22.74,22.74,U/L,7.0,56.0,NORMAL,,WEEK 8,6,2025-07-26,56
STUDY001,LB,STUDY001-SUBJ0010,61,L00061,HGB,Hemoglobin,HEMATOLOGY,14.27,g/dL,13.5,17.5,14.27,14.27,g/dL,13.5,17.5,NORMAL,,WEEK 12,7,2025-08-23,84
STUDY001,LB,STUDY001-SUBJ0010,62,L00062,HCT,Hematocrit,HEMATOLOGY,46.56,%,41.0,51.0,46.56,46.56,%,41.0,51.0,NORMAL,,WEEK 12,7,2025-08-23,84
STUDY001,LB,STUDY001-SUBJ0010,63,L00063,WBC,White Blood Cell Count,HEMATOLOGY,8.65,10^9/L,4.5,11.0,8.65,8.65,10^9/L,4.5,11.0,NORMAL,,WEEK 12,7,2025-08-23,84
STUDY001,LB,STUDY001-SUBJ0010,64,L00064,PLT,Platelet Count,HEMATOLOGY,286.5,10^9/L,150.0,450.0,286.5,286.5,10^9/L,150.0,450.0,NORMAL,,WEEK 12,7,2025-08-23,84
STUDY001,LB,STUDY001-SUBJ0010,65,L00065,GLUC,Glucose,CHEMISTRY,97.97,mg/dL,70.0,100.0,97.97,97.97,mg/dL,70.0,100.0,NORMAL,,WEEK 12,7,2025-08-23,84
STUDY001,LB,STUDY001-SUBJ0010,66,L00066,BUN,Blood Urea Nitrogen,CHEMISTRY,9.23,mg/dL,7.0,20.0,9.23,9.23,mg/dL,7.0,20.0,NORMAL,,WEEK 12,7,2025-08-23,84
STUDY001,LB,STUDY001-SUBJ0010,67,L00067,CREAT,Creatinine,CHEMISTRY,0.64,mg/dL,0.6,1.2,0.64,0.64,mg/dL,0.6,1.2,NORMAL,,WEEK 12,7,2025-08-23,84
STUDY001,LB,STUDY001-SUBJ0010,68,L00068,BILI,Total Bilirubin,CHEMISTRY,0.41,mg/dL,0.1,1.2,0.41,0.41,mg/dL,0.1,1.2,NORMAL,,WEEK 12,7,2025-08-23,84
STUDY001,LB,STUDY001-SUBJ0010,69,L00069,ALP,Alkaline Phosphatase,CHEMISTRY,116.79,U/L,44.0,147.0,116.79,116.79,U/L,44.0,147.0,NORMAL,,WEEK 12,7,2025-08-23,84
STUDY001,LB,STUDY001-SUBJ0010,70,L00070,ALT,Alanine Aminotransferase,CHEMISTRY,22.9,U/L,7.0,56.0,22.9,22.9,U/L,7.0,56.0,NORMAL,,WEEK 12,7,2025-08-23,84
STUDY001,LB,STUDY001-SUBJ0010,71,L00071,HGB,Hemoglobin,HEMATOLOGY,14.41,g/dL,13.5,17.5,14.41,14.41,g/dL,13.5,17.5,NORMAL,,WEEK 16,8,2025-09-20,112
STUDY001,LB,STUDY001-SUBJ0010,72,L00072,HCT,Hematocrit,HEMATOLOGY,47.14,%,41.0,51.0,47.14,47.14,%,41.0,51.0,NORMAL,,WEEK 16,8,2025-09-20,112
STUDY001,LB,STUDY001-SUBJ0010,73,L00073,WBC,White Blood Cell Count,HEMATOLOGY,8.67,10^9/L,4.5,11.0,8.67,8.67,10^9/L,4.5,11.0,NORMAL,,WEEK 16,8,2025-09-20,112
STUDY001,LB,STUDY001-SUBJ0010,74,L00074,PLT,Platelet Count,HEMATOLOGY,300.61,10^9/L,150.0,450.0,300.61,300.61,10^9/L,150.0,450.0,NORMAL,,WEEK 16,8,2025-09-20,112
STUDY001,LB,STUDY001-SUBJ0010,75,L00075,GLUC,Glucose,CHEMISTRY,98.74,mg/dL,70.0,100.0,98.74,98.74,mg/dL,70.0,100.0,NORMAL,,WEEK 16,8,2025-09-20,112
STUDY001,LB,STUDY001-SUBJ0010,76,L00076,BUN,Blood Urea Nitrogen,CHEMISTRY,8.67,mg/dL,7.0,20.0,8.67,8.67,mg/dL,7.0,20.0,NORMAL,,WEEK 16,8,2025-09-20,112
STUDY001,LB,STUDY001-SUBJ0010,77,L00077,CREAT,Creatinine,CHEMISTRY,0.68,mg/dL,0.6,1.2,0.68,0.68,mg/dL,0.6,1.2,NORMAL,,WEEK 16,8,2025-09-20,112
STUDY001,LB,STUDY001-SUBJ0010,78,L00078,BILI,Total Bilirubin,CHEMISTRY,0.43,mg/dL,0.1,1.2,0.43,0.43,mg/dL,0.1,1.2,NORMAL,,WEEK 16,8,2025-09-20,112
STUDY001,LB,STUDY001-SUBJ0010,79,L00079,ALP,Alkaline Phosphatase,CHEMISTRY,117.52,U/L,44.0,147.0,117.52,117.52,U/L,44.0,147.0,NORMAL,,WEEK 16,8,2025-09-20,112
STUDY001,LB,STUDY001-SUBJ0010,80,L00080,ALT,Alanine Aminotransferase,CHEMISTRY,24.06,U/L,7.0,56.0,24.06,24.06,U/L,7.0,56.0,NORMAL,,WEEK 16,8,2025-09-20,112
STUDY001,LB,STUDY001-SUBJ0010,81,L00081,HGB,Hemoglobin,HEMATOLOGY,14.39,g/dL,13.5,17.5,14.39,14.39,g/dL,13.5,17.5,NORMAL,,END OF TREATMENT,9,2025-10-18,140
STUDY001,LB,STUDY001-SUBJ0010,82,L00082,HCT,Hematocrit,HEMATOLOGY,46.92,%,41.0,51.0,46.92,46.92,%,41.0,51.0,NORMAL,,END OF TREATMENT,9,2025-10-18,140
STUDY001,LB,STUDY001-SUBJ0010,83,L00083,WBC,White Blood Cell Count,HEMATOLOGY,8.6,10^9/L,4.5,11.0,8.6,8.6,10^9/L,4.5,11.0,NORMAL,,END OF TREATMENT,9,2025-10-18,140
STUDY001,LB,STUDY001-SUBJ0010,84,L00084,PLT,Platelet Count,HEMATOLOGY,287.9,10^9/L,150.0,450.0,287.9,287.9,10^9/L,150.0,450.0,NORMAL,,END OF TREATMENT,9,2025-10-18,140
STUDY001,LB,STUDY001-SUBJ0010,85,L00085,GLUC,Glucose,CHEMISTRY,101.06,mg/dL,70.0,100.0,101.06,101.06,mg/dL,70.0,100.0,HIGH,,END OF TREATMENT,9,2025-10-18,140
STUDY001,LB,STUDY001-SUBJ0010,86,L00086,BUN,Blood Urea Nitrogen,CHEMISTRY,9.46,mg/dL,7.0,20.0,9.46,9.46,mg/dL,7.0,20.0,NORMAL,,END OF TREATMENT,9,2025-10-18,140
STUDY001,LB,STUDY001-SUBJ0010,87,L00087,CREAT,Creatinine,CHEMISTRY,0.67,mg/dL,0.6,1.2,0.67,0.67,mg/dL,0.6,1.2,NORMAL,,END OF TREATMENT,9,2025-10-18,140
STUDY001,LB,STUDY001-SUBJ0010,88,L00088,BILI,Total Bilirubin,CHEMISTRY,0.41,mg/dL,0.1,1.2,0.41,0.41,mg/dL,0.1,1.2,NORMAL,,END OF TREATMENT,9,2025-10-18,140
STUDY001,LB,STUDY001-SUBJ0010,89,L00089,ALP,Alkaline Phosphatase,CHEMISTRY,119.67,U/L,44.0,147.0,119.67,119.67,U/L,44.0,147.0,NORMAL,,END OF TREATMENT,9,2025-10-18,140
STUDY001,LB,STUDY001-SUBJ0010,90,L00090,ALT,Alanine Aminotransferase,CHEMISTRY,22.45,U/L,7.0,56.0,22.45,22.45,U/L,7.0,56.0,NORMAL,,END OF TREATMENT,9,2025-10-18,140
