STUDYID,DOMAIN,USUBJID,LBSEQ,LBREFID,LBTESTCD,LBTEST,LBCAT,LBORRES,LBORRESU,LBORNRLO,LBORNRHI,LBSTRESC,LBSTRESN,LBSTRESU,LBSTNRLO,LBSTNRHI,LBNRIND,LBBLFL,VISIT,VISITNUM,LBDTC,LBDY
STUDY001,LB,STUDY001-SUBJ0001,1,L00001,HGB,Hemoglobin,HEMATOLOGY,14.53,g/dL,13.5,17.5,14.53,14.53,g/dL,13.5,17.5,NORMAL,,SCREENING,1,2024-11-28,-14
STUDY001,LB,STUDY001-SUBJ0001,2,L00002,HCT,Hematocrit,HEMATOLOGY,42.78,%,41.0,51.0,42.78,42.78,%,41.0,51.0,NORMAL,,SCREENING,1,2024-11-28,-14
STUDY001,LB,STUDY001-SUBJ0001,3,L00003,WBC,White Blood Cell Count,HEMATOLOGY,7.8,10^9/L,4.5,11.0,7.8,7.8,10^9/L,4.5,11.0,NORMAL,,SCREENING,1,2024-11-28,-14
STUDY001,LB,STUDY001-SUBJ0001,4,L00004,PLT,Platelet Count,HEMATOLOGY,252.56,10^9/L,150.0,450.0,252.56,252.56,10^9/L,150.0,450.0,NORMAL,,SCREENING,1,2024-11-28,-14
STUDY001,LB,STUDY001-SUBJ0001,5,L00005,GLUC,Glucose,CHEMISTRY,81.53,mg/dL,70.0,100.0,81.53,81.53,mg/dL,70.0,100.0,NORMAL,,SCREENING,1,2024-11-28,-14
STUDY001,LB,STUDY001-SUBJ0001,6,L00006,BUN,Blood Urea Nitrogen,CHEMISTRY,16.0,mg/dL,7.0,20.0,16.0,16.0,mg/dL,7.0,20.0,NORMAL,,SCREENING,1,2024-11-28,-14
STUDY001,LB,STUDY001-SUBJ0001,7,L00007,CREAT,Creatinine,CHEMISTRY,0.92,mg/dL,0.6,1.2,0.92,0.92,mg/dL,0.6,1.2,NORMAL,,SCREENING,1,2024-11-28,-14
STUDY001,LB,STUDY001-SUBJ0001,8,L00008,BILI,Total Bilirubin,CHEMISTRY,0.26,mg/dL,0.1,1.2,0.26,0.26,mg/dL,0.1,1.2,NORMAL,,SCREENING,1,2024-11-28,-14
STUDY001,LB,STUDY001-SUBJ0001,9,L00009,ALP,Alkaline Phosphatase,CHEMISTRY,79.67,U/L,44.0,147.0,79.67,79.67,U/L,44.0,147.0,NORMAL,,SCREENING,1,2024-11-28,-14
STUDY001,LB,STUDY001-SUBJ0001,10,L00010,ALT,Alanine Aminotransferase,CHEMISTRY,41.74,U/L,7.0,56.0,41.74,41.74,U/L,7.0,56.0,NORMAL,,SCREENING,1,2024-11-28,-14
STUDY001,LB,STUDY001-SUBJ0001,11,L00011,HGB,Hemoglobin,HEMATOLOGY,14.8,g/dL,13.5,17.5,14.8,14.8,g/dL,13.5,17.5,NORMAL,Y,BASELINE,2,2024-12-12,1
STUDY001,LB,STUDY001-SUBJ0001,12,L00012,HCT,Hematocrit,HEMATOLOGY,42.86,%,41.0,51.0,42.86,42.86,%,41.0,51.0,NORMAL,Y,BASELINE,2,2024-12-12,1
STUDY001,LB,STUDY001-SUBJ0001,13,L00013,WBC,White Blood Cell Count,HEMATOLOGY,7.85,10^9/L,4.5,11.0,7.85,7.85,10^9/L,4.5,11.0,NORMAL,Y,BASELINE,2,2024-12-12,1
STUDY001,LB,STUDY001-SUBJ0001,14,L00014,PLT,Platelet Count,HEMATOLOGY,255.65,10^9/L,150.0,450.0,255.65,255.65,10^9/L,150.0,450.0,NORMAL,Y,BASELINE,2,2024-12-12,1
STUDY001,LB,STUDY001-SUBJ0001,15,L00015,GLUC,Glucose,CHEMISTRY,84.25,mg/dL,70.0,100.0,84.25,84.25,mg/dL,70.0,100.0,NORMAL,Y,BASELINE,2,2024-12-12,1
STUDY001,LB,STUDY001-SUBJ0001,16,L00016,BUN,Blood Urea Nitrogen,CHEMISTRY,16.07,mg/dL,7.0,20.0,16.07,16.07,mg/dL,7.0,20.0,NORMAL,Y,BASELINE,2,2024-12-12,1
STUDY001,LB,STUDY001-SUBJ0001,17,L00017,CREAT,Creatinine,CHEMISTRY,0.92,mg/dL,0.6,1.2,0.92,0.92,mg/dL,0.6,1.2,NORMAL,Y,BASELINE,2,2024-12-12,1
STUDY001,LB,STUDY001-SUBJ0001,18,L00018,BILI,Total Bilirubin,CHEMISTRY,0.29,mg/dL,0.1,1.2,0.29,0.29,mg/dL,0.1,1.2,NORMAL,Y,BASELINE,2,2024-12-12,1
STUDY001,LB,STUDY001-SUBJ0001,19,L00019,ALP,Alkaline Phosphatase,CHEMISTRY,76.59,U/L,44.0,147.0,76.59,76.59,U/L,44.0,147.0,NORMAL,Y,BASELINE,2,2024-12-12,1
STUDY001,LB,STUDY001-SUBJ0001,20,L00020,ALT,Alanine Aminotransferase,CHEMISTRY,42.37,U/L,7.0,56.0,42.37,42.37,U/L,7.0,56.0,NORMAL,Y,BASELINE,2,2024-12-12,1
STUDY001,LB,STUDY001-SUBJ0001,21,L00021,HGB,Hemoglobin,HEMATOLOGY,14.77,g/dL,13.5,17.5,14.77,14.77,g/dL,13.5,17.5,NORMAL,,WEEK 1,3,2024-12-18,7
STUDY001,LB,STUDY001-SUBJ0001,22,L00022,HCT,Hematocrit,HEMATOLOGY,43.14,%,41.0,51.0,43.14,43.14,%,41.0,51.0,NORMAL,,WEEK 1,3,2024-12-18,7
STUDY001,LB,STUDY001-SUBJ0001,23,L00023,WBC,White Blood Cell Count,HEMATOLOGY,7.83,10^9/L,4.5,11.0,7.83,7.83,10^9/L,4.5,11.0,NORMAL,,WEEK 1,3,2024-12-18,7
STUDY001,LB,STUDY001-SUBJ0001,24,L00024,PLT,Platelet Count,HEMATOLOGY,246.07,10^9/L,150.0,450.0,246.07,246.07,10^9/L,150.0,450.0,NORMAL,,WEEK 1,3,2024-12-18,7
STUDY001,LB,STUDY001-SUBJ0001,25,L00025,GLUC,Glucose,CHEMISTRY,82.02,mg/dL,70.0,100.0,82.02,82.02,mg/dL,70.0,100.0,NORMAL,,WEEK 1,3,2024-12-18,7
STUDY001,LB,STUDY001-SUBJ0001,26,L00026,BUN,Blood Urea Nitrogen,CHEMISTRY,16.11,mg/dL,7.0,20.0,16.11,16.11,mg/dL,7.0,20.0,NORMAL,,WEEK 1,3,2024-12-18,7
STUDY001,LB,STUDY001-SUBJ0001,27,L00027,CREAT,Creatinine,CHEMISTRY,0.91,mg/dL,0.6,1.2,0.91,0.91,mg/dL,0.6,1.2,NORMAL,,WEEK 1,3,2024-12-18,7
STUDY001,LB,STUDY001-SUBJ0001,28,L00028,BILI,Total Bilirubin,CHEMISTRY,0.28,mg/dL,0.1,1.2,0.28,0.28,mg/dL,0.1,1.2,NORMAL,,WEEK 1,3,2024-12-18,7
STUDY001,LB,STUDY001-SUBJ0001,29,L00029,ALP,Alkaline Phosphatase,CHEMISTRY,83.1,U/L,44.0,147.0,83.1,83.1,U/L,44.0,147.0,NORMAL,,WEEK 1,3,2024-12-18,7
STUDY001,LB,STUDY001-SUBJ0001,30,L00030,ALT,Alanine Aminotransferase,CHEMISTRY,41.61,U/L,7.0,56.0,41.61,41.61,U/L,7.0,56.0,NORMAL,,WEEK 1,3,2024-12-18,7
STUDY001,LB,STUDY001-SUBJ0001,31,L00031,HGB,Hemoglobin,HEMATOLOGY,15.09,g/dL,13.5,17.5,15.09,15.09,g/dL,13.5,17.5,NORMAL,,WEEK 2,4,2024-12-25,14
STUDY001,LB,STUDY001-SUBJ0001,32,L00032,HCT,Hematocrit,HEMATOLOGY,43.24,%,41.0,51.0,43.24,43.24,%,41.0,51.0,NORMAL,,WEEK 2,4,2024-12-25,14
STUDY001,LB,STUDY001-SUBJ0001,33,L00033,WBC,White Blood Cell Count,HEMATOLOGY,7.76,10^9/L,4.5,11.0,7.76,7.76,10^9/L,4.5,11.0,NORMAL,,WEEK 2,4,2024-12-25,14
STUDY001,LB,STUDY001-SUBJ0001,34,L00034,PLT,Platelet Count,HEMATOLOGY,258.08,10^9/L,150.0,450.0,258.08,258.08,10^9/L,150.0,450.0,NORMAL,,WEEK 2,4,2024-12-25,14
STUDY001,LB,STUDY001-SUBJ0001,35,L00035,GLUC,Glucose,CHEMISTRY,83.91,mg/dL,70.0,100.0,83.91,83.91,mg/dL,70.0,100.0,NORMAL,,WEEK 2,4,2024-12-25,14
STUDY001,LB,STUDY001-SUBJ0001,36,L00036,BUN,Blood Urea Nitrogen,CHEMISTRY,16.11,mg/dL,7.0,20.0,16.11,16.11,mg/dL,7.0,20.0,NORMAL,,WEEK 2,4,2024-12-25,14
STUDY001,LB,STUDY001-SUBJ0001,37,L00037,CREAT,Creatinine,CHEMISTRY,0.93,mg/dL,0.6,1.2,0.93,0.93,mg/dL,0.6,1.2,NORMAL,,WEEK 2,4,2024-12-25,14
STUDY001,LB,STUDY001-SUBJ0001,38,L00038,BILI,Total Bilirubin,CHEMISTRY,0.26,mg/dL,0.1,1.2,0.26,0.26,mg/dL,0.1,1.2,NORMAL,,WEEK 2,4,2024-12-25,14
STUDY001,LB,STUDY001-SUBJ0001,39,L00039,ALP,Alkaline Phosphatase,CHEMISTRY,81.91,U/L,44.0,147.0,81.91,81.91,U/L,44.0,147.0,NORMAL,,WEEK 2,4,2024-12-25,14
STUDY001,LB,STUDY001-SUBJ0001,40,L00040,ALT,Alanine Aminotransferase,CHEMISTRY,42.94,U/L,7.0,56.0,42.94,42.94,U/L,7.0,56.0,NORMAL,,WEEK 2,4,2024-12-25,14
STUDY001,LB,STUDY001-SUBJ0001,41,L00041,HGB,Hemoglobin,HEMATOLOGY,14.87,g/dL,13.5,17.5,14.87,14.87,g/dL,13.5,17.5,NORMAL,,WEEK 4,5,2025-01-08,28
STUDY001,LB,STUDY001-SUBJ0001,42,L00042,HCT,Hematocrit,HEMATOLOGY,42.94,%,41.0,51.0,42.94,42.94,%,41.0,51.0,NORMAL,,WEEK 4,5,2025-01-08,28
STUDY001,LB,STUDY001-SUBJ0001,43,L00043,WBC,White Blood Cell Count,HEMATOLOGY,7.77,10^9/L,4.5,11.0,7.77,7.77,10^9/L,4.5,11.0,NORMAL,,WEEK 4,5,2025-01-08,28
STUDY001,LB,STUDY001-SUBJ0001,44,L00044,PLT,Platelet Count,HEMATOLOGY,257.07,10^9/L,150.0,450.0,257.07,257.07,10^9/L,150.0,450.0,NORMAL,,WEEK 4,5,2025-01-08,28
STUDY001,LB,STUDY001-SUBJ0001,45,L00045,GLUC,Glucose,CHEMISTRY,82.05,mg/dL,70.0,100.0,82.05,82.05,mg/dL,70.0,100.0,NORMAL,,WEEK 4,5,2025-01-08,28
STUDY001,LB,STUDY001-SUBJ0001,46,L00046,BUN,Blood Urea Nitrogen,CHEMISTRY,16.73,mg/dL,7.0,20.0,16.73,16.73,mg/dL,7.0,20.0,NORMAL,,WEEK 4,5,2025-01-08,28
STUDY001,LB,STUDY001-SUBJ0001,47,L00047,CREAT,Creatinine,CHEMISTRY,0.91,mg/dL,0.6,1.2,0.91,0.91,mg/dL,0.6,1.2,NORMAL,,WEEK 4,5,2025-01-08,28
STUDY001,LB,STUDY001-SUBJ0001,48,L00048,BILI,Total Bilirubin,CHEMISTRY,0.25,mg/dL,0.1,1.2,0.25,0.25,mg/dL,0.1,1.2,NORMAL,,WEEK 4,5,2025-01-08,28
STUDY001,LB,STUDY001-SUBJ0001,49,L00049,ALP,Alkaline Phosphatase,CHEMISTRY,83.56,U/L,44.0,147.0,83.56,83.56,U/L,44.0,147.0,NORMAL,,WEEK 4,5,2025-01-08,28
STUDY001,LB,STUDY001-SUBJ0001,50,L00050,ALT,Alanine Aminotransferase,CHEMISTRY,42.12,U/L,7.0,56.0,42.12,42.12,U/L,7.0,56.0,NORMAL,,WEEK 4,5,2025-01-08,28
STUDY001,LB,STUDY001-SUBJ0001,51,L00051,HGB,Hemoglobin,HEMATOLOGY,14.95,g/dL,13.5,17.5,14.95,14.95,g/dL,13.5,17.5,NORMAL,,WEEK 8,6,2025-02-05,56
STUDY001,LB,STUDY001-SUBJ0001,52,L00052,HCT,Hematocrit,HEMATOLOGY,43.33,%,41.0,51.0,43.33,43.33,%,41.0,51.0,NORMAL,,WEEK 8,6,2025-02-05,56
STUDY001,LB,STUDY001-SUBJ0001,53,L00053,WBC,White Blood Cell Count,HEMATOLOGY,7.81,10^9/L,4.5,11.0,7.81,7.81,10^9/L,4.5,11.0,NORMAL,,WEEK 8,6,2025-02-05,56
STUDY001,LB,STUDY001-SUBJ0001,54,L00054,PLT,Platelet Count,HEMATOLOGY,251.6,10^9/L,150.0,450.0,251.6,251.6,10^9/L,150.0,450.0,NORMAL,,WEEK 8,6,2025-02-05,56
STUDY001,LB,STUDY001-SUBJ0001,55,L00055,GLUC,Glucose,CHEMISTRY,81.57,mg/dL,70.0,100.0,81.57,81.57,mg/dL,70.0,100.0,NORMAL,,WEEK 8,6,2025-02-05,56
STUDY001,LB,STUDY001-SUBJ0001,56,L00056,BUN,Blood Urea Nitrogen,CHEMISTRY,16.29,mg/dL,7.0,20.0,16.29,16.29,mg/dL,7.0,20.0,NORMAL,,WEEK 8,6,2025-02-05,56
STUDY001,LB,STUDY001-SUBJ0001,57,L00057,CREAT,Creatinine,CHEMISTRY,0.93,mg/dL,0.6,1.2,0.93,0.93,mg/dL,0.6,1.2,NORMAL,,WEEK 8,6,2025-02-05,56
STUDY001,LB,STUDY001-SUBJ0001,58,L00058,BILI,Total Bilirubin,CHEMISTRY,0.28,mg/dL,0.1,1.2,0.28,0.28,mg/dL,0.1,1.2,NORMAL,,WEEK 8,6,2025-02-05,56
STUDY001,LB,STUDY001-SUBJ0001,59,L00059,ALP,Alkaline Phosphatase,CHEMISTRY,80.41,U/L,44.0,147.0,80.41,80.41,U/L,44.0,147.0,NORMAL,,WEEK 8,6,2025-02-05,56
STUDY001,LB,STUDY001-SUBJ0001,60,L00060,ALT,Alanine Aminotransferase,CHEMISTRY,43.32,U/L,7.0,56.0,43.32,43.32,U/L,7.0,56.0,NORMAL,,WEEK 8,6,2025-02-05,56
STUDY001,LB,STUDY001-SUBJ0001,61,L00061,HGB,Hemoglobin,HEMATOLOGY,15.11,g/dL,13.5,17.5,15.11,15.11,g/dL,13.5,17.5,NORMAL,,WEEK 12,7,2025-03-05,84
STUDY001,LB,STUDY001-SUBJ0001,62,L00062,HCT,Hematocrit,HEMATOLOGY,43.12,%,41.0,51.0,43.12,43.12,%,41.0,51.0,NORMAL,,WEEK 12,7,2025-03-05,84
STUDY001,LB,STUDY001-SUBJ0001,63,L00063,WBC,White Blood Cell Count,HEMATOLOGY,7.86,10^9/L,4.5,11.0,7.86,7.86,10^9/L,4.5,11.0,NORMAL,,WEEK 12,7,2025-03-05,84
STUDY001,LB,STUDY001-SUBJ0001,64,L00064,PLT,Platelet Count,HEMATOLOGY,251.63,10^9/L,150.0,450.0,251.63,251.63,10^9/L,150.0,450.0,NORMAL,,WEEK 12,7,2025-03-05,84
STUDY001,LB,STUDY001-SUBJ0001,65,L00065,GLUC,Glucose,CHEMISTRY,82.85,mg/dL,70.0,100.0,82.85,82.85,mg/dL,70.0,100.0,NORMAL,,WEEK 12,7,2025-03-05,84
STUDY001,LB,STUDY001-SUBJ0001,66,L00066,BUN,Blood Urea Nitrogen,CHEMISTRY,15.78,mg/dL,7.0,20.0,15.78,15.78,mg/dL,7.0,20.0,NORMAL,,WEEK 12,7,2025-03-05,84
STUDY001,LB,STUDY001-SUBJ0001,67,L00067,CREAT,Creatinine,CHEMISTRY,0.94,mg/dL,0.6,1.2,0.94,0.94,mg/dL,0.6,1.2,NORMAL,,WEEK 12,7,2025-03-05,84
STUDY001,LB,STUDY001-SUBJ0001,68,L00068,BILI,Total Bilirubin,CHEMISTRY,0.28,mg/dL,0.1,1.2,0.28,0.28,mg/dL,0.1,1.2,NORMAL,,WEEK 12,7,2025-03-05,84
STUDY001,LB,STUDY001-SUBJ0001,69,L00069,ALP,Alkaline Phosphatase,CHEMISTRY,81.68,U/L,44.0,147.0,81.68,81.68,U/L,44.0,147.0,NORMAL,,WEEK 12,7,2025-03-05,84
STUDY001,LB,STUDY001-SUBJ0001,70,L00070,ALT,Alanine Aminotransferase,CHEMISTRY,43.64,U/L,7.0,56.0,43.64,43.64,U/L,7.0,56.0,NORMAL,,WEEK 12,7,2025-03-05,84
STUDY001,LB,STUDY001-SUBJ0001,71,L00071,HGB,Hemoglobin,HEMATOLOGY,14.89,g/dL,13.5,17.5,14.89,14.89,g/dL,13.5,17.5,NORMAL,,WEEK 16,8,2025-04-02,112
STUDY001,LB,STUDY001-SUBJ0001,72,L00072,HCT,Hematocrit,HEMATOLOGY,42.83,%,41.0,51.0,42.83,42.83,%,41.0,51.0,NORMAL,,WEEK 16,8,2025-04-02,112
STUDY001,LB,STUDY001-SUBJ0001,73,L00073,WBC,White Blood Cell Count,HEMATOLOGY,7.76,10^9/L,4.5,11.0,7.76,7.76,10^9/L,4.5,11.0,NORMAL,,WEEK 16,8,2025-04-02,112
STUDY001,LB,STUDY001-SUBJ0001,74,L00074,PLT,Platelet Count,HEMATOLOGY,247.95,10^9/L,150.0,450.0,247.95,247.95,10^9/L,150.0,450.0,NORMAL,,WEEK 16,8,2025-04-02,112
STUDY001,LB,STUDY001-SUBJ0001,75,L00075,GLUC,Glucose,CHEMISTRY,83.71,mg/dL,70.0,100.0,83.71,83.71,mg/dL,70.0,100.0,NORMAL,,WEEK 16,8,2025-04-02,112
STUDY001,LB,STUDY001-SUBJ0001,76,L00076,BUN,Blood Urea Nitrogen,CHEMISTRY,16.33,mg/dL,7.0,20.0,16.33,16.33,mg/dL,7.0,20.0,NORMAL,,WEEK 16,8,2025-04-02,112
STUDY001,LB,STUDY001-SUBJ0001,77,L00077,CREAT,Creatinine,CHEMISTRY,0.93,mg/dL,0.6,1.2,0.93,0.93,mg/dL,0.6,1.2,NORMAL,,WEEK 16,8,2025-04-02,112
STUDY001,LB,STUDY001-SUBJ0001,78,L00078,BILI,Total Bilirubin,CHEMISTRY,0.28,mg/dL,0.1,1.2,0.28,0.28,mg/dL,0.1,1.2,NORMAL,,WEEK 16,8,2025-04-02,112
STUDY001,LB,STUDY001-SUBJ0001,79,L00079,ALP,Alkaline Phosphatase,CHEMISTRY,83.05,U/L,44.0,147.0,83.05,83.05,U/L,44.0,147.0,NORMAL,,WEEK 16,8,2025-04-02,112
STUDY001,LB,STUDY001-SUBJ0001,80,L00080,ALT,Alanine Aminotransferase,CHEMISTRY,43.12,U/L,7.0,56.0,43.12,43.12,U/L,7.0,56.0,NORMAL,,WEEK 16,8,2025-04-02,112
STUDY001,LB,STUDY001-SUBJ0001,81,L00081,HGB,Hemoglobin,HEMATOLOGY,15.12,g/dL,13.5,17.5,15.12,15.12,g/dL,13.5,17.5,NORMAL,,END OF TREATMENT,9,2025-04-30,140
STUDY001,LB,STUDY001-SUBJ0001,82,L00082,HCT,Hematocrit,HEMATOLOGY,43.18,%,41.0,51.0,43.18,43.18,%,41.0,51.0,NORMAL,,END OF TREATMENT,9,2025-04-30,140
STUDY001,LB,STUDY001-SUBJ0001,83,L00083,WBC,White Blood Cell Count,HEMATOLOGY,7.95,10^9/L,4.5,11.0,7.95,7.95,10^9/L,4.5,11.0,NORMAL,,END OF TREATMENT,9,2025-04-30,140
STUDY001,LB,STUDY001-SUBJ0001,84,L00084,PLT,Platelet Count,HEMATOLOGY,259.13,10^9/L,150.0,450.0,259.13,259.13,10^9/L,150.0,450.0,NORMAL,,END OF TREATMENT,9,2025-04-30,140
STUDY001,LB,STUDY001-SUBJ0001,85,L00085,GLUC,Glucose,CHEMISTRY,84.69,mg/dL,70.0,100.0,84.69,84.69,mg/dL,70.0,100.0,NORMAL,,END OF TREATMENT,9,2025-04-30,140
STUDY001,LB,STUDY001-SUBJ0001,86,L00086,BUN,Blood Urea Nitrogen,CHEMISTRY,16.11,mg/dL,7.0,20.0,16.11,16.11,mg/dL,7.0,20.0,NORMAL,,END OF TREATMENT,9,2025-04-30,140
STUDY001,LB,STUDY001-SUBJ0001,87,L00087,CREAT,Creatinine,CHEMISTRY,0.93,mg/dL,0.6,1.2,0.93,0.93,mg/dL,0.6,1.2,NORMAL,,END OF TREATMENT,9,2025-04-30,140
STUDY001,LB,STUDY001-SUBJ0001,88,L00088,BILI,Total Bilirubin,CHEMISTRY,0.27,mg/dL,0.1,1.2,0.27,0.27,mg/dL,0.1,1.2,NORMAL,,END OF TREATMENT,9,2025-04-30,140
STUDY001,LB,STUDY001-SUBJ0001,89,L00089,ALP,Alkaline Phosphatase,CHEMISTRY,81.43,U/L,44.0,147.0,81.43,81.43,U/L,44.0,147.0,NORMAL,,END OF TREATMENT,9,2025-04-30,140
STUDY001,LB,STUDY001-SUBJ0001,90,L00090,ALT,Alanine Aminotransferase,CHEMISTRY,41.19,U/L,7.0,56.0,41.19,41.19,U/L,7.0,56.0,NORMAL,,END OF TREATMENT,9,2025-04-30,140
STUDY001,LB,STUDY001-SUBJ0002,1,L00001,HGB,Hemoglobin,HEMATOLOGY,16.22,g/dL,13.5,17.5,16.22,16.22,g/dL,13.5,17.5,NORMAL,,SCREENING,1,2024-11-20,-14
STUDY001,LB,STUDY001-SUBJ0002,2,L00002,HCT,Hematocrit,HEMATOLOGY,42.59,%,41.0,51.0,42.59,42.59,%,41.0,51.0,NORMAL,,SCREENING,1,2024-11-20,-14
STUDY001,LB,STUDY001-SUBJ0002,3,L00003,WBC,White Blood Cell Count,HEMATOLOGY,6.71,10^9/L,4.5,11.0,6.71,6.71,10^9/L,4.5,11.0,NORMAL,,SCREENING,1,2024-11-20,-14
STUDY001,LB,STUDY001-SUBJ0002,4,L00004,PLT,Platelet Count,HEMATOLOGY,274.81,10^9/L,150.0,450.0,274.81,274.81,10^9/L,150.0,450.0,NORMAL,,SCREENING,1,2024-11-20,-14
STUDY001,LB,STUDY001-SUBJ0002,5,L00005,GLUC,Glucose,CHEMISTRY,96.05,mg/dL,70.0,100.0,96.05,96.05,mg/dL,70.0,100.0,NORMAL,,SCREENING,1,2024-11-20,-14
STUDY001,LB,STUDY001-SUBJ0002,6,L00006,BUN,Blood Urea Nitrogen,CHEMISTRY,8.62,mg/dL,7.0,20.0,8.62,8.62,mg/dL,7.0,20.0,NORMAL,,SCREENING,1,2024-11-20,-14
STUDY001,LB,STUDY001-SUBJ0002,7,L00007,CREAT,Creatinine,CHEMISTRY,1.19,mg/dL,0.6,1.2,1.19,1.19,mg/dL,0.6,1.2,NORMAL,,SCREENING,1,2024-11-20,-14
STUDY001,LB,STUDY001-SUBJ0002,8,L00008,BILI,Total Bilirubin,CHEMISTRY,0.49,mg/dL,0.1,1.2,0.49,0.49,mg/dL,0.1,1.2,NORMAL,,SCREENING,1,2024-11-20,-14
STUDY001,LB,STUDY001-SUBJ0002,9,L00009,ALP,Alkaline Phosphatase,CHEMISTRY,104.17,U/L,44.0,147.0,104.17,104.17,U/L,44.0,147.0,NORMAL,,SCREENING,1,2024-11-20,-14
STUDY001,LB,STUDY001-SUBJ0002,10,L00010,ALT,Alanine Aminotransferase,CHEMISTRY,30.66,U/L,7.0,56.0,30.66,30.66,U/L,7.0,56.0,NORMAL,,SCREENING,1,2024-11-20,-14
STUDY001,LB,STUDY001-SUBJ0002,11,L00011,HGB,Hemoglobin,HEMATOLOGY,16.23,g/dL,13.5,17.5,16.23,16.23,g/dL,13.5,17.5,NORMAL,Y,BASELINE,2,2024-12-04,1
STUDY001,LB,STUDY001-SUBJ0002,12,L00012,HCT,Hematocrit,HEMATOLOGY,42.74,%,41.0,51.0,42.74,42.74,%,41.0,51.0,NORMAL,Y,BASELINE,2,2024-12-04,1
STUDY001,LB,STUDY001-SUBJ0002,13,L00013,WBC,White Blood Cell Count,HEMATOLOGY,6.79,10^9/L,4.5,11.0,6.79,6.79,10^9/L,4.5,11.0,NORMAL,Y,BASELINE,2,2024-12-04,1
STUDY001,LB,STUDY001-SUBJ0002,14,L00014,PLT,Platelet Count,HEMATOLOGY,268.43,10^9/L,150.0,450.0,268.43,268.43,10^9/L,150.0,450.0,NORMAL,Y,BASELINE,2,2024-12-04,1
STUDY001,LB,STUDY001-SUBJ0002,15,L00015,GLUC,Glucose,CHEMISTRY,96.1,mg/dL,70.0,100.0,96.1,96.1,mg/dL,70.0,100.0,NORMAL,Y,BASELINE,2,2024-12-04,1
STUDY001,LB,STUDY001-SUBJ0002,16,L00016,BUN,Blood Urea Nitrogen,CHEMISTRY,8.6,mg/dL,7.0,20.0,8.6,8.6,mg/dL,7.0,20.0,NORMAL,Y,BASELINE,2,2024-12-04,1
STUDY001,LB,STUDY001-SUBJ0002,17,L00017,CREAT,Creatinine,CHEMISTRY,1.21,mg/dL,0.6,1.2,1.21,1.21,mg/dL,0.6,1.2,HIGH,Y,BASELINE,2,2024-12-04,1
STUDY001,LB,STUDY001-SUBJ0002,18,L00018,BILI,Total Bilirubin,CHEMISTRY,0.47,mg/dL,0.1,1.2,0.47,0.47,mg/dL,0.1,1.2,NORMAL,Y,BASELINE,2,2024-12-04,1
STUDY001,LB,STUDY001-SUBJ0002,19,L00019,ALP,Alkaline Phosphatase,CHEMISTRY,103.61,U/L,44.0,147.0,103.61,103.61,U/L,44.0,147.0,NORMAL,Y,BASELINE,2,2024-12-04,1
STUDY001,LB,STUDY001-SUBJ0002,20,L00020,ALT,Alanine Aminotransferase,CHEMISTRY,31.54,U/L,7.0,56.0,31.54,31.54,U/L,7.0,56.0,NORMAL,Y,BASELINE,2,2024-12-04,1
STUDY001,LB,STUDY001-SUBJ0002,21,L00021,HGB,Hemoglobin,HEMATOLOGY,15.99,g/dL,13.5,17.5,15.99,15.99,g/dL,13.5,17.5,NORMAL,,WEEK 1,3,2024-12-10,7
STUDY001,LB,STUDY001-SUBJ0002,22,L00022,HCT,Hematocrit,HEMATOLOGY,42.77,%,41.0,51.0,42.77,42.77,%,41.0,51.0,NORMAL,,WEEK 1,3,2024-12-10,7
STUDY001,LB,STUDY001-SUBJ0002,23,L00023,WBC,White Blood Cell Count,HEMATOLOGY,6.67,10^9/L,4.5,11.0,6.67,6.67,10^9/L,4.5,11.0,NORMAL,,WEEK 1,3,2024-12-10,7
STUDY001,LB,STUDY001-SUBJ0002,24,L00024,PLT,Platelet Count,HEMATOLOGY,279.4,10^9/L,150.0,450.0,279.4,279.4,10^9/L,150.0,450.0,NORMAL,,WEEK 1,3,2024-12-10,7
STUDY001,LB,STUDY001-SUBJ0002,25,L00025,GLUC,Glucose,CHEMISTRY,98.38,mg/dL,70.0,100.0,98.38,98.38,mg/dL,70.0,100.0,NORMAL,,WEEK 1,3,2024-12-10,7
STUDY001,LB,STUDY001-SUBJ0002,26,L00026,BUN,Blood Urea Nitrogen,CHEMISTRY,8.43,mg/dL,7.0,20.0,8.43,8.43,mg/dL,7.0,20.0,NORMAL,,WEEK 1,3,2024-12-10,7
STUDY001,LB,STUDY001-SUBJ0002,27,L00027,CREAT,Creatinine,CHEMISTRY,1.22,mg/dL,0.6,1.2,1.22,1.22,mg/dL,0.6,1.2,HIGH,,WEEK 1,3,2024-12-10,7
STUDY001,LB,STUDY001-SUBJ0002,28,L00028,BILI,Total Bilirubin,CHEMISTRY,0.49,mg/dL,0.1,1.2,0.49,0.49,mg/dL,0.1,1.2,NORMAL,,WEEK 1,3,2024-12-10,7
STUDY001,LB,STUDY001-SUBJ0002,29,L00029,ALP,Alkaline Phosphatase,CHEMISTRY,102.69,U/L,44.0,147.0,102.69,102.69,U/L,44.0,147.0,NORMAL,,WEEK 1,3,2024-12-10,7
STUDY001,LB,STUDY001-SUBJ0002,30,L00030,ALT,Alanine Aminotransferase,CHEMISTRY,30.51,U/L,7.0,56.0,30.51,30.51,U/L,7.0,56.0,NORMAL,,WEEK 1,3,2024-12-10,7
STUDY001,LB,STUDY001-SUBJ0002,31,L00031,HGB,Hemoglobin,HEMATOLOGY,16.13,g/dL,13.5,17.5,16.13,16.13,g/dL,13.5,17.5,NORMAL,,WEEK 2,4,2024-12-17,14
STUDY001,LB,STUDY001-SUBJ0002,32,L00032,HCT,Hematocrit,HEMATOLOGY,42.98,%,41.0,51.0,42.98,42.98,%,41.0,51.0,NORMAL,,WEEK 2,4,2024-12-17,14
STUDY001,LB,STUDY001-SUBJ0002,33,L00033,WBC,White Blood Cell Count,HEMATOLOGY,7.02,10^9/L,4.5,11.0,7.02,7.02,10^9/L,4.5,11.0,NORMAL,,WEEK 2,4,2024-12-17,14
STUDY001,LB,STUDY001-SUBJ0002,34,L00034,PLT,Platelet Count,HEMATOLOGY,270.41,10^9/L,150.0,450.0,270.41,270.41,10^9/L,150.0,450.0,NORMAL,,WEEK 2,4,2024-12-17,14
STUDY001,LB,STUDY001-SUBJ0002,35,L00035,GLUC,Glucose,CHEMISTRY,97.4,mg/dL,70.0,100.0,97.4,97.4,mg/dL,70.0,100.0,NORMAL,,WEEK 2,4,2024-12-17,14
STUDY001,LB,STUDY001-SUBJ0002,36,L00036,BUN,Blood Urea Nitrogen,CHEMISTRY,8.8,mg/dL,7.0,20.0,8.8,8.8,mg/dL,7.0,20.0,NORMAL,,WEEK 2,4,2024-12-17,14
STUDY001,LB,STUDY001-SUBJ0002,37,L00037,CREAT,Creatinine,CHEMISTRY,1.2,mg/dL,0.6,1.2,1.2,1.2,mg/dL,0.6,1.2,NORMAL,,WEEK 2,4,2024-12-17,14
STUDY001,LB,STUDY001-SUBJ0002,38,L00038,BILI,Total Bilirubin,CHEMISTRY,0.52,mg/dL,0.1,1.2,0.52,0.52,mg/dL,0.1,1.2,NORMAL,,WEEK 2,4,2024-12-17,14
STUDY001,LB,STUDY001-SUBJ0002,39,L00039,ALP,Alkaline Phosphatase,CHEMISTRY,104.07,U/L,44.0,147.0,104.07,104.07,U/L,44.0,147.0,NORMAL,,WEEK 2,4,2024-12-17,14
STUDY001,LB,STUDY001-SUBJ0002,40,L00040,ALT,Alanine Aminotransferase,CHEMISTRY,30.69,U/L,7.0,56.0,30.69,30.69,U/L,7.0,56.0,NORMAL,,WEEK 2,4,2024-12-17,14
STUDY001,LB,STUDY001-SUBJ0002,41,L00041,HGB,Hemoglobin,HEMATOLOGY,16.34,g/dL,13.5,17.5,16.34,16.34,g/dL,13.5,17.5,NORMAL,,WEEK 4,5,2024-12-31,28
STUDY001,LB,STUDY001-SUBJ0002,42,L00042,HCT,Hematocrit,HEMATOLOGY,42.8,%,41.0,51.0,42.8,42.8,%,41.0,51.0,NORMAL,,WEEK 4,5,2024-12-31,28
STUDY001,LB,STUDY001-SUBJ0002,43,L00043,WBC,White Blood Cell Count,HEMATOLOGY,6.75,10^9/L,4.5,11.0,6.75,6.75,10^9/L,4.5,11.0,NORMAL,,WEEK 4,5,2024-12-31,28
STUDY001,LB,STUDY001-SUBJ0002,44,L00044,PLT,Platelet Count,HEMATOLOGY,277.55,10^9/L,150.0,450.0,277.55,277.55,10^9/L,150.0,450.0,NORMAL,,WEEK 4,5,2024-12-31,28
STUDY001,LB,STUDY001-SUBJ0002,45,L00045,GLUC,Glucose,CHEMISTRY,97.91,mg/dL,70.0,100.0,97.91,97.91,mg/dL,70.0,100.0,NORMAL,,WEEK 4,5,2024-12-31,28
STUDY001,LB,STUDY001-SUBJ0002,46,L00046,BUN,Blood Urea Nitrogen,CHEMISTRY,8.93,mg/dL,7.0,20.0,8.93,8.93,mg/dL,7.0,20.0,NORMAL,,WEEK 4,5,2024-12-31,28
STUDY001,LB,STUDY001-SUBJ0002,47,L00047,CREAT,Creatinine,CHEMISTRY,1.21,mg/dL,0.6,1.2,1.21,1.21,mg/dL,0.6,1.2,HIGH,,WEEK 4,5,2024-12-31,28
STUDY001,LB,STUDY001-SUBJ0002,48,L00048,BILI,Total Bilirubin,CHEMISTRY,0.49,mg/dL,0.1,1.2,0.49,0.49,mg/dL,0.1,1.2,NORMAL,,WEEK 4,5,2024-12-31,28
STUDY001,LB,STUDY001-SUBJ0002,49,L00049,ALP,Alkaline Phosphatase,CHEMISTRY,99.71,U/L,44.0,147.0,99.71,99.71,U/L,44.0,147.0,NORMAL,,WEEK 4,5,2024-12-31,28
STUDY001,LB,STUDY001-SUBJ0002,50,L00050,ALT,Alanine Aminotransferase,CHEMISTRY,31.07,U/L,7.0,56.0,31.07,31.07,U/L,7.0,56.0,NORMAL,,WEEK 4,5,2024-12-31,28
STUDY001,LB,STUDY001-SUBJ0002,51,L00051,HGB,Hemoglobin,HEMATOLOGY,16.08,g/dL,13.5,17.5,16.08,16.08,g/dL,13.5,17.5,NORMAL,,WEEK 8,6,2025-01-28,56
STUDY001,LB,STUDY001-SUBJ0002,52,L00052,HCT,Hematocrit,HEMATOLOGY,42.89,%,41.0,51.0,42.89,42.89,%,41.0,51.0,NORMAL,,WEEK 8,6,2025-01-28,56
STUDY001,LB,STUDY001-SUBJ0002,53,L00053,WBC,White Blood Cell Count,HEMATOLOGY,6.91,10^9/L,4.5,11.0,6.91,6.91,10^9/L,4.5,11.0,NORMAL,,WEEK 8,6,2025-01-28,56
STUDY001,LB,STUDY001-SUBJ0002,54,L00054,PLT,Platelet Count,HEMATOLOGY,275.58,10^9/L,150.0,450.0,275.58,275.58,10^9/L,150.0,450.0,NORMAL,,WEEK 8,6,2025-01-28,56
STUDY001,LB,STUDY001-SUBJ0002,55,L00055,GLUC,Glucose,CHEMISTRY,96.36,mg/dL,70.0,100.0,96.36,96.36,mg/dL,70.0,100.0,NORMAL,,WEEK 8,6,2025-01-28,56
STUDY001,LB,STUDY001-SUBJ0002,56,L00056,BUN,Blood Urea Nitrogen,CHEMISTRY,9.24,mg/dL,7.0,20.0,9.24,9.24,mg/dL,7.0,20.0,NORMAL,,WEEK 8,6,2025-01-28,56
STUDY001,LB,STUDY001-SUBJ0002,57,L00057,CREAT,Creatinine,CHEMISTRY,1.22,mg/dL,0.6,1.2,1.22,1.22,mg/dL,0.6,1.2,HIGH,,WEEK 8,6,2025-01-28,56
STUDY001,LB,STUDY001-SUBJ0002,58,L00058,BILI,Total Bilirubin,CHEMISTRY,0.46,mg/dL,0.1,1.2,0.46,0.46,mg/dL,0.1,1.2,NORMAL,,WEEK 8,6,2025-01-28,56
STUDY001,LB,STUDY001-SUBJ0002,59,L00059,ALP,Alkaline Phosphatase,CHEMISTRY,104.46,U/L,44.0,147.0,104.46,104.46,U/L,44.0,147.0,NORMAL,,WEEK 8,6,2025-01-28,56
STUDY001,LB,STUDY001-SUBJ0002,60,L00060,ALT,Alanine Aminotransferase,CHEMISTRY,31.94,U/L,7.0,56.0,31.94,31.94,U/L,7.0,56.0,NORMAL,,WEEK 8,6,2025-01-28,56
STUDY001,LB,STUDY001-SUBJ0002,61,L00061,HGB,Hemoglobin,HEMATOLOGY,16.18,g/dL,13.5,17.5,16.18,16.18,g/dL,13.5,17.5,NORMAL,,WEEK 12,7,2025-02-25,84
STUDY001,LB,STUDY001-SUBJ0002,62,L00062,HCT,Hematocrit,HEMATOLOGY,43.14,%,41.0,51.0,43.14,43.14,%,41.0,51.0,NORMAL,,WEEK 12,7,2025-02-25,84
STUDY001,LB,STUDY001-SUBJ0002,63,L00063,WBC,White Blood Cell Count,HEMATOLOGY,7.05,10^9/L,4.5,11.0,7.05,7.05,10^9/L,4.5,11.0,NORMAL,,WEEK 12,7,2025-02-25,84
STUDY001,LB,STUDY001-SUBJ0002,64,L00064,PLT,Platelet Count,HEMATOLOGY,276.16,10^9/L,150.0,450.0,276.16,276.16,10^9/L,150.0,450.0,NORMAL,,WEEK 12,7,2025-02-25,84
STUDY001,LB,STUDY001-SUBJ0002,65,L00065,GLUC,Glucose,CHEMISTRY,97.31,mg/dL,70.0,100.0,97.31,97.31,mg/dL,70.0,100.0,NORMAL,,WEEK 12,7,2025-02-25,84
STUDY001,LB,STUDY001-SUBJ0002,66,L00066,BUN,Blood Urea Nitrogen,CHEMISTRY,9.24,mg/dL,7.0,20.0,9.24,9.24,mg/dL,7.0,20.0,NORMAL,,WEEK 12,7,2025-02-25,84
STUDY001,LB,STUDY001-SUBJ0002,67,L00067,CREAT,Creatinine,CHEMISTRY,1.19,mg/dL,0.6,1.2,1.19,1.19,mg/dL,0.6,1.2,NORMAL,,WEEK 12,7,2025-02-25,84
STUDY001,LB,STUDY001-SUBJ0002,68,L00068,BILI,Total Bilirubin,CHEMISTRY,0.49,mg/dL,0.1,1.2,0.49,0.49,mg/dL,0.1,1.2,NORMAL,,WEEK 12,7,2025-02-25,84
STUDY001,LB,STUDY001-SUBJ0002,69,L00069,ALP,Alkaline Phosphatase,CHEMISTRY,100.59,U/L,44.0,147.0,100.59,100.59,U/L,44.0,147.0,NORMAL,,WEEK 12,7,2025-02-25,84
STUDY001,LB,STUDY001-SUBJ0002,70,L00070,ALT,Alanine Aminotransferase,CHEMISTRY,29.71,U/L,7.0,56.0,29.71,29.71,U/L,7.0,56.0,NORMAL,,WEEK 12,7,2025-02-25,84
STUDY001,LB,STUDY001-SUBJ0002,71,L00071,HGB,Hemoglobin,HEMATOLOGY,16.05,g/dL,13.5,17.5,16.05,16.05,g/dL,13.5,17.5,NORMAL,,WEEK 16,8,2025-03-25,112
STUDY001,LB,STUDY001-SUBJ0002,72,L00072,HCT,Hematocrit,HEMATOLOGY,42.6,%,41.0,51.0,42.6,42.6,%,41.0,51.0,NORMAL,,WEEK 16,8,2025-03-25,112
STUDY001,LB,STUDY001-SUBJ0002,73,L00073,WBC,White Blood Cell Count,HEMATOLOGY,6.85,10^9/L,4.5,11.0,6.85,6.85,10^9/L,4.5,11.0,NORMAL,,WEEK 16,8,2025-03-25,112
STUDY001,LB,STUDY001-SUBJ0002,74,L00074,PLT,Platelet Count,HEMATOLOGY,274.63,10^9/L,150.0,450.0,274.63,274.63,10^9/L,150.0,450.0,NORMAL,,WEEK 16,8,2025-03-25,112
STUDY001,LB,STUDY001-SUBJ0002,75,L00075,GLUC,Glucose,CHEMISTRY,97.52,mg/dL,70.0,100.0,97.52,97.52,mg/dL,70.0,100.0,NORMAL,,WEEK 16,8,2025-03-25,112
STUDY001,LB,STUDY001-SUBJ0002,76,L00076,BUN,Blood Urea Nitrogen,CHEMISTRY,9.1,mg/dL,7.0,20.0,9.1,9.1,mg/dL,7.0,20.0,NORMAL,,WEEK 16,8,2025-03-25,112
STUDY001,LB,STUDY001-SUBJ0002,77,L00077,CREAT,Creatinine,CHEMISTRY,1.19,mg/dL,0.6,1.2,1.19,1.19,mg/dL,0.6,1.2,NORMAL,,WEEK 16,8,2025-03-25,112
STUDY001,LB,STUDY001-SUBJ0002,78,L00078,BILI,Total Bilirubin,CHEMISTRY,0.51,mg/dL,0.1,1.2,0.51,0.51,mg/dL,0.1,1.2,NORMAL,,WEEK 16,8,2025-03-25,112
STUDY001,LB,STUDY001-SUBJ0002,79,L00079,ALP,Alkaline Phosphatase,CHEMISTRY,101.38,U/L,44.0,147.0,101.38,101.38,U/L,44.0,147.0,NORMAL,,WEEK 16,8,2025-03-25,112
STUDY001,LB,STUDY001-SUBJ0002,80,L00080,ALT,Alanine Aminotransferase,CHEMISTRY,31.14,U/L,7.0,56.0,31.14,31.14,U/L,7.0,56.0,NORMAL,,WEEK 16,8,2025-03-25,112
STUDY001,LB,STUDY001-SUBJ0002,81,L00081,HGB,Hemoglobin,HEMATOLOGY,16.34,g/dL,13.5,17.5,16.34,16.34,g/dL,13.5,17.5,NORMAL,,END OF TREATMENT,9,2025-04-22,140
STUDY001,LB,STUDY001-SUBJ0002,82,L00082,HCT,Hematocrit,HEMATOLOGY,42.78,%,41.0,51.0,42.78,42.78,%,41.0,51.0,NORMAL,,END OF TREATMENT,9,2025-04-22,140
STUDY001,LB,STUDY001-SUBJ0002,83,L00083,WBC,White Blood Cell Count,HEMATOLOGY,7.0,10^9/L,4.5,11.0,7.0,7.0,10^9/L,4.5,11.0,NORMAL,,END OF TREATMENT,9,2025-04-22,140
STUDY001,LB,STUDY001-SUBJ0002,84,L00084,PLT,Platelet Count,HEMATOLOGY,282.44,10^9/L,150.0,450.0,282.44,282.44,10^9/L,150.0,450.0,NORMAL,,END OF TREATMENT,9,2025-04-22,140
STUDY001,LB,STUDY001-SUBJ0002,85,L00085,GLUC,Glucose,CHEMISTRY,97.05,mg/dL,70.0,100.0,97.05,97.05,mg/dL,70.0,100.0,NORMAL,,END OF TREATMENT,9,2025-04-22,140
STUDY001,LB,STUDY001-SUBJ0002,86,L00086,BUN,Blood Urea Nitrogen,CHEMISTRY,9.32,mg/dL,7.0,20.0,9.32,9.32,mg/dL,7.0,20.0,NORMAL,,END OF TREATMENT,9,2025-04-22,140
STUDY001,LB,STUDY001-SUBJ0002,87,L00087,CREAT,Creatinine,CHEMISTRY,1.22,mg/dL,0.6,1.2,1.22,1.22,mg/dL,0.6,1.2,HIGH,,END OF TREATMENT,9,2025-04-22,140
STUDY001,LB,STUDY001-SUBJ0002,88,L00088,BILI,Total Bilirubin,CHEMISTRY,0.48,mg/dL,0.1,1.2,0.48,0.48,mg/dL,0.1,1.2,NORMAL,,END OF TREATMENT,9,2025-04-22,140
STUDY001,LB,STUDY001-SUBJ0002,89,L00089,ALP,Alkaline Phosphatase,CHEMISTRY,104.19,U/L,44.0,147.0,104.19,104.19,U/L,44.0,147.0,NORMAL,,END OF TREATMENT,9,2025-04-22,140
STUDY001,LB,STUDY001-SUBJ0002,90,L00090,ALT,Alanine Aminotransferase,CHEMISTRY,30.0,U/L,7.0,56.0,30.0,30.0,U/L,7.0,56.0,NORMAL,,END OF TREATMENT,9,2025-04-22,140
STUDY001,LB,STUDY001-SUBJ0003,1,L00001,HGB,Hemoglobin,HEMATOLOGY,15.51,g/dL,13.5,17.5,15.51,15.51,g/dL,13.5,17.5,NORMAL,,SCREENING,1,2025-02-26,-14
STUDY001,LB,STUDY001-SUBJ0003,2,L00002,HCT,Hematocrit,HEMATOLOGY,45.41,%,41.0,51.0,45.41,45.41,%,41.0,51.0,NORMAL,,SCREENING,1,2025-02-26,-14
STUDY001,LB,STUDY001-SUBJ0003,3,L00003,WBC,White Blood Cell Count,HEMATOLOGY,5.9,10^9/L,4.5,11.0,5.9,5.9,10^9/L,4.5,11.0,NORMAL,,SCREENING,1,2025-02-26,-14
STUDY001,LB,STUDY001-SUBJ0003,4,L00004,PLT,Platelet Count,HEMATOLOGY,349.02,10^9/L,150.0,450.0,349.02,349.02,10^9/L,150.0,450.0,NORMAL,,SCREENING,1,2025-02-26,-14
STUDY001,LB,STUDY001-SUBJ0003,5,L00005,GLUC,Glucose,CHEMISTRY,87.93,mg/dL,70.0,100.0,87.93,87.93,mg/dL,70.0,100.0,NORMAL,,SCREENING,1,2025-02-26,-14
STUDY001,LB,STUDY001-SUBJ0003,6,L00006,BUN,Blood Urea Nitrogen,CHEMISTRY,9.6,mg/dL,7.0,20.0,9.6,9.6,mg/dL,7.0,20.0,NORMAL,,SCREENING,1,2025-02-26,-14
STUDY001,LB,STUDY001-SUBJ0003,7,L00007,CREAT,Creatinine,CHEMISTRY,0.96,mg/dL,0.6,1.2,0.96,0.96,mg/dL,0.6,1.2,NORMAL,,SCREENING,1,2025-02-26,-14
STUDY001,LB,STUDY001-SUBJ0003,8,L00008,BILI,Total Bilirubin,CHEMISTRY,0.62,mg/dL,0.1,1.2,0.62,0.62,mg/dL,0.1,1.2,NORMAL,,SCREENING,1,2025-02-26,-14
STUDY001,LB,STUDY001-SUBJ0003,9,L00009,ALP,Alkaline Phosphatase,CHEMISTRY,111.56,U/L,44.0,147.0,111.56,111.56,U/L,44.0,147.0,NORMAL,,SCREENING,1,2025-02-26,-14
STUDY001,LB,STUDY001-SUBJ0003,10,L00010,ALT,Alanine Aminotransferase,CHEMISTRY,36.78,U/L,7.0,56.0,36.78,36.78,U/L,7.0,56.0,NORMAL,,SCREENING,1,2025-02-26,-14
STUDY001,LB,STUDY001-SUBJ0003,11,L00011,HGB,Hemoglobin,HEMATOLOGY,15.78,g/dL,13.5,17.5,15.78,15.78,g/dL,13.5,17.5,NORMAL,Y,BASELINE,2,2025-03-12,1
STUDY001,LB,STUDY001-SUBJ0003,12,L00012,HCT,Hematocrit,HEMATOLOGY,45.39,%,41.0,51.0,45.39,45.39,%,41.0,51.0,NORMAL,Y,BASELINE,2,2025-03-12,1
STUDY001,LB,STUDY001-SUBJ0003,13,L00013,WBC,White Blood Cell Count,HEMATOLOGY,5.76,10^9/L,4.5,11.0,5.76,5.76,10^9/L,4.5,11.0,NORMAL,Y,BASELINE,2,2025-03-12,1
STUDY001,LB,STUDY001-SUBJ0003,14,L00014,PLT,Platelet Count,HEMATOLOGY,343.31,10^9/L,150.0,450.0,343.31,343.31,10^9/L,150.0,450.0,NORMAL,Y,BASELINE,2,2025-03-12,1
STUDY001,LB,STUDY001-SUBJ0003,15,L00015,GLUC,Glucose,CHEMISTRY,91.03,mg/dL,70.0,100.0,91.03,91.03,mg/dL,70.0,100.0,NORMAL,Y,BASELINE,2,2025-03-12,1
STUDY001,LB,STUDY001-SUBJ0003,16,L00016,BUN,Blood Urea Nitrogen,CHEMISTRY,9.17,mg/dL,7.0,20.0,9.17,9.17,mg/dL,7.0,20.0,NORMAL,Y,BASELINE,2,2025-03-12,1
STUDY001,LB,STUDY001-SUBJ0003,17,L00017,CREAT,Creatinine,CHEMISTRY,0.93,mg/dL,0.6,1.2,0.93,0.93,mg/dL,0.6,1.2,NORMAL,Y,BASELINE,2,2025-03-12,1
STUDY001,LB,STUDY001-SUBJ0003,18,L00018,BILI,Total Bilirubin,CHEMISTRY,0.6,mg/dL,0.1,1.2,0.6,0.6,mg/dL,0.1,1.2,NORMAL,Y,BASELINE,2,2025-03-12,1
STUDY001,LB,STUDY001-SUBJ0003,19,L00019,ALP,Alkaline Phosphatase,CHEMISTRY,112.85,U/L,44.0,147.0,112.85,112.85,U/L,44.0,147.0,NORMAL,Y,BASELINE,2,2025-03-12,1
STUDY001,LB,STUDY001-SUBJ0003,20,L00020,ALT,Alanine Aminotransferase,CHEMISTRY,36.28,U/L,7.0,56.0,36.28,36.28,U/L,7.0,56.0,NORMAL,Y,BASELINE,2,2025-03-12,1
STUDY001,LB,STUDY001-SUBJ0003,21,L00021,HGB,Hemoglobin,HEMATOLOGY,15.65,g/dL,13.5,17.5,15.65,15.65,g/dL,13.5,17.5,NORMAL,,WEEK 1,3,2025-03-18,7
STUDY001,LB,STUDY001-SUBJ0003,22,L00022,HCT,Hematocrit,HEMATOLOGY,45.34,%,41.0,51.0,45.34,45.34,%,41.0,51.0,NORMAL,,WEEK 1,3,2025-03-18,7
STUDY001,LB,STUDY001-SUBJ0003,23,L00023,WBC,White Blood Cell Count,HEMATOLOGY,5.94,10^9/L,4.5,11.0,5.94,5.94,10^9/L,4.5,11.0,NORMAL,,WEEK 1,3,2025-03-18,7
STUDY001,LB,STUDY001-SUBJ0003,24,L00024,PLT,Platelet Count,HEMATOLOGY,341.45,10^9/L,150.0,450.0,341.45,341.45,10^9/L,150.0,450.0,NORMAL,,WEEK 1,3,2025-03-18,7
STUDY001,LB,STUDY001-SUBJ0003,25,L00025,GLUC,Glucose,CHEMISTRY,90.51,mg/dL,70.0,100.0,90.51,90.51,mg/dL,70.0,100.0,NORMAL,,WEEK 1,3,2025-03-18,7
STUDY001,LB,STUDY001-SUBJ0003,26,L00026,BUN,Blood Urea Nitrogen,CHEMISTRY,9.39,mg/dL,7.0,20.0,9.39,9.39,mg/dL,7.0,20.0,NORMAL,,WEEK 1,3,2025-03-18,7
STUDY001,LB,STUDY001-SUBJ0003,27,L00027,CREAT,Creatinine,CHEMISTRY,0.95,mg/dL,0.6,1.2,0.95,0.95,mg/dL,0.6,1.2,NORMAL,,WEEK 1,3,2025-03-18,7
STUDY001,LB,STUDY001-SUBJ0003,28,L00028,BILI,Total Bilirubin,CHEMISTRY,0.59,mg/dL,0.1,1.2,0.59,0.59,mg/dL,0.1,1.2,NORMAL,,WEEK 1,3,2025-03-18,7
STUDY001,LB,STUDY001-SUBJ0003,29,L00029,ALP,Alkaline Phosphatase,CHEMISTRY,109.87,U/L,44.0,147.0,109.87,109.87,U/L,44.0,147.0,NORMAL,,WEEK 1,3,2025-03-18,7
STUDY001,LB,STUDY001-SUBJ0003,30,L00030,ALT,Alanine Aminotransferase,CHEMISTRY,37.33,U/L,7.0,56.0,37.33,37.33,U/L,7.0,56.0,NORMAL,,WEEK 1,3,2025-03-18,7
STUDY001,LB,STUDY001-SUBJ0003,31,L00031,HGB,Hemoglobin,HEMATOLOGY,15.59,g/dL,13.5,17.5,15.59,15.59,g/dL,13.5,17.5,NORMAL,,WEEK 2,4,2025-03-25,14
STUDY001,LB,STUDY001-SUBJ0003,32,L00032,HCT,Hematocrit,HEMATOLOGY,45.48,%,41.0,51.0,45.48,45.48,%,41.0,51.0,NORMAL,,WEEK 2,4,2025-03-25,14
STUDY001,LB,STUDY001-SUBJ0003,33,L00033,WBC,White Blood Cell Count,HEMATOLOGY,6.26,10^9/L,4.5,11.0,6.26,6.26,10^9/L,4.5,11.0,NORMAL,,WEEK 2,4,2025-03-25,14
STUDY001,LB,STUDY001-SUBJ0003,34,L00034,PLT,Platelet Count,HEMATOLOGY,334.71,10^9/L,150.0,450.0,334.71,334.71,10^9/L,150.0,450.0,NORMAL,,WEEK 2,4,2025-03-25,14
STUDY001,LB,STUDY001-SUBJ0003,35,L00035,GLUC,Glucose,CHEMISTRY,89.77,mg/dL,70.0,100.0,89.77,89.77,mg/dL,70.0,100.0,NORMAL,,WEEK 2,4,2025-03-25,14
STUDY001,LB,STUDY001-SUBJ0003,36,L00036,BUN,Blood Urea Nitrogen,CHEMISTRY,9.45,mg/dL,7.0,20.0,9.45,9.45,mg/dL,7.0,20.0,NORMAL,,WEEK 2,4,2025-03-25,14
STUDY001,LB,STUDY001-SUBJ0003,37,L00037,CREAT,Creatinine,CHEMISTRY,0.94,mg/dL,0.6,1.2,0.94,0.94,mg/dL,0.6,1.2,NORMAL,,WEEK 2,4,2025-03-25,14
STUDY001,LB,STUDY001-SUBJ0003,38,L00038,BILI,Total Bilirubin,CHEMISTRY,0.59,mg/dL,0.1,1.2,0.59,0.59,mg/dL,0.1,1.2,NORMAL,,WEEK 2,4,2025-03-25,14
STUDY001,LB,STUDY001-SUBJ0003,39,L00039,ALP,Alkaline Phosphatase,CHEMISTRY,111.73,U/L,44.0,147.0,111.73,111.73,U/L,44.0,147.0,NORMAL,,WEEK 2,4,2025-03-25,14
STUDY001,LB,STUDY001-SUBJ0003,40,L00040,ALT,Alanine Aminotransferase,CHEMISTRY,37.79,U/L,7.0,56.0,37.79,37.79,U/L,7.0,56.0,NORMAL,,WEEK 2,4,2025-03-25,14
STUDY001,LB,STUDY001-SUBJ0003,41,L00041,HGB,Hemoglobin,HEMATOLOGY,15.75,g/dL,13.5,17.5,15.75,15.75,g/dL,13.5,17.5,NORMAL,,WEEK 4,5,2025-04-08,28
STUDY001,LB,STUDY001-SUBJ0003,42,L00042,HCT,Hematocrit,HEMATOLOGY,45.71,%,41.0,51.0,45.71,45.71,%,41.0,51.0,NORMAL,,WEEK 4,5,2025-04-08,28
STUDY001,LB,STUDY001-SUBJ0003,43,L00043,WBC,White Blood Cell Count,HEMATOLOGY,5.67,10^9/L,4.5,11.0,5.67,5.67,10^9/L,4.5,11.0,NORMAL,,WEEK 4,5,2025-04-08,28
STUDY001,LB,STUDY001-SUBJ0003,44,L00044,PLT,Platelet Count,HEMATOLOGY,337.37,10^9/L,150.0,450.0,337.37,337.37,10^9/L,150.0,450.0,NORMAL,,WEEK 4,5,2025-04-08,28
STUDY001,LB,STUDY001-SUBJ0003,45,L00045,GLUC,Glucose,CHEMISTRY,90.55,mg/dL,70.0,100.0,90.55,90.55,mg/dL,70.0,100.0,NORMAL,,WEEK 4,5,2025-04-08,28
STUDY001,LB,STUDY001-SUBJ0003,46,L00046,BUN,Blood Urea Nitrogen,CHEMISTRY,9.62,mg/dL,7.0,20.0,9.62,9.62,mg/dL,7.0,20.0,NORMAL,,WEEK 4,5,2025-04-08,28
STUDY001,LB,STUDY001-SUBJ0003,47,L00047,CREAT,Creatinine,CHEMISTRY,0.95,mg/dL,0.6,1.2,0.95,0.95,mg/dL,0.6,1.2,NORMAL,,WEEK 4,5,2025-04-08,28
STUDY001,LB,STUDY001-SUBJ0003,48,L00048,BILI,Total Bilirubin,CHEMISTRY,0.6,mg/dL,0.1,1.2,0.6,0.6,mg/dL,0.1,1.2,NORMAL,,WEEK 4,5,2025-04-08,28
STUDY001,LB,STUDY001-SUBJ0003,49,L00049,ALP,Alkaline Phosphatase,CHEMISTRY,109.11,U/L,44.0,147.0,109.11,109.11,U/L,44.0,147.0,NORMAL,,WEEK 4,5,2025-04-08,28
STUDY001,LB,STUDY001-SUBJ0003,50,L00050,ALT,Alanine Aminotransferase,CHEMISTRY,36.72,U/L,7.0,56.0,36.72,36.72,U/L,7.0,56.0,NORMAL,,WEEK 4,5,2025-04-08,28
STUDY001,LB,STUDY001-SUBJ0003,51,L00051,HGB,Hemoglobin,HEMATOLOGY,15.68,g/dL,13.5,17.5,15.68,15.68,g/dL,13.5,17.5,NORMAL,,WEEK 8,6,2025-05-06,56
STUDY001,LB,STUDY001-SUBJ0003,52,L00052,HCT,Hematocrit,HEMATOLOGY,45.19,%,41.0,51.0,45.19,45.19,%,41.0,51.0,NORMAL,,WEEK 8,6,2025-05-06,56
STUDY001,LB,STUDY001-SUBJ0003,53,L00053,WBC,White Blood Cell Count,HEMATOLOGY,6.17,10^9/L,4.5,11.0,6.17,6.17,10^9/L,4.5,11.0,NORMAL,,WEEK 8,6,2025-05-06,56
STUDY001,LB,STUDY001-SUBJ0003,54,L00054,PLT,Platelet Count,HEMATOLOGY,341.08,10^9/L,150.0,450.0,341.08,341.08,10^9/L,150.0,450.0,NORMAL,,WEEK 8,6,2025-05-06,56
STUDY001,LB,STUDY001-SUBJ0003,55,L00055,GLUC,Glucose,CHEMISTRY,90.66,mg/dL,70.0,100.0,90.66,90.66,mg/dL,70.0,100.0,NORMAL,,WEEK 8,6,2025-05-06,56
STUDY001,LB,STUDY001-SUBJ0003,56,L00056,BUN,Blood Urea Nitrogen,CHEMISTRY,9.11,mg/dL,7.0,20.0,9.11,9.11,mg/dL,7.0,20.0,NORMAL,,WEEK 8,6,2025-05-06,56
STUDY001,LB,STUDY001-SUBJ0003,57,L00057,CREAT,Creatinine,CHEMISTRY,0.95,mg/dL,0.6,1.2,0.95,0.95,mg/dL,0.6,1.2,NORMAL,,WEEK 8,6,2025-05-06,56
STUDY001,LB,STUDY001-SUBJ0003,58,L00058,BILI,Total Bilirubin,CHEMISTRY,0.62,mg/dL,0.1,1.2,0.62,0.62,mg/dL,0.1,1.2,NORMAL,,WEEK 8,6,2025-05-06,56
STUDY001,LB,STUDY001-SUBJ0003,59,L00059,ALP,Alkaline Phosphatase,CHEMISTRY,111.43,U/L,44.0,147.0,111.43,111.43,U/L,44.0,147.0,NORMAL,,WEEK 8,6,2025-05-06,56
STUDY001,LB,STUDY001-SUBJ0003,60,L00060,ALT,Alanine Aminotransferase,CHEMISTRY,34.51,U/L,7.0,56.0,34.51,34.51,U/L,7.0,56.0,NORMAL,,WEEK 8,6,2025-05-06,56
STUDY001,LB,STUDY001-SUBJ0003,61,L00061,HGB,Hemoglobin,HEMATOLOGY,15.64,g/dL,13.5,17.5,15.64,15.64,g/dL,13.5,17.5,NORMAL,,WEEK 12,7,2025-06-03,84
STUDY001,LB,STUDY001-SUBJ0003,62,L00062,HCT,Hematocrit,HEMATOLOGY,44.93,%,41.0,51.0,44.93,44.93,%,41.0,51.0,NORMAL,,WEEK 12,7,2025-06-03,84
STUDY001,LB,STUDY001-SUBJ0003,63,L00063,WBC,White Blood Cell Count,HEMATOLOGY,5.92,10^9/L,4.5,11.0,5.92,5.92,10^9/L,4.5,11.0,NORMAL,,WEEK 12,7,2025-06-03,84
STUDY001,LB,STUDY001-SUBJ0003,64,L00064,PLT,Platelet Count,HEMATOLOGY,342.9,10^9/L,150.0,450.0,342.9,342.9,10^9/L,150.0,450.0,NORMAL,,WEEK 12,7,2025-06-03,84
STUDY001,LB,STUDY001-SUBJ0003,65,L00065,GLUC,Glucose,CHEMISTRY,90.12,mg/dL,70.0,100.0,90.12,90.12,mg/dL,70.0,100.0,NORMAL,,WEEK 12,7,2025-06-03,84
STUDY001,LB,STUDY001-SUBJ0003,66,L00066,BUN,Blood Urea Nitrogen,CHEMISTRY,9.66,mg/dL,7.0,20.0,9.66,9.66,mg/dL,7.0,20.0,NORMAL,,WEEK 12,7,2025-06-03,84
STUDY001,LB,STUDY001-SUBJ0003,67,L00067,CREAT,Creatinine,CHEMISTRY,0.93,mg/dL,0.6,1.2,0.93,0.93,mg/dL,0.6,1.2,NORMAL,,WEEK 12,7,2025-06-03,84
STUDY001,LB,STUDY001-SUBJ0003,68,L00068,BILI,Total Bilirubin,CHEMISTRY,0.63,mg/dL,0.1,1.2,0.63,0.63,mg/dL,0.1,1.2,NORMAL,,WEEK 12,7,2025-06-03,84
STUDY001,LB,STUDY001-SUBJ0003,69,L00069,ALP,Alkaline Phosphatase,CHEMISTRY,108.06,U/L,44.0,147.0,108.06,108.06,U/L,44.0,147.0,NORMAL,,WEEK 12,7,2025-06-03,84
STUDY001,LB,STUDY001-SUBJ0003,70,L00070,ALT,Alanine Aminotransferase,CHEMISTRY,35.47,U/L,7.0,56.0,35.47,35.47,U/L,7.0,56.0,NORMAL,,WEEK 12,7,2025-06-03,84
STUDY001,LB,STUDY001-SUBJ0003,71,L00071,HGB,Hemoglobin,HEMATOLOGY,15.69,g/dL,13.5,17.5,15.69,15.69,g/dL,13.5,17.5,NORMAL,,WEEK 16,8,2025-07-01,112
STUDY001,LB,STUDY001-SUBJ0003,72,L00072,HCT,Hematocrit,HEMATOLOGY,45.19,%,41.0,51.0,45.19,45.19,%,41.0,51.0,NORMAL,,WEEK 16,8,2025-07-01,112
STUDY001,LB,STUDY001-SUBJ0003,73,L00073,WBC,White Blood Cell Count,HEMATOLOGY,6.01,10^9/L,4.5,11.0,6.01,6.01,10^9/L,4.5,11.0,NORMAL,,WEEK 16,8,2025-07-01,112
STUDY001,LB,STUDY001-SUBJ0003,74,L00074,PLT,Platelet Count,HEMATOLOGY,338.88,10^9/L,150.0,450.0,338.88,338.88,10^9/L,150.0,450.0,NORMAL,,WEEK 16,8,2025-07-01,112
STUDY001,LB,STUDY001-SUBJ0003,75,L00075,GLUC,Glucose,CHEMISTRY,89.66,mg/dL,70.0,100.0,89.66,89.66,mg/dL,70.0,100.0,NORMAL,,WEEK 16,8,2025-07-01,112
STUDY001,LB,STUDY001-SUBJ0003,76,L00076,BUN,Blood Urea Nitrogen,CHEMISTRY,9.22,mg/dL,7.0,20.0,9.22,9.22,mg/dL,7.0,20.0,NORMAL,,WEEK 16,8,2025-07-01,112
STUDY001,LB,STUDY001-SUBJ0003,77,L00077,CREAT,Creatinine,CHEMISTRY,0.93,mg/dL,0.6,1.2,0.93,0.93,mg/dL,0.6,1.2,NORMAL,,WEEK 16,8,2025-07-01,112
STUDY001,LB,STUDY001-SUBJ0003,78,L00078,BILI,Total Bilirubin,CHEMISTRY,0.6,mg/dL,0.1,1.2,0.6,0.6,mg/dL,0.1,1.2,NORMAL,,WEEK 16,8,2025-07-01,112
STUDY001,LB,STUDY001-SUBJ0003,79,L00079,ALP,Alkaline Phosphatase,CHEMISTRY,110.73,U/L,44.0,147.0,110.73,110.73,U/L,44.0,147.0,NORMAL,,WEEK 16,8,2025-07-01,112
STUDY001,LB,STUDY001-SUBJ0003,80,L00080,ALT,Alanine Aminotransferase,CHEMISTRY,34.86,U/L,7.0,56.0,34.86,34.86,U/L,7.0,56.0,NORMAL,,WEEK 16,8,2025-07-01,112
STUDY001,LB,STUDY001-SUBJ0003,81,L00081,HGB,Hemoglobin,HEMATOLOGY,15.79,g/dL,13.5,17.5,15.79,15.79,g/dL,13.5,17.5,NORMAL,,END OF TREATMENT,9,2025-07-29,140
STUDY001,LB,STUDY001-SUBJ0003,82,L00082,HCT,Hematocrit,HEMATOLOGY,45.0,%,41.0,51.0,45.0,45.0,%,41.0,51.0,NORMAL,,END OF TREATMENT,9,2025-07-29,140
STUDY001,LB,STUDY001-SUBJ0003,83,L00083,WBC,White Blood Cell Count,HEMATOLOGY,5.86,10^9/L,4.5,11.0,5.86,5.86,10^9/L,4.5,11.0,NORMAL,,END OF TREATMENT,9,2025-07-29,140
STUDY001,LB,STUDY001-SUBJ0003,84,L00084,PLT,Platelet Count,HEMATOLOGY,337.94,10^9/L,150.0,450.0,337.94,337.94,10^9/L,150.0,450.0,NORMAL,,END OF TREATMENT,9,2025-07-29,140
STUDY001,LB,STUDY001-SUBJ0003,85,L00085,GLUC,Glucose,CHEMISTRY,89.1,mg/dL,70.0,100.0,89.1,89.1,mg/dL,70.0,100.0,NORMAL,,END OF TREATMENT,9,2025-07-29,140
STUDY001,LB,STUDY001-SUBJ0003,86,L00086,BUN,Blood Urea Nitrogen,CHEMISTRY,9.64,mg/dL,7.0,20.0,9.64,9.64,mg/dL,7.0,20.0,NORMAL,,END OF TREATMENT,9,2025-07-29,140
STUDY001,LB,STUDY001-SUBJ0003,87,L00087,CREAT,Creatinine,CHEMISTRY,0.94,mg/dL,0.6,1.2,0.94,0.94,mg/dL,0.6,1.2,NORMAL,,END OF TREATMENT,9,2025-07-29,140
STUDY001,LB,STUDY001-SUBJ0003,88,L00088,BILI,Total Bilirubin,CHEMISTRY,0.64,mg/dL,0.1,1.2,0.64,0.64,mg/dL,0.1,1.2,NORMAL,,END OF TREATMENT,9,2025-07-29,140
STUDY001,LB,STUDY001-SUBJ0003,89,L00089,ALP,Alkaline Phosphatase,CHEMISTRY,107.16,U/L,44.0,147.0,107.16,107.16,U/L,44.0,147.0,NORMAL,,END OF TREATMENT,9,2025-07-29,140
STUDY001,LB,STUDY001-SUBJ0003,90,L00090,ALT,Alanine Aminotransferase,CHEMISTRY,34.6,U/L,7.0,56.0,34.6,34.6,U/L,7.0,56.0,NORMAL,,END OF TREATMENT,9,2025-07-29,140
STUDY001,LB,STUDY001-SUBJ0004,1,L00001,HGB,Hemoglobin,HEMATOLOGY,14.59,g/dL,13.5,17.5,14.59,14.59,g/dL,13.5,17.5,NORMAL,,SCREENING,1,2025-05-15,-14
STUDY001,LB,STUDY001-SUBJ0004,2,L00002,HCT,Hematocrit,HEMATOLOGY,46.88,%,41.0,51.0,46.88,46.88,%,41.0,51.0,NORMAL,,SCREENING,1,2025-05-15,-14
STUDY001,LB,STUDY001-SUBJ0004,3,L00003,WBC,White Blood Cell Count,HEMATOLOGY,6.41,10^9/L,4.5,11.0,6.41,6.41,10^9/L,4.5,11.0,NORMAL,,SCREENING,1,2025-05-15,-14
STUDY001,LB,STUDY001-SUBJ0004,4,L00004,PLT,Platelet Count,HEMATOLOGY,298.96,10^9/L,150.0,450.0,298.96,298.96,10^9/L,150.0,450.0,NORMAL,,SCREENING,1,2025-05-15,-14
STUDY001,LB,STUDY001-SUBJ0004,5,L00005,GLUC,Glucose,CHEMISTRY,90.0,mg/dL,70.0,100.0,90.0,90.0,mg/dL,70.0,100.0,NORMAL,,SCREENING,1,2025-05-15,-14
STUDY001,LB,STUDY001-SUBJ0004,6,L00006,BUN,Blood Urea Nitrogen,CHEMISTRY,11.59,mg/dL,7.0,20.0,11.59,11.59,mg/dL,7.0,20.0,NORMAL,,SCREENING,1,2025-05-15,-14
STUDY001,LB,STUDY001-SUBJ0004,7,L00007,CREAT,Creatinine,CHEMISTRY,0.73,mg/dL,0.6,1.2,0.73,0.73,mg/dL,0.6,1.2,NORMAL,,SCREENING,1,2025-05-15,-14
STUDY001,LB,STUDY001-SUBJ0004,8,L00008,BILI,Total Bilirubin,CHEMISTRY,0.65,mg/dL,0.1,1.2,0.65,0.65,mg/dL,0.1,1.2,NORMAL,,SCREENING,1,2025-05-15,-14
STUDY001,LB,STUDY001-SUBJ0004,9,L00009,ALP,Alkaline Phosphatase,CHEMISTRY,93.4,U/L,44.0,147.0,93.4,93.4,U/L,44.0,147.0,NORMAL,,SCREENING,1,2025-05-15,-14
STUDY001,LB,STUDY001-SUBJ0004,10,L00010,ALT,Alanine Aminotransferase,CHEMISTRY,21.93,U/L,7.0,56.0,21.93,21.93,U/L,7.0,56.0,NORMAL,,SCREENING,1,2025-05-15,-14
STUDY001,LB,STUDY001-SUBJ0004,11,L00011,HGB,Hemoglobin,HEMATOLOGY,14.64,g/dL,13.5,17.5,14.64,14.64,g/dL,13.5,17.5,NORMAL,Y,BASELINE,2,2025-05-29,1
STUDY001,LB,STUDY001-SUBJ0004,12,L00012,HCT,Hematocrit,HEMATOLOGY,46.63,%,41.0,51.0,46.63,46.63,%,41.0,51.0,NORMAL,Y,BASELINE,2,2025-05-29,1
STUDY001,LB,STUDY001-SUBJ0004,13,L00013,WBC,White Blood Cell Count,HEMATOLOGY,6.75,10^9/L,4.5,11.0,6.75,6.75,10^9/L,4.5,11.0,NORMAL,Y,BASELINE,2,2025-05-29,1
STUDY001,LB,STUDY001-SUBJ0004,14,L00014,PLT,Platelet Count,HEMATOLOGY,297.07,10^9/L,150.0,450.0,297.07,297.07,10^9/L,150.0,450.0,NORMAL,Y,BASELINE,2,2025-05-29,1
STUDY001,LB,STUDY001-SUBJ0004,15,L00015,GLUC,Glucose,CHEMISTRY,89.21,mg/dL,70.0,100.0,89.21,89.21,mg/dL,70.0,100.0,NORMAL,Y,BASELINE,2,2025-05-29,1
STUDY001,LB,STUDY001-SUBJ0004,16,L00016,BUN,Blood Urea Nitrogen,CHEMISTRY,11.17,mg/dL,7.0,20.0,11.17,11.17,mg/dL,7.0,20.0,NORMAL,Y,BASELINE,2,2025-05-29,1
STUDY001,LB,STUDY001-SUBJ0004,17,L00017,CREAT,Creatinine,CHEMISTRY,0.71,mg/dL,0.6,1.2,0.71,0.71,mg/dL,0.6,1.2,NORMAL,Y,BASELINE,2,2025-05-29,1
STUDY001,LB,STUDY001-SUBJ0004,18,L00018,BILI,Total Bilirubin,CHEMISTRY,0.64,mg/dL,0.1,1.2,0.64,0.64,mg/dL,0.1,1.2,NORMAL,Y,BASELINE,2,2025-05-29,1
STUDY001,LB,STUDY001-SUBJ0004,19,L00019,ALP,Alkaline Phosphatase,CHEMISTRY,93.76,U/L,44.0,147.0,93.76,93.76,U/L,44.0,147.0,NORMAL,Y,BASELINE,2,2025-05-29,1
STUDY001,LB,STUDY001-SUBJ0004,20,L00020,ALT,Alanine Aminotransferase,CHEMISTRY,21.31,U/L,7.0,56.0,21.31,21.31,U/L,7.0,56.0,NORMAL,Y,BASELINE,2,2025-05-29,1
STUDY001,LB,STUDY001-SUBJ0004,21,L00021,HGB,Hemoglobin,HEMATOLOGY,14.83,g/dL,13.5,17.5,14.83,14.83,g/dL,13.5,17.5,NORMAL,,WEEK 1,3,2025-06-04,7
STUDY001,LB,STUDY001-SUBJ0004,22,L00022,HCT,Hematocrit,HEMATOLOGY,46.94,%,41.0,51.0,46.94,46.94,%,41.0,51.0,NORMAL,,WEEK 1,3,2025-06-04,7
STUDY001,LB,STUDY001-SUBJ0004,23,L00023,WBC,White Blood Cell Count,HEMATOLOGY,6.45,10^9/L,4.5,11.0,6.45,6.45,10^9/L,4.5,11.0,NORMAL,,WEEK 1,3,2025-06-04,7
STUDY001,LB,STUDY001-SUBJ0004,24,L00024,PLT,Platelet Count,HEMATOLOGY,298.74,10^9/L,150.0,450.0,298.74,298.74,10^9/L,150.0,450.0,NORMAL,,WEEK 1,3,2025-06-04,7
STUDY001,LB,STUDY001-SUBJ0004,25,L00025,GLUC,Glucose,CHEMISTRY,89.46,mg/dL,70.0,100.0,89.46,89.46,mg/dL,70.0,100.0,NORMAL,,WEEK 1,3,2025-06-04,7
STUDY001,LB,STUDY001-SUBJ0004,26,L00026,BUN,Blood Urea Nitrogen,CHEMISTRY,11.64,mg/dL,7.0,20.0,11.64,11.64,mg/dL,7.0,20.0,NORMAL,,WEEK 1,3,2025-06-04,7
STUDY001,LB,STUDY001-SUBJ0004,27,L00027,CREAT,Creatinine,CHEMISTRY,0.7,mg/dL,0.6,1.2,0.7,0.7,mg/dL,0.6,1.2,NORMAL,,WEEK 1,3,2025-06-04,7
STUDY001,LB,STUDY001-SUBJ0004,28,L00028,BILI,Total Bilirubin,CHEMISTRY,0.62,mg/dL,0.1,1.2,0.62,0.62,mg/dL,0.1,1.2,NORMAL,,WEEK 1,3,2025-06-04,7
STUDY001,LB,STUDY001-SUBJ0004,29,L00029,ALP,Alkaline Phosphatase,CHEMISTRY,95.48,U/L,44.0,147.0,95.48,95.48,U/L,44.0,147.0,NORMAL,,WEEK 1,3,2025-06-04,7
STUDY001,LB,STUDY001-SUBJ0004,30,L00030,ALT,Alanine Aminotransferase,CHEMISTRY,22.01,U/L,7.0,56.0,22.01,22.01,U/L,7.0,56.0,NORMAL,,WEEK 1,3,2025-06-04,7
STUDY001,LB,STUDY001-SUBJ0004,31,L00031,HGB,Hemoglobin,HEMATOLOGY,14.58,g/dL,13.5,17.5,14.58,14.58,g/dL,13.5,17.5,NORMAL,,WEEK 2,4,2025-06-11,14
STUDY001,LB,STUDY001-SUBJ0004,32,L00032,HCT,Hematocrit,HEMATOLOGY,46.73,%,41.0,51.0,46.73,46.73,%,41.0,51.0,NORMAL,,WEEK 2,4,2025-06-11,14
STUDY001,LB,STUDY001-SUBJ0004,33,L00033,WBC,White Blood Cell Count,HEMATOLOGY,6.32,10^9/L,4.5,11.0,6.32,6.32,10^9/L,4.5,11.0,NORMAL,,WEEK 2,4,2025-06-11,14
STUDY001,LB,STUDY001-SUBJ0004,34,L00034,PLT,Platelet Count,HEMATOLOGY,295.16,10^9/L,150.0,450.0,295.16,295.16,10^9/L,150.0,450.0,NORMAL,,WEEK 2,4,2025-06-11,14
STUDY001,LB,STUDY001-SUBJ0004,35,L00035,GLUC,Glucose,CHEMISTRY,90.54,mg/dL,70.0,100.0,90.54,90.54,mg/dL,70.0,100.0,NORMAL,,WEEK 2,4,2025-06-11,14
STUDY001,LB,STUDY001-SUBJ0004,36,L00036,BUN,Blood Urea Nitrogen,CHEMISTRY,11.38,mg/dL,7.0,20.0,11.38,11.38,mg/dL,7.0,20.0,NORMAL,,WEEK 2,4,2025-06-11,14
STUDY001,LB,STUDY001-SUBJ0004,37,L00037,CREAT,Creatinine,CHEMISTRY,0.72,mg/dL,0.6,1.2,0.72,0.72,mg/dL,0.6,1.2,NORMAL,,WEEK 2,4,2025-06-11,14
STUDY001,LB,STUDY001-SUBJ0004,38,L00038,BILI,Total Bilirubin,CHEMISTRY,0.62,mg/dL,0.1,1.2,0.62,0.62,mg/dL,0.1,1.2,NORMAL,,WEEK 2,4,2025-06-11,14
STUDY001,LB,STUDY001-SUBJ0004,39,L00039,ALP,Alkaline Phosphatase,CHEMISTRY,95.35,U/L,44.0,147.0,95.35,95.35,U/L,44.0,147.0,NORMAL,,WEEK 2,4,2025-06-11,14
STUDY001,LB,STUDY001-SUBJ0004,40,L00040,ALT,Alanine Aminotransferase,CHEMISTRY,23.29,U/L,7.0,56.0,23.29,23.29,U/L,7.0,56.0,NORMAL,,WEEK 2,4,2025-06-11,14
STUDY001,LB,STUDY001-SUBJ0004,41,L00041,HGB,Hemoglobin,HEMATOLOGY,14.45,g/dL,13.5,17.5,14.45,14.45,g/dL,13.5,17.5,NORMAL,,WEEK 4,5,2025-06-25,28
STUDY001,LB,STUDY001-SUBJ0004,42,L00042,HCT,Hematocrit,HEMATOLOGY,47.04,%,41.0,51.0,47.04,47.04,%,41.0,51.0,NORMAL,,WEEK 4,5,2025-06-25,28
STUDY001,LB,STUDY001-SUBJ0004,43,L00043,WBC,White Blood Cell Count,HEMATOLOGY,6.63,10^9/L,4.5,11.0,6.63,6.63,10^9/L,4.5,11.0,NORMAL,,WEEK 4,5,2025-06-25,28
STUDY001,LB,STUDY001-SUBJ0004,44,L00044,PLT,Platelet Count,HEMATOLOGY,302.35,10^9/L,150.0,450.0,302.35,302.35,10^9/L,150.0,450.0,NORMAL,,WEEK 4,5,2025-06-25,28
STUDY001,LB,STUDY001-SUBJ0004,45,L00045,GLUC,Glucose,CHEMISTRY,88.28,mg/dL,70.0,100.0,88.28,88.28,mg/dL,70.0,100.0,NORMAL,,WEEK 4,5,2025-06-25,28
STUDY001,LB,STUDY001-SUBJ0004,46,L00046,BUN,Blood Urea Nitrogen,CHEMISTRY,11.87,mg/dL,7.0,20.0,11.87,11.87,mg/dL,7.0,20.0,NORMAL,,WEEK 4,5,2025-06-25,28
STUDY001,LB,STUDY001-SUBJ0004,47,L00047,CREAT,Creatinine,CHEMISTRY,0.72,mg/dL,0.6,1.2,0.72,0.72,mg/dL,0.6,1.2,NORMAL,,WEEK 4,5,2025-06-25,28
STUDY001,LB,STUDY001-SUBJ0004,48,L00048,BILI,Total Bilirubin,CHEMISTRY,0.66,mg/dL,0.1,1.2,0.66,0.66,mg/dL,0.1,1.2,NORMAL,,WEEK 4,5,2025-06-25,28
STUDY001,LB,STUDY001-SUBJ0004,49,L00049,ALP,Alkaline Phosphatase,CHEMISTRY,99.53,U/L,44.0,147.0,99.53,99.53,U/L,44.0,147.0,NORMAL,,WEEK 4,5,2025-06-25,28
STUDY001,LB,STUDY001-SUBJ0004,50,L00050,ALT,Alanine Aminotransferase,CHEMISTRY,22.72,U/L,7.0,56.0,22.72,22.72,U/L,7.0,56.0,NORMAL,,WEEK 4,5,2025-06-25,28
STUDY001,LB,STUDY001-SUBJ0004,51,L00051,HGB,Hemoglobin,HEMATOLOGY,14.47,g/dL,13.5,17.5,14.47,14.47,g/dL,13.5,17.5,NORMAL,,WEEK 8,6,2025-07-23,56
STUDY001,LB,STUDY001-SUBJ0004,52,L00052,HCT,Hematocrit,HEMATOLOGY,46.68,%,41.0,51.0,46.68,46.68,%,41.0,51.0,NORMAL,,WEEK 8,6,2025-07-23,56
STUDY001,LB,STUDY001-SUBJ0004,53,L00053,WBC,White Blood Cell Count,HEMATOLOGY,6.97,10^9/L,4.5,11.0,6.97,6.97,10^9/L,4.5,11.0,NORMAL,,WEEK 8,6,2025-07-23,56
STUDY001,LB,STUDY001-SUBJ0004,54,L00054,PLT,Platelet Count,HEMATOLOGY,304.41,10^9/L,150.0,450.0,304.41,304.41,10^9/L,150.0,450.0,NORMAL,,WEEK 8,6,2025-07-23,56
STUDY001,LB,STUDY001-SUBJ0004,55,L00055,GLUC,Glucose,CHEMISTRY,87.22,mg/dL,70.0,100.0,87.22,87.22,mg/dL,70.0,100.0,NORMAL,,WEEK 8,6,2025-07-23,56
STUDY001,LB,STUDY001-SUBJ0004,56,L00056,BUN,Blood Urea Nitrogen,CHEMISTRY,11.37,mg/dL,7.0,20.0,11.37,11.37,mg/dL,7.0,20.0,NORMAL,,WEEK 8,6,2025-07-23,56
STUDY001,LB,STUDY001-SUBJ0004,57,L00057,CREAT,Creatinine,CHEMISTRY,0.74,mg/dL,0.6,1.2,0.74,0.74,mg/dL,0.6,1.2,NORMAL,,WEEK 8,6,2025-07-23,56
STUDY001,LB,STUDY001-SUBJ0004,58,L00058,BILI,Total Bilirubin,CHEMISTRY,0.6,mg/dL,0.1,1.2,0.6,0.6,mg/dL,0.1,1.2,NORMAL,,WEEK 8,6,2025-07-23,56
STUDY001,LB,STUDY001-SUBJ0004,59,L00059,ALP,Alkaline Phosphatase,CHEMISTRY,95.32,U/L,44.0,147.0,95.32,95.32,U/L,44.0,147.0,NORMAL,,WEEK 8,6,2025-07-23,56
STUDY001,LB,STUDY001-SUBJ0004,60,L00060,ALT,Alanine Aminotransferase,CHEMISTRY,22.41,U/L,7.0,56.0,22.41,22.41,U/L,7.0,56.0,NORMAL,,WEEK 8,6,2025-07-23,56
STUDY001,LB,STUDY001-SUBJ0004,61,L00061,HGB,Hemoglobin,HEMATOLOGY,14.68,g/dL,13.5,17.5,14.68,14.68,g/dL,13.5,17.5,NORMAL,,WEEK 12,7,2025-08-20,84
STUDY001,LB,STUDY001-SUBJ0004,62,L00062,HCT,Hematocrit,HEMATOLOGY,47.07,%,41.0,51.0,47.07,47.07,%,41.0,51.0,NORMAL,,WEEK 12,7,2025-08-20,84
STUDY001,LB,STUDY001-SUBJ0004,63,L00063,WBC,White Blood Cell Count,HEMATOLOGY,6.63,10^9/L,4.5,11.0,6.63,6.63,10^9/L,4.5,11.0,NORMAL,,WEEK 12,7,2025-08-20,84
STUDY001,LB,STUDY001-SUBJ0004,64,L00064,PLT,Platelet Count,HEMATOLOGY,304.5,10^9/L,150.0,450.0,304.5,304.5,10^9/L,150.0,450.0,NORMAL,,WEEK 12,7,2025-08-20,84
STUDY001,LB,STUDY001-SUBJ0004,65,L00065,GLUC,Glucose,CHEMISTRY,88.91,mg/dL,70.0,100.0,88.91,88.91,mg/dL,70.0,100.0,NORMAL,,WEEK 12,7,2025-08-20,84
STUDY001,LB,STUDY001-SUBJ0004,66,L00066,BUN,Blood Urea Nitrogen,CHEMISTRY,11.45,mg/dL,7.0,20.0,11.45,11.45,mg/dL,7.0,20.0,NORMAL,,WEEK 12,7,2025-08-20,84
STUDY001,LB,STUDY001-SUBJ0004,67,L00067,CREAT,Creatinine,CHEMISTRY,0.71,mg/dL,0.6,1.2,0.71,0.71,mg/dL,0.6,1.2,NORMAL,,WEEK 12,7,2025-08-20,84
STUDY001,LB,STUDY001-SUBJ0004,68,L00068,BILI,Total Bilirubin,CHEMISTRY,0.64,mg/dL,0.1,1.2,0.64,0.64,mg/dL,0.1,1.2,NORMAL,,WEEK 12,7,2025-08-20,84
STUDY001,LB,STUDY001-SUBJ0004,69,L00069,ALP,Alkaline Phosphatase,CHEMISTRY,94.56,U/L,44.0,147.0,94.56,94.56,U/L,44.0,147.0,NORMAL,,WEEK 12,7,2025-08-20,84
STUDY001,LB,STUDY001-SUBJ0004,70,L00070,ALT,Alanine Aminotransferase,CHEMISTRY,21.14,U/L,7.0,56.0,21.14,21.14,U/L,7.0,56.0,NORMAL,,WEEK 12,7,2025-08-20,84
STUDY001,LB,STUDY001-SUBJ0004,71,L00071,HGB,Hemoglobin,HEMATOLOGY,14.7,g/dL,13.5,17.5,14.7,14.7,g/dL,13.5,17.5,NORMAL,,WEEK 16,8,2025-09-17,112
STUDY001,LB,STUDY001-SUBJ0004,72,L00072,HCT,Hematocrit,HEMATOLOGY,46.82,%,41.0,51.0,46.82,46.82,%,41.0,51.0,NORMAL,,WEEK 16,8,2025-09-17,112
STUDY001,LB,STUDY001-SUBJ0004,73,L00073,WBC,White Blood Cell Count,HEMATOLOGY,6.84,10^9/L,4.5,11.0,6.84,6.84,10^9/L,4.5,11.0,NORMAL,,WEEK 16,8,2025-09-17,112
STUDY001,LB,STUDY001-SUBJ0004,74,L00074,PLT,Platelet Count,HEMATOLOGY,303.21,10^9/L,150.0,450.0,303.21,303.21,10^9/L,150.0,450.0,NORMAL,,WEEK 16,8,2025-09-17,112
STUDY001,LB,STUDY001-SUBJ0004,75,L00075,GLUC,Glucose,CHEMISTRY,91.17,mg/dL,70.0,100.0,91.17,91.17,mg/dL,70.0,100.0,NORMAL,,WEEK 16,8,2025-09-17,112
STUDY001,LB,STUDY001-SUBJ0004,76,L00076,BUN,Blood Urea Nitrogen,CHEMISTRY,11.49,mg/dL,7.0,20.0,11.49,11.49,mg/dL,7.0,20.0,NORMAL,,WEEK 16,8,2025-09-17,112
STUDY001,LB,STUDY001-SUBJ0004,77,L00077,CREAT,Creatinine,CHEMISTRY,0.75,mg/dL,0.6,1.2,0.75,0.75,mg/dL,0.6,1.2,NORMAL,,WEEK 16,8,2025-09-17,112
STUDY001,LB,STUDY001-SUBJ0004,78,L00078,BILI,Total Bilirubin,CHEMISTRY,0.64,mg/dL,0.1,1.2,0.64,0.64,mg/dL,0.1,1.2,NORMAL,,WEEK 16,8,2025-09-17,112
STUDY001,LB,STUDY001-SUBJ0004,79,L00079,ALP,Alkaline Phosphatase,CHEMISTRY,94.73,U/L,44.0,147.0,94.73,94.73,U/L,44.0,147.0,NORMAL,,WEEK 16,8,2025-09-17,112
STUDY001,LB,STUDY001-SUBJ0004,80,L00080,ALT,Alanine Aminotransferase,CHEMISTRY,20.49,U/L,7.0,56.0,20.49,20.49,U/L,7.0,56.0,NORMAL,,WEEK 16,8,2025-09-17,112
STUDY001,LB,STUDY001-SUBJ0004,81,L00081,HGB,Hemoglobin,HEMATOLOGY,14.49,g/dL,13.5,17.5,14.49,14.49,g/dL,13.5,17.5,NORMAL,,END OF TREATMENT,9,2025-10-15,140
STUDY001,LB,STUDY001-SUBJ0004,82,L00082,HCT,Hematocrit,HEMATOLOGY,46.91,%,41.0,51.0,46.91,46.91,%,41.0,51.0,NORMAL,,END OF TREATMENT,9,2025-10-15,140
STUDY001,LB,STUDY001-SUBJ0004,83,L00083,WBC,White Blood Cell Count,HEMATOLOGY,6.49,10^9/L,4.5,11.0,6.49,6.49,10^9/L,4.5,11.0,NORMAL,,END OF TREATMENT,9,2025-10-15,140
STUDY001,LB,STUDY001-SUBJ0004,84,L00084,PLT,Platelet Count,HEMATOLOGY,292.62,10^9/L,150.0,450.0,292.62,292.62,10^9/L,150.0,450.0,NORMAL,,END OF TREATMENT,9,2025-10-15,140
STUDY001,LB,STUDY001-SUBJ0004,85,L00085,GLUC,Glucose,CHEMISTRY,87.62,mg/dL,70.0,100.0,87.62,87.62,mg/dL,70.0,100.0,NORMAL,,END OF TREATMENT,9,2025-10-15,140
STUDY001,LB,STUDY001-SUBJ0004,86,L00086,BUN,Blood Urea Nitrogen,CHEMISTRY,11.48,mg/dL,7.0,20.0,11.48,11.48,mg/dL,7.0,20.0,NORMAL,,END OF TREATMENT,9,2025-10-15,140
STUDY001,LB,STUDY001-SUBJ0004,87,L00087,CREAT,Creatinine,CHEMISTRY,0.71,mg/dL,0.6,1.2,0.71,0.71,mg/dL,0.6,1.2,NORMAL,,END OF TREATMENT,9,2025-10-15,140
STUDY001,LB,STUDY001-SUBJ0004,88,L00088,BILI,Total Bilirubin,CHEMISTRY,0.66,mg/dL,0.1,1.2,0.66,0.66,mg/dL,0.1,1.2,NORMAL,,END OF TREATMENT,9,2025-10-15,140
STUDY001,LB,STUDY001-SUBJ0004,89,L00089,ALP,Alkaline Phosphatase,CHEMISTRY,92.11,U/L,44.0,147.0,92.11,92.11,U/L,44.0,147.0,NORMAL,,END OF TREATMENT,9,2025-10-15,140
STUDY001,LB,STUDY001-SUBJ0004,90,L00090,ALT,Alanine Aminotransferase,CHEMISTRY,23.98,U/L,7.0,56.0,23.98,23.98,U/L,7.0,56.0,NORMAL,,END OF TREATMENT,9,2025-10-15,140
STUDY001,LB,STUDY001-SUBJ0005,1,L00001,HGB,Hemoglobin,HEMATOLOGY,14.51,g/dL,13.5,17.5,14.51,14.51,g/dL,13.5,17.5,NORMAL,,SCREENING,1,2025-03-04,-14
STUDY001,LB,STUDY001-SUBJ0005,2,L00002,HCT,Hematocrit,HEMATOLOGY,44.37,%,41.0,51.0,44.37,44.37,%,41.0,51.0,NORMAL,,SCREENING,1,2025-03-04,-14
STUDY001,LB,STUDY001-SUBJ0005,3,L00003,WBC,White Blood Cell Count,HEMATOLOGY,9.19,10^9/L,4.5,11.0,9.19,9.19,10^9/L,4.5,11.0,NORMAL,,SCREENING,1,2025-03-04,-14
STUDY001,LB,STUDY001-SUBJ0005,4,L00004,PLT,Platelet Count,HEMATOLOGY,228.19,10^9/L,150.0,450.0,228.19,228.19,10^9/L,150.0,450.0,NORMAL,,SCREENING,1,2025-03-04,-14
STUDY001,LB,STUDY001-SUBJ0005,5,L00005,GLUC,Glucose,CHEMISTRY,105.21,mg/dL,70.0,100.0,105.21,105.21,mg/dL,70.0,100.0,HIGH,,SCREENING,1,2025-03-04,-14
STUDY001,LB,STUDY001-SUBJ0005,6,L00006,BUN,Blood Urea Nitrogen,CHEMISTRY,17.37,mg/dL,7.0,20.0,17.37,17.37,mg/dL,7.0,20.0,NORMAL,,SCREENING,1,2025-03-04,-14
STUDY001,LB,STUDY001-SUBJ0005,7,L00007,CREAT,Creatinine,CHEMISTRY,1.13,mg/dL,0.6,1.2,1.13,1.13,mg/dL,0.6,1.2,NORMAL,,SCREENING,1,2025-03-04,-14
STUDY001,LB,STUDY001-SUBJ0005,8,L00008,BILI,Total Bilirubin,CHEMISTRY,0.93,mg/dL,0.1,1.2,0.93,0.93,mg/dL,0.1,1.2,NORMAL,,SCREENING,1,2025-03-04,-14
STUDY001,LB,STUDY001-SUBJ0005,9,L00009,ALP,Alkaline Phosphatase,CHEMISTRY,135.05,U/L,44.0,147.0,135.05,135.05,U/L,44.0,147.0,NORMAL,,SCREENING,1,2025-03-04,-14
STUDY001,LB,STUDY001-SUBJ0005,10,L00010,ALT,Alanine Aminotransferase,CHEMISTRY,27.57,U/L,7.0,56.0,27.57,27.57,U/L,7.0,56.0,NORMAL,,SCREENING,1,2025-03-04,-14
STUDY001,LB,STUDY001-SUBJ0005,11,L00011,HGB,Hemoglobin,HEMATOLOGY,14.54,g/dL,13.5,17.5,14.54,14.54,g/dL,13.5,17.5,NORMAL,Y,BASELINE,2,2025-03-18,1
STUDY001,LB,STUDY001-SUBJ0005,12,L00012,HCT,Hematocrit,HEMATOLOGY,44.76,%,41.0,51.0,44.76,44.76,%,41.0,51.0,NORMAL,Y,BASELINE,2,2025-03-18,1
STUDY001,LB,STUDY001-SUBJ0005,13,L00013,WBC,White Blood Cell Count,HEMATOLOGY,9.24,10^9/L,4.5,11.0,9.24,9.24,10^9/L,4.5,11.0,NORMAL,Y,BASELINE,2,2025-03-18,1
STUDY001,LB,STUDY001-SUBJ0005,14,L00014,PLT,Platelet Count,HEMATOLOGY,227.38,10^9/L,150.0,450.0,227.38,227.38,10^9/L,150.0,450.0,NORMAL,Y,BASELINE,2,2025-03-18,1
STUDY001,LB,STUDY001-SUBJ0005,15,L00015,GLUC,Glucose,CHEMISTRY,105.58,mg/dL,70.0,100.0,105.58,105.58,mg/dL,70.0,100.0,HIGH,Y,BASELINE,2,2025-03-18,1
STUDY001,LB,STUDY001-SUBJ0005,16,L00016,BUN,Blood Urea Nitrogen,CHEMISTRY,16.62,mg/dL,7.0,20.0,16.62,16.62,mg/dL,7.0,20.0,NORMAL,Y,BASELINE,2,2025-03-18,1
STUDY001,LB,STUDY001-SUBJ0005,17,L00017,CREAT,Creatinine,CHEMISTRY,1.11,mg/dL,0.6,1.2,1.11,1.11,mg/dL,0.6,1.2,NORMAL,Y,BASELINE,2,2025-03-18,1
STUDY001,LB,STUDY001-SUBJ0005,18,L00018,BILI,Total Bilirubin,CHEMISTRY,0.9,mg/dL,0.1,1.2,0.9,0.9,mg/dL,0.1,1.2,NORMAL,Y,BASELINE,2,2025-03-18,1
STUDY001,LB,STUDY001-SUBJ0005,19,L00019,ALP,Alkaline Phosphatase,CHEMISTRY,135.32,U/L,44.0,147.0,135.32,135.32,U/L,44.0,147.0,NORMAL,Y,BASELINE,2,2025-03-18,1
STUDY001,LB,STUDY001-SUBJ0005,20,L00020,ALT,Alanine Aminotransferase,CHEMISTRY,31.75,U/L,7.0,56.0,31.75,31.75,U/L,7.0,56.0,NORMAL,Y,BASELINE,2,2025-03-18,1
STUDY001,LB,STUDY001-SUBJ0005,21,L00021,HGB,Hemoglobin,HEMATOLOGY,14.58,g/dL,13.5,17.5,14.58,14.58,g/dL,13.5,17.5,NORMAL,,WEEK 1,3,2025-03-24,7
STUDY001,LB,STUDY001-SUBJ0005,22,L00022,HCT,Hematocrit,HEMATOLOGY,44.02,%,41.0,51.0,44.02,44.02,%,41.0,51.0,NORMAL,,WEEK 1,3,2025-03-24,7
STUDY001,LB,STUDY001-SUBJ0005,23,L00023,WBC,White Blood Cell Count,HEMATOLOGY,9.73,10^9/L,4.5,11.0,9.73,9.73,10^9/L,4.5,11.0,NORMAL,,WEEK 1,3,2025-03-24,7
STUDY001,LB,STUDY001-SUBJ0005,24,L00024,PLT,Platelet Count,HEMATOLOGY,221.95,10^9/L,150.0,450.0,221.95,221.95,10^9/L,150.0,450.0,NORMAL,,WEEK 1,3,2025-03-24,7
STUDY001,LB,STUDY001-SUBJ0005,25,L00025,GLUC,Glucose,CHEMISTRY,105.73,mg/dL,70.0,100.0,105.73,105.73,mg/dL,70.0,100.0,HIGH,,WEEK 1,3,2025-03-24,7
STUDY001,LB,STUDY001-SUBJ0005,26,L00026,BUN,Blood Urea Nitrogen,CHEMISTRY,16.71,mg/dL,7.0,20.0,16.71,16.71,mg/dL,7.0,20.0,NORMAL,,WEEK 1,3,2025-03-24,7
STUDY001,LB,STUDY001-SUBJ0005,27,L00027,CREAT,Creatinine,CHEMISTRY,1.1,mg/dL,0.6,1.2,1.1,1.1,mg/dL,0.6,1.2,NORMAL,,WEEK 1,3,2025-03-24,7
STUDY001,LB,STUDY001-SUBJ0005,28,L00028,BILI,Total Bilirubin,CHEMISTRY,0.92,mg/dL,0.1,1.2,0.92,0.92,mg/dL,0.1,1.2,NORMAL,,WEEK 1,3,2025-03-24,7
STUDY001,LB,STUDY001-SUBJ0005,29,L00029,ALP,Alkaline Phosphatase,CHEMISTRY,134.23,U/L,44.0,147.0,134.23,134.23,U/L,44.0,147.0,NORMAL,,WEEK 1,3,2025-03-24,7
STUDY001,LB,STUDY001-SUBJ0005,30,L00030,ALT,Alanine Aminotransferase,CHEMISTRY,27.75,U/L,7.0,56.0,27.75,27.75,U/L,7.0,56.0,NORMAL,,WEEK 1,3,2025-03-24,7
STUDY001,LB,STUDY001-SUBJ0005,31,L00031,HGB,Hemoglobin,HEMATOLOGY,14.74,g/dL,13.5,17.5,14.74,14.74,g/dL,13.5,17.5,NORMAL,,WEEK 2,4,2025-03-31,14
STUDY001,LB,STUDY001-SUBJ0005,32,L00032,HCT,Hematocrit,HEMATOLOGY,44.79,%,41.0,51.0,44.79,44.79,%,41.0,51.0,NORMAL,,WEEK 2,4,2025-03-31,14
STUDY001,LB,STUDY001-SUBJ0005,33,L00033,WBC,White Blood Cell Count,HEMATOLOGY,9.16,10^9/L,4.5,11.0,9.16,9.16,10^9/L,4.5,11.0,NORMAL,,WEEK 2,4,2025-03-31,14
STUDY001,LB,STUDY001-SUBJ0005,34,L00034,PLT,Platelet Count,HEMATOLOGY,222.07,10^9/L,150.0,450.0,222.07,222.07,10^9/L,150.0,450.0,NORMAL,,WEEK 2,4,2025-03-31,14
STUDY001,LB,STUDY001-SUBJ0005,35,L00035,GLUC,Glucose,CHEMISTRY,104.86,mg/dL,70.0,100.0,104.86,104.86,mg/dL,70.0,100.0,HIGH,,WEEK 2,4,2025-03-31,14
STUDY001,LB,STUDY001-SUBJ0005,36,L00036,BUN,Blood Urea Nitrogen,CHEMISTRY,16.81,mg/dL,7.0,20.0,16.81,16.81,mg/dL,7.0,20.0,NORMAL,,WEEK 2,4,2025-03-31,14
STUDY001,LB,STUDY001-SUBJ0005,37,L00037,CREAT,Creatinine,CHEMISTRY,1.12,mg/dL,0.6,1.2,1.12,1.12,mg/dL,0.6,1.2,NORMAL,,WEEK 2,4,2025-03-31,14
STUDY001,LB,STUDY001-SUBJ0005,38,L00038,BILI,Total Bilirubin,CHEMISTRY,0.9,mg/dL,0.1,1.2,0.9,0.9,mg/dL,0.1,1.2,NORMAL,,WEEK 2,4,2025-03-31,14
STUDY001,LB,STUDY001-SUBJ0005,39,L00039,ALP,Alkaline Phosphatase,CHEMISTRY,134.65,U/L,44.0,147.0,134.65,134.65,U/L,44.0,147.0,NORMAL,,WEEK 2,4,2025-03-31,14
STUDY001,LB,STUDY001-SUBJ0005,40,L00040,ALT,Alanine Aminotransferase,CHEMISTRY,28.3,U/L,7.0,56.0,28.3,28.3,U/L,7.0,56.0,NORMAL,,WEEK 2,4,2025-03-31,14
STUDY001,LB,STUDY001-SUBJ0005,41,L00041,HGB,Hemoglobin,HEMATOLOGY,14.51,g/dL,13.5,17.5,14.51,14.51,g/dL,13.5,17.5,NORMAL,,WEEK 4,5,2025-04-14,28
STUDY001,LB,STUDY001-SUBJ0005,42,L00042,HCT,Hematocrit,HEMATOLOGY,44.5,%,41.0,51.0,44.5,44.5,%,41.0,51.0,NORMAL,,WEEK 4,5,2025-04-14,28
STUDY001,LB,STUDY001-SUBJ0005,43,L00043,WBC,White Blood Cell Count,HEMATOLOGY,9.31,10^9/L,4.5,11.0,9.31,9.31,10^9/L,4.5,11.0,NORMAL,,WEEK 4,5,2025-04-14,28
STUDY001,LB,STUDY001-SUBJ0005,44,L00044,PLT,Platelet Count,HEMATOLOGY,216.4,10^9/L,150.0,450.0,216.4,216.4,10^9/L,150.0,450.0,NORMAL,,WEEK 4,5,2025-04-14,28
STUDY001,LB,STUDY001-SUBJ0005,45,L00045,GLUC,Glucose,CHEMISTRY,105.14,mg/dL,70.0,100.0,105.14,105.14,mg/dL,70.0,100.0,HIGH,,WEEK 4,5,2025-04-14,28
STUDY001,LB,STUDY001-SUBJ0005,46,L00046,BUN,Blood Urea Nitrogen,CHEMISTRY,17.41,mg/dL,7.0,20.0,17.41,17.41,mg/dL,7.0,20.0,NORMAL,,WEEK 4,5,2025-04-14,28
STUDY001,LB,STUDY001-SUBJ0005,47,L00047,CREAT,Creatinine,CHEMISTRY,1.1,mg/dL,0.6,1.2,1.1,1.1,mg/dL,0.6,1.2,NORMAL,,WEEK 4,5,2025-04-14,28
STUDY001,LB,STUDY001-SUBJ0005,48,L00048,BILI,Total Bilirubin,CHEMISTRY,0.93,mg/dL,0.1,1.2,0.93,0.93,mg/dL,0.1,1.2,NORMAL,,WEEK 4,5,2025-04-14,28
STUDY001,LB,STUDY001-SUBJ0005,49,L00049,ALP,Alkaline Phosphatase,CHEMISTRY,132.28,U/L,44.0,147.0,132.28,132.28,U/L,44.0,147.0,NORMAL,,WEEK 4,5,2025-04-14,28
STUDY001,LB,STUDY001-SUBJ0005,50,L00050,ALT,Alanine Aminotransferase,CHEMISTRY,29.57,U/L,7.0,56.0,29.57,29.57,U/L,7.0,56.0,NORMAL,,WEEK 4,5,2025-04-14,28
STUDY001,LB,STUDY001-SUBJ0005,51,L00051,HGB,Hemoglobin,HEMATOLOGY,14.72,g/dL,13.5,17.5,14.72,14.72,g/dL,13.5,17.5,NORMAL,,WEEK 8,6,2025-05-12,56
STUDY001,LB,STUDY001-SUBJ0005,52,L00052,HCT,Hematocrit,HEMATOLOGY,44.88,%,41.0,51.0,44.88,44.88,%,41.0,51.0,NORMAL,,WEEK 8,6,2025-05-12,56
STUDY001,LB,STUDY001-SUBJ0005,53,L00053,WBC,White Blood Cell Count,HEMATOLOGY,9.23,10^9/L,4.5,11.0,9.23,9.23,10^9/L,4.5,11.0,NORMAL,,WEEK 8,6,2025-05-12,56
STUDY001,LB,STUDY001-SUBJ0005,54,L00054,PLT,Platelet Count,HEMATOLOGY,225.3,10^9/L,150.0,450.0,225.3,225.3,10^9/L,150.0,450.0,NORMAL,,WEEK 8,6,2025-05-12,56
STUDY001,LB,STUDY001-SUBJ0005,55,L00055,GLUC,Glucose,CHEMISTRY,103.96,mg/dL,70.0,100.0,103.96,103.96,mg/dL,70.0,100.0,HIGH,,WEEK 8,6,2025-05-12,56
STUDY001,LB,STUDY001-SUBJ0005,56,L00056,BUN,Blood Urea Nitrogen,CHEMISTRY,17.01,mg/dL,7.0,20.0,17.01,17.01,mg/dL,7.0,20.0,NORMAL,,WEEK 8,6,2025-05-12,56
STUDY001,LB,STUDY001-SUBJ0005,57,L00057,CREAT,Creatinine,CHEMISTRY,1.09,mg/dL,0.6,1.2,1.09,1.09,mg/dL,0.6,1.2,NORMAL,,WEEK 8,6,2025-05-12,56
STUDY001,LB,STUDY001-SUBJ0005,58,L00058,BILI,Total Bilirubin,CHEMISTRY,0.9,mg/dL,0.1,1.2,0.9,0.9,mg/dL,0.1,1.2,NORMAL,,WEEK 8,6,2025-05-12,56
STUDY001,LB,STUDY001-SUBJ0005,59,L00059,ALP,Alkaline Phosphatase,CHEMISTRY,131.24,U/L,44.0,147.0,131.24,131.24,U/L,44.0,147.0,NORMAL,,WEEK 8,6,2025-05-12,56
STUDY001,LB,STUDY001-SUBJ0005,60,L00060,ALT,Alanine Aminotransferase,CHEMISTRY,29.84,U/L,7.0,56.0,29.84,29.84,U/L,7.0,56.0,NORMAL,,WEEK 8,6,2025-05-12,56
STUDY001,LB,STUDY001-SUBJ0005,61,L00061,HGB,Hemoglobin,HEMATOLOGY,14.47,g/dL,13.5,17.5,14.47,14.47,g/dL,13.5,17.5,NORMAL,,WEEK 12,7,2025-06-09,84
STUDY001,LB,STUDY001-SUBJ0005,62,L00062,HCT,Hematocrit,HEMATOLOGY,44.47,%,41.0,51.0,44.47,44.47,%,41.0,51.0,NORMAL,,WEEK 12,7,2025-06-09,84
STUDY001,LB,STUDY001-SUBJ0005,63,L00063,WBC,White Blood Cell Count,HEMATOLOGY,9.15,10^9/L,4.5,11.0,9.15,9.15,10^9/L,4.5,11.0,NORMAL,,WEEK 12,7,2025-06-09,84
STUDY001,LB,STUDY001-SUBJ0005,64,L00064,PLT,Platelet Count,HEMATOLOGY,220.02,10^9/L,150.0,450.0,220.02,220.02,10^9/L,150.0,450.0,NORMAL,,WEEK 12,7,2025-06-09,84
STUDY001,LB,STUDY001-SUBJ0005,65,L00065,GLUC,Glucose,CHEMISTRY,105.1,mg/dL,70.0,100.0,105.1,105.1,mg/dL,70.0,100.0,HIGH,,WEEK 12,7,2025-06-09,84
STUDY001,LB,STUDY001-SUBJ0005,66,L00066,BUN,Blood Urea Nitrogen,CHEMISTRY,16.77,mg/dL,7.0,20.0,16.77,16.77,mg/dL,7.0,20.0,NORMAL,,WEEK 12,7,2025-06-09,84
STUDY001,LB,STUDY001-SUBJ0005,67,L00067,CREAT,Creatinine,CHEMISTRY,1.13,mg/dL,0.6,1.2,1.13,1.13,mg/dL,0.6,1.2,NORMAL,,WEEK 12,7,2025-06-09,84
STUDY001,LB,STUDY001-SUBJ0005,68,L00068,BILI,Total Bilirubin,CHEMISTRY,0.89,mg/dL,0.1,1.2,0.89,0.89,mg/dL,0.1,1.2,NORMAL,,WEEK 12,7,2025-06-09,84
STUDY001,LB,STUDY001-SUBJ0005,69,L00069,ALP,Alkaline Phosphatase,CHEMISTRY,134.07,U/L,44.0,147.0,134.07,134.07,U/L,44.0,147.0,NORMAL,,WEEK 12,7,2025-06-09,84
STUDY001,LB,STUDY001-SUBJ0005,70,L00070,ALT,Alanine Aminotransferase,CHEMISTRY,27.85,U/L,7.0,56.0,27.85,27.85,U/L,7.0,56.0,NORMAL,,WEEK 12,7,2025-06-09,84
STUDY001,LB,STUDY001-SUBJ0005,71,L00071,HGB,Hemoglobin,HEMATOLOGY,14.72,g/dL,13.5,17.5,14.72,14.72,g/dL,13.5,17.5,NORMAL,,WEEK 16,8,2025-07-07,112
STUDY001,LB,STUDY001-SUBJ0005,72,L00072,HCT,Hematocrit,HEMATOLOGY,44.54,%,41.0,51.0,44.54,44.54,%,41.0,51.0,NORMAL,,WEEK 16,8,2025-07-07,112
STUDY001,LB,STUDY001-SUBJ0005,73,L00073,WBC,White Blood Cell Count,HEMATOLOGY,9.43,10^9/L,4.5,11.0,9.43,9.43,10^9/L,4.5,11.0,NORMAL,,WEEK 16,8,2025-07-07,112
STUDY001,LB,STUDY001-SUBJ0005,74,L00074,PLT,Platelet Count,HEMATOLOGY,232.45,10^9/L,150.0,450.0,232.45,232.45,10^9/L,150.0,450.0,NORMAL,,WEEK 16,8,2025-07-07,112
STUDY001,LB,STUDY001-SUBJ0005,75,L00075,GLUC,Glucose,CHEMISTRY,103.79,mg/dL,70.0,100.0,103.79,103.79,mg/dL,70.0,100.0,HIGH,,WEEK 16,8,2025-07-07,112
STUDY001,LB,STUDY001-SUBJ0005,76,L00076,BUN,Blood Urea Nitrogen,CHEMISTRY,16.35,mg/dL,7.0,20.0,16.35,16.35,mg/dL,7.0,20.0,NORMAL,,WEEK 16,8,2025-07-07,112
STUDY001,LB,STUDY001-SUBJ0005,77,L00077,CREAT,Creatinine,CHEMISTRY,1.11,mg/dL,0.6,1.2,1.11,1.11,mg/dL,0.6,1.2,NORMAL,,WEEK 16,8,2025-07-07,112
STUDY001,LB,STUDY001-SUBJ0005,78,L00078,BILI,Total Bilirubin,CHEMISTRY,0.91,mg/dL,0.1,1.2,0.91,0.91,mg/dL,0.1,1.2,NORMAL,,WEEK 16,8,2025-07-07,112
STUDY001,LB,STUDY001-SUBJ0005,79,L00079,ALP,Alkaline Phosphatase,CHEMISTRY,138.55,U/L,44.0,147.0,138.55,138.55,U/L,44.0,147.0,NORMAL,,WEEK 16,8,2025-07-07,112
STUDY001,LB,STUDY001-SUBJ0005,80,L00080,ALT,Alanine Aminotransferase,CHEMISTRY,30.9,U/L,7.0,56.0,30.9,30.9,U/L,7.0,56.0,NORMAL,,WEEK 16,8,2025-07-07,112
STUDY001,LB,STUDY001-SUBJ0005,81,L00081,HGB,Hemoglobin,HEMATOLOGY,14.59,g/dL,13.5,17.5,14.59,14.59,g/dL,13.5,17.5,NORMAL,,END OF TREATMENT,9,2025-08-04,140
STUDY001,LB,STUDY001-SUBJ0005,82,L00082,HCT,Hematocrit,HEMATOLOGY,44.66,%,41.0,51.0,44.66,44.66,%,41.0,51.0,NORMAL,,END OF TREATMENT,9,2025-08-04,140
STUDY001,LB,STUDY001-SUBJ0005,83,L00083,WBC,White Blood Cell Count,HEMATOLOGY,8.96,10^9/L,4.5,11.0,8.96,8.96,10^9/L,4.5,11.0,NORMAL,,END OF TREATMENT,9,2025-08-04,140
STUDY001,LB,STUDY001-SUBJ0005,84,L00084,PLT,Platelet Count,HEMATOLOGY,224.06,10^9/L,150.0,450.0,224.06,224.06,10^9/L,150.0,450.0,NORMAL,,END OF TREATMENT,9,2025-08-04,140
STUDY001,LB,STUDY001-SUBJ0005,85,L00085,GLUC,Glucose,CHEMISTRY,105.25,mg/dL,70.0,100.0,105.25,105.25,mg/dL,70.0,100.0,HIGH,,END OF TREATMENT,9,2025-08-04,140
STUDY001,LB,STUDY001-SUBJ0005,86,L00086,BUN,Blood Urea Nitrogen,CHEMISTRY,17.03,mg/dL,7.0,20.0,17.03,17.03,mg/dL,7.0,20.0,NORMAL,,END OF TREATMENT,9,2025-08-04,140
STUDY001,LB,STUDY001-SUBJ0005,87,L00087,CREAT,Creatinine,CHEMISTRY,1.09,mg/dL,0.6,1.2,1.09,1.09,mg/dL,0.6,1.2,NORMAL,,END OF TREATMENT,9,2025-08-04,140
STUDY001,LB,STUDY001-SUBJ0005,88,L00088,BILI,Total Bilirubin,CHEMISTRY,0.93,mg/dL,0.1,1.2,0.93,0.93,mg/dL,0.1,1.2,NORMAL,,END OF TREATMENT,9,2025-08-04,140
STUDY001,LB,STUDY001-SUBJ0005,89,L00089,ALP,Alkaline Phosphatase,CHEMISTRY,136.11,U/L,44.0,147.0,136.11,136.11,U/L,44.0,147.0,NORMAL,,END OF TREATMENT,9,2025-08-04,140
STUDY001,LB,STUDY001-SUBJ0005,90,L00090,ALT,Alanine Aminotransferase,CHEMISTRY,29.83,U/L,7.0,56.0,29.83,29.83,U/L,7.0,56.0,NORMAL,,END OF TREATMENT,9,2025-08-04,140
STUDY001,LB,STUDY001-SUBJ0006,1,L00001,HGB,Hemoglobin,HEMATOLOGY,15.68,g/dL,13.5,17.5,15.68,15.68,g/dL,13.5,17.5,NORMAL,,SCREENING,1,2025-06-03,-14
STUDY001,LB,STUDY001-SUBJ0006,2,L00002,HCT,Hematocrit,HEMATOLOGY,45.35,%,41.0,51.0,45.35,45.35,%,41.0,51.0,NORMAL,,SCREENING,1,2025-06-03,-14
STUDY001,LB,STUDY001-SUBJ0006,3,L00003,WBC,White Blood Cell Count,HEMATOLOGY,5.28,10^9/L,4.5,11.0,5.28,5.28,10^9/L,4.5,11.0,NORMAL,,SCREENING,1,2025-06-03,-14
STUDY001,LB,STUDY001-SUBJ0006,4,L00004,PLT,Platelet Count,HEMATOLOGY,193.75,10^9/L,150.0,450.0,193.75,193.75,10^9/L,150.0,450.0,NORMAL,,SCREENING,1,2025-06-03,-14
STUDY001,LB,STUDY001-SUBJ0006,5,L00005,GLUC,Glucose,CHEMISTRY,80.16,mg/dL,70.0,100.0,80.16,80.16,mg/dL,70.0,100.0,NORMAL,,SCREENING,1,2025-06-03,-14
STUDY001,LB,STUDY001-SUBJ0006,6,L00006,BUN,Blood Urea Nitrogen,CHEMISTRY,15.4,mg/dL,7.0,20.0,15.4,15.4,mg/dL,7.0,20.0,NORMAL,,SCREENING,1,2025-06-03,-14
STUDY001,LB,STUDY001-SUBJ0006,7,L00007,CREAT,Creatinine,CHEMISTRY,0.83,mg/dL,0.6,1.2,0.83,0.83,mg/dL,0.6,1.2,NORMAL,,SCREENING,1,2025-06-03,-14
STUDY001,LB,STUDY001-SUBJ0006,8,L00008,BILI,Total Bilirubin,CHEMISTRY,0.85,mg/dL,0.1,1.2,0.85,0.85,mg/dL,0.1,1.2,NORMAL,,SCREENING,1,2025-06-03,-14
STUDY001,LB,STUDY001-SUBJ0006,9,L00009,ALP,Alkaline Phosphatase,CHEMISTRY,121.15,U/L,44.0,147.0,121.15,121.15,U/L,44.0,147.0,NORMAL,,SCREENING,1,2025-06-03,-14
STUDY001,LB,STUDY001-SUBJ0006,10,L00010,ALT,Alanine Aminotransferase,CHEMISTRY,37.38,U/L,7.0,56.0,37.38,37.38,U/L,7.0,56.0,NORMAL,,SCREENING,1,2025-06-03,-14
STUDY001,LB,STUDY001-SUBJ0006,11,L00011,HGB,Hemoglobin,HEMATOLOGY,15.67,g/dL,13.5,17.5,15.67,15.67,g/dL,13.5,17.5,NORMAL,Y,BASELINE,2,2025-06-17,1
STUDY001,LB,STUDY001-SUBJ0006,12,L00012,HCT,Hematocrit,HEMATOLOGY,44.86,%,41.0,51.0,44.86,44.86,%,41.0,51.0,NORMAL,Y,BASELINE,2,2025-06-17,1
STUDY001,LB,STUDY001-SUBJ0006,13,L00013,WBC,White Blood Cell Count,HEMATOLOGY,5.56,10^9/L,4.5,11.0,5.56,5.56,10^9/L,4.5,11.0,NORMAL,Y,BASELINE,2,2025-06-17,1
STUDY001,LB,STUDY001-SUBJ0006,14,L00014,PLT,Platelet Count,HEMATOLOGY,204.97,10^9/L,150.0,450.0,204.97,204.97,10^9/L,150.0,450.0,NORMAL,Y,BASELINE,2,2025-06-17,1
STUDY001,LB,STUDY001-SUBJ0006,15,L00015,GLUC,Glucose,CHEMISTRY,79.01,mg/dL,70.0,100.0,79.01,79.01,mg/dL,70.0,100.0,NORMAL,Y,BASELINE,2,2025-06-17,1
STUDY001,LB,STUDY001-SUBJ0006,16,L00016,BUN,Blood Urea Nitrogen,CHEMISTRY,15.15,mg/dL,7.0,20.0,15.15,15.15,mg/dL,7.0,20.0,NORMAL,Y,BASELINE,2,2025-06-17,1
STUDY001,LB,STUDY001-SUBJ0006,17,L00017,CREAT,Creatinine,CHEMISTRY,0.83,mg/dL,0.6,1.2,0.83,0.83,mg/dL,0.6,1.2,NORMAL,Y,BASELINE,2,2025-06-17,1
STUDY001,LB,STUDY001-SUBJ0006,18,L00018,BILI,Total Bilirubin,CHEMISTRY,0.85,mg/dL,0.1,1.2,0.85,0.85,mg/dL,0.1,1.2,NORMAL,Y,BASELINE,2,2025-06-17,1
STUDY001,LB,STUDY001-SUBJ0006,19,L00019,ALP,Alkaline Phosphatase,CHEMISTRY,120.47,U/L,44.0,147.0,120.47,120.47,U/L,44.0,147.0,NORMAL,Y,BASELINE,2,2025-06-17,1
STUDY001,LB,STUDY001-SUBJ0006,20,L00020,ALT,Alanine Aminotransferase,CHEMISTRY,36.67,U/L,7.0,56.0,36.67,36.67,U/L,7.0,56.0,NORMAL,Y,BASELINE,2,2025-06-17,1
STUDY001,LB,STUDY001-SUBJ0006,21,L00021,HGB,Hemoglobin,HEMATOLOGY,15.4,g/dL,13.5,17.5,15.4,15.4,g/dL,13.5,17.5,NORMAL,,WEEK 1,3,2025-06-23,7
STUDY001,LB,STUDY001-SUBJ0006,22,L00022,HCT,Hematocrit,HEMATOLOGY,44.97,%,41.0,51.0,44.97,44.97,%,41.0,51.0,NORMAL,,WEEK 1,3,2025-06-23,7
STUDY001,LB,STUDY001-SUBJ0006,23,L00023,WBC,White Blood Cell Count,HEMATOLOGY,5.12,10^9/L,4.5,11.0,5.12,5.12,10^9/L,4.5,11.0,NORMAL,,WEEK 1,3,2025-06-23,7
STUDY001,LB,STUDY001-SUBJ0006,24,L00024,PLT,Platelet Count,HEMATOLOGY,188.16,10^9/L,150.0,450.0,188.16,188.16,10^9/L,150.0,450.0,NORMAL,,WEEK 1,3,2025-06-23,7
STUDY001,LB,STUDY001-SUBJ0006,25,L00025,GLUC,Glucose,CHEMISTRY,79.41,mg/dL,70.0,100.0,79.41,79.41,mg/dL,70.0,100.0,NORMAL,,WEEK 1,3,2025-06-23,7
STUDY001,LB,STUDY001-SUBJ0006,26,L00026,BUN,Blood Urea Nitrogen,CHEMISTRY,15.47,mg/dL,7.0,20.0,15.47,15.47,mg/dL,7.0,20.0,NORMAL,,WEEK 1,3,2025-06-23,7
STUDY001,LB,STUDY001-SUBJ0006,27,L00027,CREAT,Creatinine,CHEMISTRY,0.81,mg/dL,0.6,1.2,0.81,0.81,mg/dL,0.6,1.2,NORMAL,,WEEK 1,3,2025-06-23,7
STUDY001,LB,STUDY001-SUBJ0006,28,L00028,BILI,Total Bilirubin,CHEMISTRY,0.85,mg/dL,0.1,1.2,0.85,0.85,mg/dL,0.1,1.2,NORMAL,,WEEK 1,3,2025-06-23,7
STUDY001,LB,STUDY001-SUBJ0006,29,L00029,ALP,Alkaline Phosphatase,CHEMISTRY,123.44,U/L,44.0,147.0,123.44,123.44,U/L,44.0,147.0,NORMAL,,WEEK 1,3,2025-06-23,7
STUDY001,LB,STUDY001-SUBJ0006,30,L00030,ALT,Alanine Aminotransferase,CHEMISTRY,37.6,U/L,7.0,56.0,37.6,37.6,U/L,7.0,56.0,NORMAL,,WEEK 1,3,2025-06-23,7
STUDY001,LB,STUDY001-SUBJ0006,31,L00031,HGB,Hemoglobin,HEMATOLOGY,15.75,g/dL,13.5,17.5,15.75,15.75,g/dL,13.5,17.5,NORMAL,,WEEK 2,4,2025-06-30,14
STUDY001,LB,STUDY001-SUBJ0006,32,L00032,HCT,Hematocrit,HEMATOLOGY,44.92,%,41.0,51.0,44.92,44.92,%,41.0,51.0,NORMAL,,WEEK 2,4,2025-06-30,14
STUDY001,LB,STUDY001-SUBJ0006,33,L00033,WBC,White Blood Cell Count,HEMATOLOGY,4.92,10^9/L,4.5,11.0,4.92,4.92,10^9/L,4.5,11.0,NORMAL,,WEEK 2,4,2025-06-30,14
STUDY001,LB,STUDY001-SUBJ0006,34,L00034,PLT,Platelet Count,HEMATOLOGY,197.64,10^9/L,150.0,450.0,197.64,197.64,10^9/L,150.0,450.0,NORMAL,,WEEK 2,4,2025-06-30,14
STUDY001,LB,STUDY001-SUBJ0006,35,L00035,GLUC,Glucose,CHEMISTRY,78.22,mg/dL,70.0,100.0,78.22,78.22,mg/dL,70.0,100.0,NORMAL,,WEEK 2,4,2025-06-30,14
STUDY001,LB,STUDY001-SUBJ0006,36,L00036,BUN,Blood Urea Nitrogen,CHEMISTRY,15.11,mg/dL,7.0,20.0,15.11,15.11,mg/dL,7.0,20.0,NORMAL,,WEEK 2,4,2025-06-30,14
STUDY001,LB,STUDY001-SUBJ0006,37,L00037,CREAT,Creatinine,CHEMISTRY,0.81,mg/dL,0.6,1.2,0.81,0.81,mg/dL,0.6,1.2,NORMAL,,WEEK 2,4,2025-06-30,14
STUDY001,LB,STUDY001-SUBJ0006,38,L00038,BILI,Total Bilirubin,CHEMISTRY,0.84,mg/dL,0.1,1.2,0.84,0.84,mg/dL,0.1,1.2,NORMAL,,WEEK 2,4,2025-06-30,14
STUDY001,LB,STUDY001-SUBJ0006,39,L00039,ALP,Alkaline Phosphatase,CHEMISTRY,119.71,U/L,44.0,147.0,119.71,119.71,U/L,44.0,147.0,NORMAL,,WEEK 2,4,2025-06-30,14
STUDY001,LB,STUDY001-SUBJ0006,40,L00040,ALT,Alanine Aminotransferase,CHEMISTRY,37.55,U/L,7.0,56.0,37.55,37.55,U/L,7.0,56.0,NORMAL,,WEEK 2,4,2025-06-30,14
STUDY001,LB,STUDY001-SUBJ0006,41,L00041,HGB,Hemoglobin,HEMATOLOGY,15.72,g/dL,13.5,17.5,15.72,15.72,g/dL,13.5,17.5,NORMAL,,WEEK 4,5,2025-07-14,28
STUDY001,LB,STUDY001-SUBJ0006,42,L00042,HCT,Hematocrit,HEMATOLOGY,45.62,%,41.0,51.0,45.62,45.62,%,41.0,51.0,NORMAL,,WEEK 4,5,2025-07-14,28
STUDY001,LB,STUDY001-SUBJ0006,43,L00043,WBC,White Blood Cell Count,HEMATOLOGY,5.28,10^9/L,4.5,11.0,5.28,5.28,10^9/L,4.5,11.0,NORMAL,,WEEK 4,5,2025-07-14,28
STUDY001,LB,STUDY001-SUBJ0006,44,L00044,PLT,Platelet Count,HEMATOLOGY,200.08,10^9/L,150.0,450.0,200.08,200.08,10^9/L,150.0,450.0,NORMAL,,WEEK 4,5,2025-07-14,28
STUDY001,LB,STUDY001-SUBJ0006,45,L00045,GLUC,Glucose,CHEMISTRY,79.09,mg/dL,70.0,100.0,79.09,79.09,mg/dL,70.0,100.0,NORMAL,,WEEK 4,5,2025-07-14,28
STUDY001,LB,STUDY001-SUBJ0006,46,L00046,BUN,Blood Urea Nitrogen,CHEMISTRY,16.08,mg/dL,7.0,20.0,16.08,16.08,mg/dL,7.0,20.0,NORMAL,,WEEK 4,5,2025-07-14,28
STUDY001,LB,STUDY001-SUBJ0006,47,L00047,CREAT,Creatinine,CHEMISTRY,0.83,mg/dL,0.6,1.2,0.83,0.83,mg/dL,0.6,1.2,NORMAL,,WEEK 4,5,2025-07-14,28
STUDY001,LB,STUDY001-SUBJ0006,48,L00048,BILI,Total Bilirubin,CHEMISTRY,0.84,mg/dL,0.1,1.2,0.84,0.84,mg/dL,0.1,1.2,NORMAL,,WEEK 4,5,2025-07-14,28
STUDY001,LB,STUDY001-SUBJ0006,49,L00049,ALP,Alkaline Phosphatase,CHEMISTRY,123.86,U/L,44.0,147.0,123.86,123.86,U/L,44.0,147.0,NORMAL,,WEEK 4,5,2025-07-14,28
STUDY001,LB,STUDY001-SUBJ0006,50,L00050,ALT,Alanine Aminotransferase,CHEMISTRY,37.96,U/L,7.0,56.0,37.96,37.96,U/L,7.0,56.0,NORMAL,,WEEK 4,5,2025-07-14,28
STUDY001,LB,STUDY001-SUBJ0006,51,L00051,HGB,Hemoglobin,HEMATOLOGY,15.52,g/dL,13.5,17.5,15.52,15.52,g/dL,13.5,17.5,NORMAL,,WEEK 8,6,2025-08-11,56
STUDY001,LB,STUDY001-SUBJ0006,52,L00052,HCT,Hematocrit,HEMATOLOGY,44.71,%,41.0,51.0,44.71,44.71,%,41.0,51.0,NORMAL,,WEEK 8,6,2025-08-11,56
STUDY001,LB,STUDY001-SUBJ0006,53,L00053,WBC,White Blood Cell Count,HEMATOLOGY,5.25,10^9/L,4.5,11.0,5.25,5.25,10^9/L,4.5,11.0,NORMAL,,WEEK 8,6,2025-08-11,56
STUDY001,LB,STUDY001-SUBJ0006,54,L00054,PLT,Platelet Count,HEMATOLOGY,193.76,10^9/L,150.0,450.0,193.76,193.76,10^9/L,150.0,450.0,NORMAL,,WEEK 8,6,2025-08-11,56
STUDY001,LB,STUDY001-SUBJ0006,55,L00055,GLUC,Glucose,CHEMISTRY,78.51,mg/dL,70.0,100.0,78.51,78.51,mg/dL,70.0,100.0,NORMAL,,WEEK 8,6,2025-08-11,56
STUDY001,LB,STUDY001-SUBJ0006,56,L00056,BUN,Blood Urea Nitrogen,CHEMISTRY,15.72,mg/dL,7.0,20.0,15.72,15.72,mg/dL,7.0,20.0,NORMAL,,WEEK 8,6,2025-08-11,56
STUDY001,LB,STUDY001-SUBJ0006,57,L00057,CREAT,Creatinine,CHEMISTRY,0.84,mg/dL,0.6,1.2,0.84,0.84,mg/dL,0.6,1.2,NORMAL,,WEEK 8,6,2025-08-11,56
STUDY001,LB,STUDY001-SUBJ0006,58,L00058,BILI,Total Bilirubin,CHEMISTRY,0.83,mg/dL,0.1,1.2,0.83,0.83,mg/dL,0.1,1.2,NORMAL,,WEEK 8,6,2025-08-11,56
STUDY001,LB,STUDY001-SUBJ0006,59,L00059,ALP,Alkaline Phosphatase,CHEMISTRY,124.18,U/L,44.0,147.0,124.18,124.18,U/L,44.0,147.0,NORMAL,,WEEK 8,6,2025-08-11,56
STUDY001,LB,STUDY001-SUBJ0006,60,L00060,ALT,Alanine Aminotransferase,CHEMISTRY,36.45,U/L,7.0,56.0,36.45,36.45,U/L,7.0,56.0,NORMAL,,WEEK 8,6,2025-08-11,56
STUDY001,LB,STUDY001-SUBJ0006,61,L00061,HGB,Hemoglobin,HEMATOLOGY,15.53,g/dL,13.5,17.5,15.53,15.53,g/dL,13.5,17.5,NORMAL,,WEEK 12,7,2025-09-08,84
STUDY001,LB,STUDY001-SUBJ0006,62,L00062,HCT,Hematocrit,HEMATOLOGY,45.51,%,41.0,51.0,45.51,45.51,%,41.0,51.0,NORMAL,,WEEK 12,7,2025-09-08,84
STUDY001,LB,STUDY001-SUBJ0006,63,L00063,WBC,White Blood Cell Count,HEMATOLOGY,5.14,10^9/L,4.5,11.0,5.14,5.14,10^9/L,4.5,11.0,NORMAL,,WEEK 12,7,2025-09-08,84
STUDY001,LB,STUDY001-SUBJ0006,64,L00064,PLT,Platelet Count,HEMATOLOGY,196.18,10^9/L,150.0,450.0,196.18,196.18,10^9/L,150.0,450.0,NORMAL,,WEEK 12,7,2025-09-08,84
STUDY001,LB,STUDY001-SUBJ0006,65,L00065,GLUC,Glucose,CHEMISTRY,81.31,mg/dL,70.0,100.0,81.31,81.31,mg/dL,70.0,100.0,NORMAL,,WEEK 12,7,2025-09-08,84
STUDY001,LB,STUDY001-SUBJ0006,66,L00066,BUN,Blood Urea Nitrogen,CHEMISTRY,15.84,mg/dL,7.0,20.0,15.84,15.84,mg/dL,7.0,20.0,NORMAL,,WEEK 12,7,2025-09-08,84
STUDY001,LB,STUDY001-SUBJ0006,67,L00067,CREAT,Creatinine,CHEMISTRY,0.81,mg/dL,0.6,1.2,0.81,0.81,mg/dL,0.6,1.2,NORMAL,,WEEK 12,7,2025-09-08,84
STUDY001,LB,STUDY001-SUBJ0006,68,L00068,BILI,Total Bilirubin,CHEMISTRY,0.81,mg/dL,0.1,1.2,0.81,0.81,mg/dL,0.1,1.2,NORMAL,,WEEK 12,7,2025-09-08,84
STUDY001,LB,STUDY001-SUBJ0006,69,L00069,ALP,Alkaline Phosphatase,CHEMISTRY,122.66,U/L,44.0,147.0,122.66,122.66,U/L,44.0,147.0,NORMAL,,WEEK 12,7,2025-09-08,84
STUDY001,LB,STUDY001-SUBJ0006,70,L00070,ALT,Alanine Aminotransferase,CHEMISTRY,36.11,U/L,7.0,56.0,36.11,36.11,U/L,7.0,56.0,NORMAL,,WEEK 12,7,2025-09-08,84
STUDY001,LB,STUDY001-SUBJ0006,71,L00071,HGB,Hemoglobin,HEMATOLOGY,15.88,g/dL,13.5,17.5,15.88,15.88,g/dL,13.5,17.5,NORMAL,,WEEK 16,8,2025-10-06,112
STUDY001,LB,STUDY001-SUBJ0006,72,L00072,HCT,Hematocrit,HEMATOLOGY,44.54,%,41.0,51.0,44.54,44.54,%,41.0,51.0,NORMAL,,WEEK 16,8,2025-10-06,112
STUDY001,LB,STUDY001-SUBJ0006,73,L00073,WBC,White Blood Cell Count,HEMATOLOGY,4.81,10^9/L,4.5,11.0,4.81,4.81,10^9/L,4.5,11.0,NORMAL,,WEEK 16,8,2025-10-06,112
STUDY001,LB,STUDY001-SUBJ0006,74,L00074,PLT,Platelet Count,HEMATOLOGY,186.38,10^9/L,150.0,450.0,186.38,186.38,10^9/L,150.0,450.0,NORMAL,,WEEK 16,8,2025-10-06,112
STUDY001,LB,STUDY001-SUBJ0006,75,L00075,GLUC,Glucose,CHEMISTRY,79.6,mg/dL,70.0,100.0,79.6,79.6,mg/dL,70.0,100.0,NORMAL,,WEEK 16,8,2025-10-06,112
STUDY001,LB,STUDY001-SUBJ0006,76,L00076,BUN,Blood Urea Nitrogen,CHEMISTRY,15.42,mg/dL,7.0,20.0,15.42,15.42,mg/dL,7.0,20.0,NORMAL,,WEEK 16,8,2025-10-06,112
STUDY001,LB,STUDY001-SUBJ0006,77,L00077,CREAT,Creatinine,CHEMISTRY,0.84,mg/dL,0.6,1.2,0.84,0.84,mg/dL,0.6,1.2,NORMAL,,WEEK 16,8,2025-10-06,112
STUDY001,LB,STUDY001-SUBJ0006,78,L00078,BILI,Total Bilirubin,CHEMISTRY,0.84,mg/dL,0.1,1.2,0.84,0.84,mg/dL,0.1,1.2,NORMAL,,WEEK 16,8,2025-10-06,112
STUDY001,LB,STUDY001-SUBJ0006,79,L00079,ALP,Alkaline Phosphatase,CHEMISTRY,119.56,U/L,44.0,147.0,119.56,119.56,U/L,44.0,147.0,NORMAL,,WEEK 16,8,2025-10-06,112
STUDY001,LB,STUDY001-SUBJ0006,80,L00080,ALT,Alanine Aminotransferase,CHEMISTRY,34.13,U/L,7.0,56.0,34.13,34.13,U/L,7.0,56.0,NORMAL,,WEEK 16,8,2025-10-06,112
STUDY001,LB,STUDY001-SUBJ0006,81,L00081,HGB,Hemoglobin,HEMATOLOGY,15.83,g/dL,13.5,17.5,15.83,15.83,g/dL,13.5,17.5,NORMAL,,END OF TREATMENT,9,2025-11-03,140
STUDY001,LB,STUDY001-SUBJ0006,82,L00082,HCT,Hematocrit,HEMATOLOGY,45.28,%,41.0,51.0,45.28,45.28,%,41.0,51.0,NORMAL,,END OF TREATMENT,9,2025-11-03,140
STUDY001,LB,STUDY001-SUBJ0006,83,L00083,WBC,White Blood Cell Count,HEMATOLOGY,5.02,10^9/L,4.5,11.0,5.02,5.02,10^9/L,4.5,11.0,NORMAL,,END OF TREATMENT,9,2025-11-03,140
STUDY001,LB,STUDY001-SUBJ0006,84,L00084,PLT,Platelet Count,HEMATOLOGY,199.14,10^9/L,150.0,450.0,199.14,199.14,10^9/L,150.0,450.0,NORMAL,,END OF TREATMENT,9,2025-11-03,140
STUDY001,LB,STUDY001-SUBJ0006,85,L00085,GLUC,Glucose,CHEMISTRY,80.49,mg/dL,70.0,100.0,80.49,80.49,mg/dL,70.0,100.0,NORMAL,,END OF TREATMENT,9,2025-11-03,140
STUDY001,LB,STUDY001-SUBJ0006,86,L00086,BUN,Blood Urea Nitrogen,CHEMISTRY,15.94,mg/dL,7.0,20.0,15.94,15.94,mg/dL,7.0,20.0,NORMAL,,END OF TREATMENT,9,2025-11-03,140
STUDY001,LB,STUDY001-SUBJ0006,87,L00087,CREAT,Creatinine,CHEMISTRY,0.84,mg/dL,0.6,1.2,0.84,0.84,mg/dL,0.6,1.2,NORMAL,,END OF TREATMENT,9,2025-11-03,140
STUDY001,LB,STUDY001-SUBJ0006,88,L00088,BILI,Total Bilirubin,CHEMISTRY,0.85,mg/dL,0.1,1.2,0.85,0.85,mg/dL,0.1,1.2,NORMAL,,END OF TREATMENT,9,2025-11-03,140
STUDY001,LB,STUDY001-SUBJ0006,89,L00089,ALP,Alkaline Phosphatase,CHEMISTRY,120.76,U/L,44.0,147.0,120.76,120.76,U/L,44.0,147.0,NORMAL,,END OF TREATMENT,9,2025-11-03,140
STUDY001,LB,STUDY001-SUBJ0006,90,L00090,ALT,Alanine Aminotransferase,CHEMISTRY,37.64,U/L,7.0,56.0,37.64,37.64,U/L,7.0,56.0,NORMAL,,END OF TREATMENT,9,2025-11-03,140
STUDY001,LB,STUDY001-SUBJ0007,1,L00001,HGB,Hemoglobin,HEMATOLOGY,14.32,g/dL,13.5,17.5,14.32,14.32,g/dL,13.5,17.5,NORMAL,,SCREENING,1,2024-09-29,-14
STUDY001,LB,STUDY001-SUBJ0007,2,L00002,HCT,Hematocrit,HEMATOLOGY,43.26,%,41.0,51.0,43.26,43.26,%,41.0,51.0,NORMAL,,SCREENING,1,2024-09-29,-14
STUDY001,LB,STUDY001-SUBJ0007,3,L00003,WBC,White Blood Cell Count,HEMATOLOGY,6.89,10^9/L,4.5,11.0,6.89,6.89,10^9/L,4.5,11.0,NORMAL,,SCREENING,1,2024-09-29,-14
STUDY001,LB,STUDY001-SUBJ0007,4,L00004,PLT,Platelet Count,HEMATOLOGY,252.61,10^9/L,150.0,450.0,252.61,252.61,10^9/L,150.0,450.0,NORMAL,,SCREENING,1,2024-09-29,-14
STUDY001,LB,STUDY001-SUBJ0007,5,L00005,GLUC,Glucose,CHEMISTRY,86.74,mg/dL,70.0,100.0,86.74,86.74,mg/dL,70.0,100.0,NORMAL,,SCREENING,1,2024-09-29,-14
STUDY001,LB,STUDY001-SUBJ0007,6,L00006,BUN,Blood Urea Nitrogen,CHEMISTRY,11.28,mg/dL,7.0,20.0,11.28,11.28,mg/dL,7.0,20.0,NORMAL,,SCREENING,1,2024-09-29,-14
STUDY001,LB,STUDY001-SUBJ0007,7,L00007,CREAT,Creatinine,CHEMISTRY,1.06,mg/dL,0.6,1.2,1.06,1.06,mg/dL,0.6,1.2,NORMAL,,SCREENING,1,2024-09-29,-14
STUDY001,LB,STUDY001-SUBJ0007,8,L00008,BILI,Total Bilirubin,CHEMISTRY,0.52,mg/dL,0.1,1.2,0.52,0.52,mg/dL,0.1,1.2,NORMAL,,SCREENING,1,2024-09-29,-14
STUDY001,LB,STUDY001-SUBJ0007,9,L00009,ALP,Alkaline Phosphatase,CHEMISTRY,78.35,U/L,44.0,147.0,78.35,78.35,U/L,44.0,147.0,NORMAL,,SCREENING,1,2024-09-29,-14
STUDY001,LB,STUDY001-SUBJ0007,10,L00010,ALT,Alanine Aminotransferase,CHEMISTRY,17.75,U/L,7.0,56.0,17.75,17.75,U/L,7.0,56.0,NORMAL,,SCREENING,1,2024-09-29,-14
STUDY001,LB,STUDY001-SUBJ0007,11,L00011,HGB,Hemoglobin,HEMATOLOGY,14.37,g/dL,13.5,17.5,14.37,14.37,g/dL,13.5,17.5,NORMAL,Y,BASELINE,2,2024-10-13,1
STUDY001,LB,STUDY001-SUBJ0007,12,L00012,HCT,Hematocrit,HEMATOLOGY,43.64,%,41.0,51.0,43.64,43.64,%,41.0,51.0,NORMAL,Y,BASELINE,2,2024-10-13,1
STUDY001,LB,STUDY001-SUBJ0007,13,L00013,WBC,White Blood Cell Count,HEMATOLOGY,6.51,10^9/L,4.5,11.0,6.51,6.51,10^9/L,4.5,11.0,NORMAL,Y,BASELINE,2,2024-10-13,1
STUDY001,LB,STUDY001-SUBJ0007,14,L00014,PLT,Platelet Count,HEMATOLOGY,256.38,10^9/L,150.0,450.0,256.38,256.38,10^9/L,150.0,450.0,NORMAL,Y,BASELINE,2,2024-10-13,1
STUDY001,LB,STUDY001-SUBJ0007,15,L00015,GLUC,Glucose,CHEMISTRY,84.14,mg/dL,70.0,100.0,84.14,84.14,mg/dL,70.0,100.0,NORMAL,Y,BASELINE,2,2024-10-13,1
STUDY001,LB,STUDY001-SUBJ0007,16,L00016,BUN,Blood Urea Nitrogen,CHEMISTRY,11.35,mg/dL,7.0,20.0,11.35,11.35,mg/dL,7.0,20.0,NORMAL,Y,BASELINE,2,2024-10-13,1
STUDY001,LB,STUDY001-SUBJ0007,17,L00017,CREAT,Creatinine,CHEMISTRY,1.05,mg/dL,0.6,1.2,1.05,1.05,mg/dL,0.6,1.2,NORMAL,Y,BASELINE,2,2024-10-13,1
STUDY001,LB,STUDY001-SUBJ0007,18,L00018,BILI,Total Bilirubin,CHEMISTRY,0.58,mg/dL,0.1,1.2,0.58,0.58,mg/dL,0.1,1.2,NORMAL,Y,BASELINE,2,2024-10-13,1
STUDY001,LB,STUDY001-SUBJ0007,19,L00019,ALP,Alkaline Phosphatase,CHEMISTRY,75.91,U/L,44.0,147.0,75.91,75.91,U/L,44.0,147.0,NORMAL,Y,BASELINE,2,2024-10-13,1
STUDY001,LB,STUDY001-SUBJ0007,20,L00020,ALT,Alanine Aminotransferase,CHEMISTRY,17.21,U/L,7.0,56.0,17.21,17.21,U/L,7.0,56.0,NORMAL,Y,BASELINE,2,2024-10-13,1
STUDY001,LB,STUDY001-SUBJ0007,21,L00021,HGB,Hemoglobin,HEMATOLOGY,14.12,g/dL,13.5,17.5,14.12,14.12,g/dL,13.5,17.5,NORMAL,,WEEK 1,3,2024-10-19,7
STUDY001,LB,STUDY001-SUBJ0007,22,L00022,HCT,Hematocrit,HEMATOLOGY,44.21,%,41.0,51.0,44.21,44.21,%,41.0,51.0,NORMAL,,WEEK 1,3,2024-10-19,7
STUDY001,LB,STUDY001-SUBJ0007,23,L00023,WBC,White Blood Cell Count,HEMATOLOGY,6.69,10^9/L,4.5,11.0,6.69,6.69,10^9/L,4.5,11.0,NORMAL,,WEEK 1,3,2024-10-19,7
STUDY001,LB,STUDY001-SUBJ0007,24,L00024,PLT,Platelet Count,HEMATOLOGY,250.06,10^9/L,150.0,450.0,250.06,250.06,10^9/L,150.0,450.0,NORMAL,,WEEK 1,3,2024-10-19,7
STUDY001,LB,STUDY001-SUBJ0007,25,L00025,GLUC,Glucose,CHEMISTRY,85.36,mg/dL,70.0,100.0,85.36,85.36,mg/dL,70.0,100.0,NORMAL,,WEEK 1,3,2024-10-19,7
STUDY001,LB,STUDY001-SUBJ0007,26,L00026,BUN,Blood Urea Nitrogen,CHEMISTRY,10.97,mg/dL,7.0,20.0,10.97,10.97,mg/dL,7.0,20.0,NORMAL,,WEEK 1,3,2024-10-19,7
STUDY001,LB,STUDY001-SUBJ0007,27,L00027,CREAT,Creatinine,CHEMISTRY,1.08,mg/dL,0.6,1.2,1.08,1.08,mg/dL,0.6,1.2,NORMAL,,WEEK 1,3,2024-10-19,7
STUDY001,LB,STUDY001-SUBJ0007,28,L00028,BILI,Total Bilirubin,CHEMISTRY,0.54,mg/dL,0.1,1.2,0.54,0.54,mg/dL,0.1,1.2,NORMAL,,WEEK 1,3,2024-10-19,7
STUDY001,LB,STUDY001-SUBJ0007,29,L00029,ALP,Alkaline Phosphatase,CHEMISTRY,76.4,U/L,44.0,147.0,76.4,76.4,U/L,44.0,147.0,NORMAL,,WEEK 1,3,2024-10-19,7
STUDY001,LB,STUDY001-SUBJ0007,30,L00030,ALT,Alanine Aminotransferase,CHEMISTRY,19.0,U/L,7.0,56.0,19.0,19.0,U/L,7.0,56.0,NORMAL,,WEEK 1,3,2024-10-19,7
STUDY001,LB,STUDY001-SUBJ0007,31,L00031,HGB,Hemoglobin,HEMATOLOGY,14.34,g/dL,13.5,17.5,14.34,14.34,g/dL,13.5,17.5,NORMAL,,WEEK 2,4,2024-10-26,14
STUDY001,LB,STUDY001-SUBJ0007,32,L00032,HCT,Hematocrit,HEMATOLOGY,43.65,%,41.0,51.0,43.65,43.65,%,41.0,51.0,NORMAL,,WEEK 2,4,2024-10-26,14
STUDY001,LB,STUDY001-SUBJ0007,33,L00033,WBC,White Blood Cell Count,HEMATOLOGY,6.57,10^9/L,4.5,11.0,6.57,6.57,10^9/L,4.5,11.0,NORMAL,,WEEK 2,4,2024-10-26,14
STUDY001,LB,STUDY001-SUBJ0007,34,L00034,PLT,Platelet Count,HEMATOLOGY,247.88,10^9/L,150.0,450.0,247.88,247.88,10^9/L,150.0,450.0,NORMAL,,WEEK 2,4,2024-10-26,14
STUDY001,LB,STUDY001-SUBJ0007,35,L00035,GLUC,Glucose,CHEMISTRY,84.88,mg/dL,70.0,100.0,84.88,84.88,mg/dL,70.0,100.0,NORMAL,,WEEK 2,4,2024-10-26,14
STUDY001,LB,STUDY001-SUBJ0007,36,L00036,BUN,Blood Urea Nitrogen,CHEMISTRY,11.32,mg/dL,7.0,20.0,11.32,11.32,mg/dL,7.0,20.0,NORMAL,,WEEK 2,4,2024-10-26,14
STUDY001,LB,STUDY001-SUBJ0007,37,L00037,CREAT,Creatinine,CHEMISTRY,1.07,mg/dL,0.6,1.2,1.07,1.07,mg/dL,0.6,1.2,NORMAL,,WEEK 2,4,2024-10-26,14
STUDY001,LB,STUDY001-SUBJ0007,38,L00038,BILI,Total Bilirubin,CHEMISTRY,0.58,mg/dL,0.1,1.2,0.58,0.58,mg/dL,0.1,1.2,NORMAL,,WEEK 2,4,2024-10-26,14
STUDY001,LB,STUDY001-SUBJ0007,39,L00039,ALP,Alkaline Phosphatase,CHEMISTRY,73.63,U/L,44.0,147.0,73.63,73.63,U/L,44.0,147.0,NORMAL,,WEEK 2,4,2024-10-26,14
STUDY001,LB,STUDY001-SUBJ0007,40,L00040,ALT,Alanine Aminotransferase,CHEMISTRY,17.31,U/L,7.0,56.0,17.31,17.31,U/L,7.0,56.0,NORMAL,,WEEK 2,4,2024-10-26,14
STUDY001,LB,STUDY001-SUBJ0007,41,L00041,HGB,Hemoglobin,HEMATOLOGY,14.26,g/dL,13.5,17.5,14.26,14.26,g/dL,13.5,17.5,NORMAL,,WEEK 4,5,2024-11-09,28
STUDY001,LB,STUDY001-SUBJ0007,42,L00042,HCT,Hematocrit,HEMATOLOGY,43.45,%,41.0,51.0,43.45,43.45,%,41.0,51.0,NORMAL,,WEEK 4,5,2024-11-09,28
STUDY001,LB,STUDY001-SUBJ0007,43,L00043,WBC,White Blood Cell Count,HEMATOLOGY,6.52,10^9/L,4.5,11.0,6.52,6.52,10^9/L,4.5,11.0,NORMAL,,WEEK 4,5,2024-11-09,28
STUDY001,LB,STUDY001-SUBJ0007,44,L00044,PLT,Platelet Count,HEMATOLOGY,252.01,10^9/L,150.0,450.0,252.01,252.01,10^9/L,150.0,450.0,NORMAL,,WEEK 4,5,2024-11-09,28
STUDY001,LB,STUDY001-SUBJ0007,45,L00045,GLUC,Glucose,CHEMISTRY,84.41,mg/dL,70.0,100.0,84.41,84.41,mg/dL,70.0,100.0,NORMAL,,WEEK 4,5,2024-11-09,28
STUDY001,LB,STUDY001-SUBJ0007,46,L00046,BUN,Blood Urea Nitrogen,CHEMISTRY,11.11,mg/dL,7.0,20.0,11.11,11.11,mg/dL,7.0,20.0,NORMAL,,WEEK 4,5,2024-11-09,28
STUDY001,LB,STUDY001-SUBJ0007,47,L00047,CREAT,Creatinine,CHEMISTRY,1.06,mg/dL,0.6,1.2,1.06,1.06,mg/dL,0.6,1.2,NORMAL,,WEEK 4,5,2024-11-09,28
STUDY001,LB,STUDY001-SUBJ0007,48,L00048,BILI,Total Bilirubin,CHEMISTRY,0.56,mg/dL,0.1,1.2,0.56,0.56,mg/dL,0.1,1.2,NORMAL,,WEEK 4,5,2024-11-09,28
STUDY001,LB,STUDY001-SUBJ0007,49,L00049,ALP,Alkaline Phosphatase,CHEMISTRY,76.0,U/L,44.0,147.0,76.0,76.0,U/L,44.0,147.0,NORMAL,,WEEK 4,5,2024-11-09,28
STUDY001,LB,STUDY001-SUBJ0007,50,L00050,ALT,Alanine Aminotransferase,CHEMISTRY,18.45,U/L,7.0,56.0,18.45,18.45,U/L,7.0,56.0,NORMAL,,WEEK 4,5,2024-11-09,28
STUDY001,LB,STUDY001-SUBJ0007,51,L00051,HGB,Hemoglobin,HEMATOLOGY,14.26,g/dL,13.5,17.5,14.26,14.26,g/dL,13.5,17.5,NORMAL,,WEEK 8,6,2024-12-07,56
STUDY001,LB,STUDY001-SUBJ0007,52,L00052,HCT,Hematocrit,HEMATOLOGY,43.75,%,41.0,51.0,43.75,43.75,%,41.0,51.0,NORMAL,,WEEK 8,6,2024-12-07,56
STUDY001,LB,STUDY001-SUBJ0007,53,L00053,WBC,White Blood Cell Count,HEMATOLOGY,6.72,10^9/L,4.5,11.0,6.72,6.72,10^9/L,4.5,11.0,NORMAL,,WEEK 8,6,2024-12-07,56
STUDY001,LB,STUDY001-SUBJ0007,54,L00054,PLT,Platelet Count,HEMATOLOGY,252.23,10^9/L,150.0,450.0,252.23,252.23,10^9/L,150.0,450.0,NORMAL,,WEEK 8,6,2024-12-07,56
STUDY001,LB,STUDY001-SUBJ0007,55,L00055,GLUC,Glucose,CHEMISTRY,84.46,mg/dL,70.0,100.0,84.46,84.46,mg/dL,70.0,100.0,NORMAL,,WEEK 8,6,2024-12-07,56
STUDY001,LB,STUDY001-SUBJ0007,56,L00056,BUN,Blood Urea Nitrogen,CHEMISTRY,11.96,mg/dL,7.0,20.0,11.96,11.96,mg/dL,7.0,20.0,NORMAL,,WEEK 8,6,2024-12-07,56
STUDY001,LB,STUDY001-SUBJ0007,57,L00057,CREAT,Creatinine,CHEMISTRY,1.03,mg/dL,0.6,1.2,1.03,1.03,mg/dL,0.6,1.2,NORMAL,,WEEK 8,6,2024-12-07,56
STUDY001,LB,STUDY001-SUBJ0007,58,L00058,BILI,Total Bilirubin,CHEMISTRY,0.56,mg/dL,0.1,1.2,0.56,0.56,mg/dL,0.1,1.2,NORMAL,,WEEK 8,6,2024-12-07,56
STUDY001,LB,STUDY001-SUBJ0007,59,L00059,ALP,Alkaline Phosphatase,CHEMISTRY,76.68,U/L,44.0,147.0,76.68,76.68,U/L,44.0,147.0,NORMAL,,WEEK 8,6,2024-12-07,56
STUDY001,LB,STUDY001-SUBJ0007,60,L00060,ALT,Alanine Aminotransferase,CHEMISTRY,15.85,U/L,7.0,56.0,15.85,15.85,U/L,7.0,56.0,NORMAL,,WEEK 8,6,2024-12-07,56
STUDY001,LB,STUDY001-SUBJ0007,61,L00061,HGB,Hemoglobin,HEMATOLOGY,14.13,g/dL,13.5,17.5,14.13,14.13,g/dL,13.5,17.5,NORMAL,,WEEK 12,7,2025-01-04,84
STUDY001,LB,STUDY001-SUBJ0007,62,L00062,HCT,Hematocrit,HEMATOLOGY,43.66,%,41.0,51.0,43.66,43.66,%,41.0,51.0,NORMAL,,WEEK 12,7,2025-01-04,84
STUDY001,LB,STUDY001-SUBJ0007,63,L00063,WBC,White Blood Cell Count,HEMATOLOGY,6.63,10^9/L,4.5,11.0,6.63,6.63,10^9/L,4.5,11.0,NORMAL,,WEEK 12,7,2025-01-04,84
STUDY001,LB,STUDY001-SUBJ0007,64,L00064,PLT,Platelet Count,HEMATOLOGY,252.78,10^9/L,150.0,450.0,252.78,252.78,10^9/L,150.0,450.0,NORMAL,,WEEK 12,7,2025-01-04,84
STUDY001,LB,STUDY001-SUBJ0007,65,L00065,GLUC,Glucose,CHEMISTRY,84.27,mg/dL,70.0,100.0,84.27,84.27,mg/dL,70.0,100.0,NORMAL,,WEEK 12,7,2025-01-04,84
STUDY001,LB,STUDY001-SUBJ0007,66,L00066,BUN,Blood Urea Nitrogen,CHEMISTRY,10.9,mg/dL,7.0,20.0,10.9,10.9,mg/dL,7.0,20.0,NORMAL,,WEEK 12,7,2025-01-04,84
STUDY001,LB,STUDY001-SUBJ0007,67,L00067,CREAT,Creatinine,CHEMISTRY,1.05,mg/dL,0.6,1.2,1.05,1.05,mg/dL,0.6,1.2,NORMAL,,WEEK 12,7,2025-01-04,84
STUDY001,LB,STUDY001-SUBJ0007,68,L00068,BILI,Total Bilirubin,CHEMISTRY,0.55,mg/dL,0.1,1.2,0.55,0.55,mg/dL,0.1,1.2,NORMAL,,WEEK 12,7,2025-01-04,84
STUDY001,LB,STUDY001-SUBJ0007,69,L00069,ALP,Alkaline Phosphatase,CHEMISTRY,79.53,U/L,44.0,147.0,79.53,79.53,U/L,44.0,147.0,NORMAL,,WEEK 12,7,2025-01-04,84
STUDY001,LB,STUDY001-SUBJ0007,70,L00070,ALT,Alanine Aminotransferase,CHEMISTRY,17.28,U/L,7.0,56.0,17.28,17.28,U/L,7.0,56.0,NORMAL,,WEEK 12,7,2025-01-04,84
STUDY001,LB,STUDY001-SUBJ0007,71,L00071,HGB,Hemoglobin,HEMATOLOGY,14.4,g/dL,13.5,17.5,14.4,14.4,g/dL,13.5,17.5,NORMAL,,WEEK 16,8,2025-02-01,112
STUDY001,LB,STUDY001-SUBJ0007,72,L00072,HCT,Hematocrit,HEMATOLOGY,43.11,%,41.0,51.0,43.11,43.11,%,41.0,51.0,NORMAL,,WEEK 16,8,2025-02-01,112
STUDY001,LB,STUDY001-SUBJ0007,73,L00073,WBC,White Blood Cell Count,HEMATOLOGY,6.57,10^9/L,4.5,11.0,6.57,6.57,10^9/L,4.5,11.0,NORMAL,,WEEK 16,8,2025-02-01,112
STUDY001,LB,STUDY001-SUBJ0007,74,L00074,PLT,Platelet Count,HEMATOLOGY,246.65,10^9/L,150.0,450.0,246.65,246.65,10^9/L,150.0,450.0,NORMAL,,WEEK 16,8,2025-02-01,112
STUDY001,LB,STUDY001-SUBJ0007,75,L00075,GLUC,Glucose,CHEMISTRY,87.59,mg/dL,70.0,100.0,87.59,87.59,mg/dL,70.0,100.0,NORMAL,,WEEK 16,8,2025-02-01,112
STUDY001,LB,STUDY001-SUBJ0007,76,L00076,BUN,Blood Urea Nitrogen,CHEMISTRY,11.12,mg/dL,7.0,20.0,11.12,11.12,mg/dL,7.0,20.0,NORMAL,,WEEK 16,8,2025-02-01,112
STUDY001,LB,STUDY001-SUBJ0007,77,L00077,CREAT,Creatinine,CHEMISTRY,1.01,mg/dL,0.6,1.2,1.01,1.01,mg/dL,0.6,1.2,NORMAL,,WEEK 16,8,2025-02-01,112
STUDY001,LB,STUDY001-SUBJ0007,78,L00078,BILI,Total Bilirubin,CHEMISTRY,0.56,mg/dL,0.1,1.2,0.56,0.56,mg/dL,0.1,1.2,NORMAL,,WEEK 16,8,2025-02-01,112
STUDY001,LB,STUDY001-SUBJ0007,79,L00079,ALP,Alkaline Phosphatase,CHEMISTRY,79.7,U/L,44.0,147.0,79.7,79.7,U/L,44.0,147.0,NORMAL,,WEEK 16,8,2025-02-01,112
STUDY001,LB,STUDY001-SUBJ0007,80,L00080,ALT,Alanine Aminotransferase,CHEMISTRY,17.02,U/L,7.0,56.0,17.02,17.02,U/L,7.0,56.0,NORMAL,,WEEK 16,8,2025-02-01,112
STUDY001,LB,STUDY001-SUBJ0007,81,L00081,HGB,Hemoglobin,HEMATOLOGY,14.46,g/dL,13.5,17.5,14.46,14.46,g/dL,13.5,17.5,NORMAL,,END OF TREATMENT,9,2025-03-01,140
STUDY001,LB,STUDY001-SUBJ0007,82,L00082,HCT,Hematocrit,HEMATOLOGY,43.74,%,41.0,51.0,43.74,43.74,%,41.0,51.0,NORMAL,,END OF TREATMENT,9,2025-03-01,140
STUDY001,LB,STUDY001-SUBJ0007,83,L00083,WBC,White Blood Cell Count,HEMATOLOGY,6.51,10^9/L,4.5,11.0,6.51,6.51,10^9/L,4.5,11.0,NORMAL,,END OF TREATMENT,9,2025-03-01,140
STUDY001,LB,STUDY001-SUBJ0007,84,L00084,PLT,Platelet Count,HEMATOLOGY,258.03,10^9/L,150.0,450.0,258.03,258.03,10^9/L,150.0,450.0,NORMAL,,END OF TREATMENT,9,2025-03-01,140
STUDY001,LB,STUDY001-SUBJ0007,85,L00085,GLUC,Glucose,CHEMISTRY,85.58,mg/dL,70.0,100.0,85.58,85.58,mg/dL,70.0,100.0,NORMAL,,END OF TREATMENT,9,2025-03-01,140
STUDY001,LB,STUDY001-SUBJ0007,86,L00086,BUN,Blood Urea Nitrogen,CHEMISTRY,11.16,mg/dL,7.0,20.0,11.16,11.16,mg/dL,7.0,20.0,NORMAL,,END OF TREATMENT,9,2025-03-01,140
STUDY001,LB,STUDY001-SUBJ0007,87,L00087,CREAT,Creatinine,CHEMISTRY,1.06,mg/dL,0.6,1.2,1.06,1.06,mg/dL,0.6,1.2,NORMAL,,END OF TREATMENT,9,2025-03-01,140
STUDY001,LB,STUDY001-SUBJ0007,88,L00088,BILI,Total Bilirubin,CHEMISTRY,0.6,mg/dL,0.1,1.2,0.6,0.6,mg/dL,0.1,1.2,NORMAL,,END OF TREATMENT,9,2025-03-01,140
STUDY001,LB,STUDY001-SUBJ0007,89,L00089,ALP,Alkaline Phosphatase,CHEMISTRY,74.49,U/L,44.0,147.0,74.49,74.49,U/L,44.0,147.0,NORMAL,,END OF TREATMENT,9,2025-03-01,140
STUDY001,LB,STUDY001-SUBJ0007,90,L00090,ALT,Alanine Aminotransferase,CHEMISTRY,16.38,U/L,7.0,56.0,16.38,16.38,U/L,7.0,56.0,NORMAL,,END OF TREATMENT,9,2025-03-01,140
STUDY001,LB,STUDY001-SUBJ0008,1,L00001,HGB,Hemoglobin,HEMATOLOGY,14.65,g/dL,13.5,17.5,14.65,14.65,g/dL,13.5,17.5,NORMAL,,SCREENING,1,2025-02-03,-14
STUDY001,LB,STUDY001-SUBJ0008,2,L00002,HCT,Hematocrit,HEMATOLOGY,43.4,%,41.0,51.0,43.4,43.4,%,41.0,51.0,NORMAL,,SCREENING,1,2025-02-03,-14
STUDY001,LB,STUDY001-SUBJ0008,3,L00003,WBC,White Blood Cell Count,HEMATOLOGY,5.83,10^9/L,4.5,11.0,5.83,5.83,10^9/L,4.5,11.0,NORMAL,,SCREENING,1,2025-02-03,-14
STUDY001,LB,STUDY001-SUBJ0008,4,L00004,PLT,Platelet Count,HEMATOLOGY,307.13,10^9/L,150.0,450.0,307.13,307.13,10^9/L,150.0,450.0,NORMAL,,SCREENING,1,2025-02-03,-14
STUDY001,LB,STUDY001-SUBJ0008,5,L00005,GLUC,Glucose,CHEMISTRY,89.06,mg/dL,70.0,100.0,89.06,89.06,mg/dL,70.0,100.0,NORMAL,,SCREENING,1,2025-02-03,-14
STUDY001,LB,STUDY001-SUBJ0008,6,L00006,BUN,Blood Urea Nitrogen,CHEMISTRY,17.0,mg/dL,7.0,20.0,17.0,17.0,mg/dL,7.0,20.0,NORMAL,,SCREENING,1,2025-02-03,-14
STUDY001,LB,STUDY001-SUBJ0008,7,L00007,CREAT,Creatinine,CHEMISTRY,1.21,mg/dL,0.6,1.2,1.21,1.21,mg/dL,0.6,1.2,HIGH,,SCREENING,1,2025-02-03,-14
STUDY001,LB,STUDY001-SUBJ0008,8,L00008,BILI,Total Bilirubin,CHEMISTRY,0.31,mg/dL,0.1,1.2,0.31,0.31,mg/dL,0.1,1.2,NORMAL,,SCREENING,1,2025-02-03,-14
STUDY001,LB,STUDY001-SUBJ0008,9,L00009,ALP,Alkaline Phosphatase,CHEMISTRY,109.01,U/L,44.0,147.0,109.01,109.01,U/L,44.0,147.0,NORMAL,,SCREENING,1,2025-02-03,-14
STUDY001,LB,STUDY001-SUBJ0008,10,L00010,ALT,Alanine Aminotransferase,CHEMISTRY,40.83,U/L,7.0,56.0,40.83,40.83,U/L,7.0,56.0,NORMAL,,SCREENING,1,2025-02-03,-14
STUDY001,LB,STUDY001-SUBJ0008,11,L00011,HGB,Hemoglobin,HEMATOLOGY,14.77,g/dL,13.5,17.5,14.77,14.77,g/dL,13.5,17.5,NORMAL,Y,BASELINE,2,2025-02-17,1
STUDY001,LB,STUDY001-SUBJ0008,12,L00012,HCT,Hematocrit,HEMATOLOGY,43.66,%,41.0,51.0,43.66,43.66,%,41.0,51.0,NORMAL,Y,BASELINE,2,2025-02-17,1
STUDY001,LB,STUDY001-SUBJ0008,13,L00013,WBC,White Blood Cell Count,HEMATOLOGY,6.0,10^9/L,4.5,11.0,6.0,6.0,10^9/L,4.5,11.0,NORMAL,Y,BASELINE,2,2025-02-17,1
STUDY001,LB,STUDY001-SUBJ0008,14,L00014,PLT,Platelet Count,HEMATOLOGY,310.7,10^9/L,150.0,450.0,310.7,310.7,10^9/L,150.0,450.0,NORMAL,Y,BASELINE,2,2025-02-17,1
STUDY001,LB,STUDY001-SUBJ0008,15,L00015,GLUC,Glucose,CHEMISTRY,88.36,mg/dL,70.0,100.0,88.36,88.36,mg/dL,70.0,100.0,NORMAL,Y,BASELINE,2,2025-02-17,1
STUDY001,LB,STUDY001-SUBJ0008,16,L00016,BUN,Blood Urea Nitrogen,CHEMISTRY,16.43,mg/dL,7.0,20.0,16.43,16.43,mg/dL,7.0,20.0,NORMAL,Y,BASELINE,2,2025-02-17,1
STUDY001,LB,STUDY001-SUBJ0008,17,L00017,CREAT,Creatinine,CHEMISTRY,1.22,mg/dL,0.6,1.2,1.22,1.22,mg/dL,0.6,1.2,HIGH,Y,BASELINE,2,2025-02-17,1
STUDY001,LB,STUDY001-SUBJ0008,18,L00018,BILI,Total Bilirubin,CHEMISTRY,0.31,mg/dL,0.1,1.2,0.31,0.31,mg/dL,0.1,1.2,NORMAL,Y,BASELINE,2,2025-02-17,1
STUDY001,LB,STUDY001-SUBJ0008,19,L00019,ALP,Alkaline Phosphatase,CHEMISTRY,110.79,U/L,44.0,147.0,110.79,110.79,U/L,44.0,147.0,NORMAL,Y,BASELINE,2,2025-02-17,1
STUDY001,LB,STUDY001-SUBJ0008,20,L00020,ALT,Alanine Aminotransferase,CHEMISTRY,40.76,U/L,7.0,56.0,40.76,40.76,U/L,7.0,56.0,NORMAL,Y,BASELINE,2,2025-02-17,1
STUDY001,LB,STUDY001-SUBJ0008,21,L00021,HGB,Hemoglobin,HEMATOLOGY,14.83,g/dL,13.5,17.5,14.83,14.83,g/dL,13.5,17.5,NORMAL,,WEEK 1,3,2025-02-23,7
STUDY001,LB,STUDY001-SUBJ0008,22,L00022,HCT,Hematocrit,HEMATOLOGY,43.36,%,41.0,51.0,43.36,43.36,%,41.0,51.0,NORMAL,,WEEK 1,3,2025-02-23,7
STUDY001,LB,STUDY001-SUBJ0008,23,L00023,WBC,White Blood Cell Count,HEMATOLOGY,6.04,10^9/L,4.5,11.0,6.04,6.04,10^9/L,4.5,11.0,NORMAL,,WEEK 1,3,2025-02-23,7
STUDY001,LB,STUDY001-SUBJ0008,24,L00024,PLT,Platelet Count,HEMATOLOGY,310.43,10^9/L,150.0,450.0,310.43,310.43,10^9/L,150.0,450.0,NORMAL,,WEEK 1,3,2025-02-23,7
STUDY001,LB,STUDY001-SUBJ0008,25,L00025,GLUC,Glucose,CHEMISTRY,88.82,mg/dL,70.0,100.0,88.82,88.82,mg/dL,70.0,100.0,NORMAL,,WEEK 1,3,2025-02-23,7
STUDY001,LB,STUDY001-SUBJ0008,26,L00026,BUN,Blood Urea Nitrogen,CHEMISTRY,16.68,mg/dL,7.0,20.0,16.68,16.68,mg/dL,7.0,20.0,NORMAL,,WEEK 1,3,2025-02-23,7
STUDY001,LB,STUDY001-SUBJ0008,27,L00027,CREAT,Creatinine,CHEMISTRY,1.19,mg/dL,0.6,1.2,1.19,1.19,mg/dL,0.6,1.2,NORMAL,,WEEK 1,3,2025-02-23,7
STUDY001,LB,STUDY001-SUBJ0008,28,L00028,BILI,Total Bilirubin,CHEMISTRY,0.29,mg/dL,0.1,1.2,0.29,0.29,mg/dL,0.1,1.2,NORMAL,,WEEK 1,3,2025-02-23,7
STUDY001,LB,STUDY001-SUBJ0008,29,L00029,ALP,Alkaline Phosphatase,CHEMISTRY,110.26,U/L,44.0,147.0,110.26,110.26,U/L,44.0,147.0,NORMAL,,WEEK 1,3,2025-02-23,7
STUDY001,LB,STUDY001-SUBJ0008,30,L00030,ALT,Alanine Aminotransferase,CHEMISTRY,43.09,U/L,7.0,56.0,43.09,43.09,U/L,7.0,56.0,NORMAL,,WEEK 1,3,2025-02-23,7
STUDY001,LB,STUDY001-SUBJ0008,31,L00031,HGB,Hemoglobin,HEMATOLOGY,14.77,g/dL,13.5,17.5,14.77,14.77,g/dL,13.5,17.5,NORMAL,,WEEK 2,4,2025-03-02,14
STUDY001,LB,STUDY001-SUBJ0008,32,L00032,HCT,Hematocrit,HEMATOLOGY,43.4,%,41.0,51.0,43.4,43.4,%,41.0,51.0,NORMAL,,WEEK 2,4,2025-03-02,14
STUDY001,LB,STUDY001-SUBJ0008,33,L00033,WBC,White Blood Cell Count,HEMATOLOGY,5.88,10^9/L,4.5,11.0,5.88,5.88,10^9/L,4.5,11.0,NORMAL,,WEEK 2,4,2025-03-02,14
STUDY001,LB,STUDY001-SUBJ0008,34,L00034,PLT,Platelet Count,HEMATOLOGY,306.28,10^9/L,150.0,450.0,306.28,306.28,10^9/L,150.0,450.0,NORMAL,,WEEK 2,4,2025-03-02,14
STUDY001,LB,STUDY001-SUBJ0008,35,L00035,GLUC,Glucose,CHEMISTRY,87.91,mg/dL,70.0,100.0,87.91,87.91,mg/dL,70.0,100.0,NORMAL,,WEEK 2,4,2025-03-02,14
STUDY001,LB,STUDY001-SUBJ0008,36,L00036,BUN,Blood Urea Nitrogen,CHEMISTRY,16.22,mg/dL,7.0,20.0,16.22,16.22,mg/dL,7.0,20.0,NORMAL,,WEEK 2,4,2025-03-02,14
STUDY001,LB,STUDY001-SUBJ0008,37,L00037,CREAT,Creatinine,CHEMISTRY,1.21,mg/dL,0.6,1.2,1.21,1.21,mg/dL,0.6,1.2,HIGH,,WEEK 2,4,2025-03-02,14
STUDY001,LB,STUDY001-SUBJ0008,38,L00038,BILI,Total Bilirubin,CHEMISTRY,0.3,mg/dL,0.1,1.2,0.3,0.3,mg/dL,0.1,1.2,NORMAL,,WEEK 2,4,2025-03-02,14
STUDY001,LB,STUDY001-SUBJ0008,39,L00039,ALP,Alkaline Phosphatase,CHEMISTRY,105.85,U/L,44.0,147.0,105.85,105.85,U/L,44.0,147.0,NORMAL,,WEEK 2,4,2025-03-02,14
STUDY001,LB,STUDY001-SUBJ0008,40,L00040,ALT,Alanine Aminotransferase,CHEMISTRY,39.93,U/L,7.0,56.0,39.93,39.93,U/L,7.0,56.0,NORMAL,,WEEK 2,4,2025-03-02,14
STUDY001,LB,STUDY001-SUBJ0008,41,L00041,HGB,Hemoglobin,HEMATOLOGY,14.91,g/dL,13.5,17.5,14.91,14.91,g/dL,13.5,17.5,NORMAL,,WEEK 4,5,2025-03-16,28
STUDY001,LB,STUDY001-SUBJ0008,42,L00042,HCT,Hematocrit,HEMATOLOGY,43.61,%,41.0,51.0,43.61,43.61,%,41.0,51.0,NORMAL,,WEEK 4,5,2025-03-16,28
STUDY001,LB,STUDY001-SUBJ0008,43,L00043,WBC,White Blood Cell Count,HEMATOLOGY,6.08,10^9/L,4.5,11.0,6.08,6.08,10^9/L,4.5,11.0,NORMAL,,WEEK 4,5,2025-03-16,28
STUDY001,LB,STUDY001-SUBJ0008,44,L00044,PLT,Platelet Count,HEMATOLOGY,312.45,10^9/L,150.0,450.0,312.45,312.45,10^9/L,150.0,450.0,NORMAL,,WEEK 4,5,2025-03-16,28
STUDY001,LB,STUDY001-SUBJ0008,45,L00045,GLUC,Glucose,CHEMISTRY,88.47,mg/dL,70.0,100.0,88.47,88.47,mg/dL,70.0,100.0,NORMAL,,WEEK 4,5,2025-03-16,28
STUDY001,LB,STUDY001-SUBJ0008,46,L00046,BUN,Blood Urea Nitrogen,CHEMISTRY,16.37,mg/dL,7.0,20.0,16.37,16.37,mg/dL,7.0,20.0,NORMAL,,WEEK 4,5,2025-03-16,28
STUDY001,LB,STUDY001-SUBJ0008,47,L00047,CREAT,Creatinine,CHEMISTRY,1.19,mg/dL,0.6,1.2,1.19,1.19,mg/dL,0.6,1.2,NORMAL,,WEEK 4,5,2025-03-16,28
STUDY001,LB,STUDY001-SUBJ0008,48,L00048,BILI,Total Bilirubin,CHEMISTRY,0.29,mg/dL,0.1,1.2,0.29,0.29,mg/dL,0.1,1.2,NORMAL,,WEEK 4,5,2025-03-16,28
STUDY001,LB,STUDY001-SUBJ0008,49,L00049,ALP,Alkaline Phosphatase,CHEMISTRY,108.54,U/L,44.0,147.0,108.54,108.54,U/L,44.0,147.0,NORMAL,,WEEK 4,5,2025-03-16,28
STUDY001,LB,STUDY001-SUBJ0008,50,L00050,ALT,Alanine Aminotransferase,CHEMISTRY,41.93,U/L,7.0,56.0,41.93,41.93,U/L,7.0,56.0,NORMAL,,WEEK 4,5,2025-03-16,28
STUDY001,LB,STUDY001-SUBJ0008,51,L00051,HGB,Hemoglobin,HEMATOLOGY,14.96,g/dL,13.5,17.5,14.96,14.96,g/dL,13.5,17.5,NORMAL,,WEEK 8,6,2025-04-13,56
STUDY001,LB,STUDY001-SUBJ0008,52,L00052,HCT,Hematocrit,HEMATOLOGY,43.74,%,41.0,51.0,43.74,43.74,%,41.0,51.0,NORMAL,,WEEK 8,6,2025-04-13,56
STUDY001,LB,STUDY001-SUBJ0008,53,L00053,WBC,White Blood Cell Count,HEMATOLOGY,6.1,10^9/L,4.5,11.0,6.1,6.1,10^9/L,4.5,11.0,NORMAL,,WEEK 8,6,2025-04-13,56
STUDY001,LB,STUDY001-SUBJ0008,54,L00054,PLT,Platelet Count,HEMATOLOGY,306.89,10^9/L,150.0,450.0,306.89,306.89,10^9/L,150.0,450.0,NORMAL,,WEEK 8,6,2025-04-13,56
STUDY001,LB,STUDY001-SUBJ0008,55,L00055,GLUC,Glucose,CHEMISTRY,88.87,mg/dL,70.0,100.0,88.87,88.87,mg/dL,70.0,100.0,NORMAL,,WEEK 8,6,2025-04-13,56
STUDY001,LB,STUDY001-SUBJ0008,56,L00056,BUN,Blood Urea Nitrogen,CHEMISTRY,16.4,mg/dL,7.0,20.0,16.4,16.4,mg/dL,7.0,20.0,NORMAL,,WEEK 8,6,2025-04-13,56
STUDY001,LB,STUDY001-SUBJ0008,57,L00057,CREAT,Creatinine,CHEMISTRY,1.18,mg/dL,0.6,1.2,1.18,1.18,mg/dL,0.6,1.2,NORMAL,,WEEK 8,6,2025-04-13,56
STUDY001,LB,STUDY001-SUBJ0008,58,L00058,BILI,Total Bilirubin,CHEMISTRY,0.27,mg/dL,0.1,1.2,0.27,0.27,mg/dL,0.1,1.2,NORMAL,,WEEK 8,6,2025-04-13,56
STUDY001,LB,STUDY001-SUBJ0008,59,L00059,ALP,Alkaline Phosphatase,CHEMISTRY,111.63,U/L,44.0,147.0,111.63,111.63,U/L,44.0,147.0,NORMAL,,WEEK 8,6,2025-04-13,56
STUDY001,LB,STUDY001-SUBJ0008,60,L00060,ALT,Alanine Aminotransferase,CHEMISTRY,39.98,U/L,7.0,56.0,39.98,39.98,U/L,7.0,56.0,NORMAL,,WEEK 8,6,2025-04-13,56
STUDY001,LB,STUDY001-SUBJ0008,61,L00061,HGB,Hemoglobin,HEMATOLOGY,14.75,g/dL,13.5,17.5,14.75,14.75,g/dL,13.5,17.5,NORMAL,,WEEK 12,7,2025-05-11,84
STUDY001,LB,STUDY001-SUBJ0008,62,L00062,HCT,Hematocrit,HEMATOLOGY,43.31,%,41.0,51.0,43.31,43.31,%,41.0,51.0,NORMAL,,WEEK 12,7,2025-05-11,84
STUDY001,LB,STUDY001-SUBJ0008,63,L00063,WBC,White Blood Cell Count,HEMATOLOGY,5.92,10^9/L,4.5,11.0,5.92,5.92,10^9/L,4.5,11.0,NORMAL,,WEEK 12,7,2025-05-11,84
STUDY001,LB,STUDY001-SUBJ0008,64,L00064,PLT,Platelet Count,HEMATOLOGY,318.31,10^9/L,150.0,450.0,318.31,318.31,10^9/L,150.0,450.0,NORMAL,,WEEK 12,7,2025-05-11,84
STUDY001,LB,STUDY001-SUBJ0008,65,L00065,GLUC,Glucose,CHEMISTRY,89.39,mg/dL,70.0,100.0,89.39,89.39,mg/dL,70.0,100.0,NORMAL,,WEEK 12,7,2025-05-11,84
STUDY001,LB,STUDY001-SUBJ0008,66,L00066,BUN,Blood Urea Nitrogen,CHEMISTRY,16.94,mg/dL,7.0,20.0,16.94,16.94,mg/dL,7.0,20.0,NORMAL,,WEEK 12,7,2025-05-11,84
STUDY001,LB,STUDY001-SUBJ0008,67,L00067,CREAT,Creatinine,CHEMISTRY,1.21,mg/dL,0.6,1.2,1.21,1.21,mg/dL,0.6,1.2,HIGH,,WEEK 12,7,2025-05-11,84
STUDY001,LB,STUDY001-SUBJ0008,68,L00068,BILI,Total Bilirubin,CHEMISTRY,0.27,mg/dL,0.1,1.2,0.27,0.27,mg/dL,0.1,1.2,NORMAL,,WEEK 12,7,2025-05-11,84
STUDY001,LB,STUDY001-SUBJ0008,69,L00069,ALP,Alkaline Phosphatase,CHEMISTRY,109.45,U/L,44.0,147.0,109.45,109.45,U/L,44.0,147.0,NORMAL,,WEEK 12,7,2025-05-11,84
STUDY001,LB,STUDY001-SUBJ0008,70,L00070,ALT,Alanine Aminotransferase,CHEMISTRY,41.51,U/L,7.0,56.0,41.51,41.51,U/L,7.0,56.0,NORMAL,,WEEK 12,7,2025-05-11,84
STUDY001,LB,STUDY001-SUBJ0008,71,L00071,HGB,Hemoglobin,HEMATOLOGY,14.7,g/dL,13.5,17.5,14.7,14.7,g/dL,13.5,17.5,NORMAL,,WEEK 16,8,2025-06-08,112
STUDY001,LB,STUDY001-SUBJ0008,72,L00072,HCT,Hematocrit,HEMATOLOGY,43.65,%,41.0,51.0,43.65,43.65,%,41.0,51.0,NORMAL,,WEEK 16,8,2025-06-08,112
STUDY001,LB,STUDY001-SUBJ0008,73,L00073,WBC,White Blood Cell Count,HEMATOLOGY,6.1,10^9/L,4.5,11.0,6.1,6.1,10^9/L,4.5,11.0,NORMAL,,WEEK 16,8,2025-06-08,112
STUDY001,LB,STUDY001-SUBJ0008,74,L00074,PLT,Platelet Count,HEMATOLOGY,314.52,10^9/L,150.0,450.0,314.52,314.52,10^9/L,150.0,450.0,NORMAL,,WEEK 16,8,2025-06-08,112
STUDY001,LB,STUDY001-SUBJ0008,75,L00075,GLUC,Glucose,CHEMISTRY,89.08,mg/dL,70.0,100.0,89.08,89.08,mg/dL,70.0,100.0,NORMAL,,WEEK 16,8,2025-06-08,112
STUDY001,LB,STUDY001-SUBJ0008,76,L00076,BUN,Blood Urea Nitrogen,CHEMISTRY,16.44,mg/dL,7.0,20.0,16.44,16.44,mg/dL,7.0,20.0,NORMAL,,WEEK 16,8,2025-06-08,112
STUDY001,LB,STUDY001-SUBJ0008,77,L00077,CREAT,Creatinine,CHEMISTRY,1.21,mg/dL,0.6,1.2,1.21,1.21,mg/dL,0.6,1.2,HIGH,,WEEK 16,8,2025-06-08,112
STUDY001,LB,STUDY001-SUBJ0008,78,L00078,BILI,Total Bilirubin,CHEMISTRY,0.27,mg/dL,0.1,1.2,0.27,0.27,mg/dL,0.1,1.2,NORMAL,,WEEK 16,8,2025-06-08,112
STUDY001,LB,STUDY001-SUBJ0008,79,L00079,ALP,Alkaline Phosphatase,CHEMISTRY,109.2,U/L,44.0,147.0,109.2,109.2,U/L,44.0,147.0,NORMAL,,WEEK 16,8,2025-06-08,112
STUDY001,LB,STUDY001-SUBJ0008,80,L00080,ALT,Alanine Aminotransferase,CHEMISTRY,39.78,U/L,7.0,56.0,39.78,39.78,U/L,7.0,56.0,NORMAL,,WEEK 16,8,2025-06-08,112
STUDY001,LB,STUDY001-SUBJ0008,81,L00081,HGB,Hemoglobin,HEMATOLOGY,14.67,g/dL,13.5,17.5,14.67,14.67,g/dL,13.5,17.5,NORMAL,,END OF TREATMENT,9,2025-07-06,140
STUDY001,LB,STUDY001-SUBJ0008,82,L00082,HCT,Hematocrit,HEMATOLOGY,42.81,%,41.0,51.0,42.81,42.81,%,41.0,51.0,NORMAL,,END OF TREATMENT,9,2025-07-06,140
STUDY001,LB,STUDY001-SUBJ0008,83,L00083,WBC,White Blood Cell Count,HEMATOLOGY,5.73,10^9/L,4.5,11.0,5.73,5.73,10^9/L,4.5,11.0,NORMAL,,END OF TREATMENT,9,2025-07-06,140
STUDY001,LB,STUDY001-SUBJ0008,84,L00084,PLT,Platelet Count,HEMATOLOGY,323.98,10^9/L,150.0,450.0,323.98,323.98,10^9/L,150.0,450.0,NORMAL,,END OF TREATMENT,9,2025-07-06,140
STUDY001,LB,STUDY001-SUBJ0008,85,L00085,GLUC,Glucose,CHEMISTRY,87.42,mg/dL,70.0,100.0,87.42,87.42,mg/dL,70.0,100.0,NORMAL,,END OF TREATMENT,9,2025-07-06,140
STUDY001,LB,STUDY001-SUBJ0008,86,L00086,BUN,Blood Urea Nitrogen,CHEMISTRY,16.32,mg/dL,7.0,20.0,16.32,16.32,mg/dL,7.0,20.0,NORMAL,,END OF TREATMENT,9,2025-07-06,140
STUDY001,LB,STUDY001-SUBJ0008,87,L00087,CREAT,Creatinine,CHEMISTRY,1.21,mg/dL,0.6,1.2,1.21,1.21,mg/dL,0.6,1.2,HIGH,,END OF TREATMENT,9,2025-07-06,140
STUDY001,LB,STUDY001-SUBJ0008,88,L00088,BILI,Total Bilirubin,CHEMISTRY,0.27,mg/dL,0.1,1.2,0.27,0.27,mg/dL,0.1,1.2,NORMAL,,END OF TREATMENT,9,2025-07-06,140
STUDY001,LB,STUDY001-SUBJ0008,89,L00089,ALP,Alkaline Phosphatase,CHEMISTRY,108.23,U/L,44.0,147.0,108.23,108.23,U/L,44.0,147.0,NORMAL,,END OF TREATMENT,9,2025-07-06,140
STUDY001,LB,STUDY001-SUBJ0008,90,L00090,ALT,Alanine Aminotransferase,CHEMISTRY,41.46,U/L,7.0,56.0,41.46,41.46,U/L,7.0,56.0,NORMAL,,END OF TREATMENT,9,2025-07-06,140
STUDY001,LB,STUDY001-SUBJ0009,1,L00001,HGB,Hemoglobin,HEMATOLOGY,14.8,g/dL,13.5,17.5,14.8,14.8,g/dL,13.5,17.5,NORMAL,,SCREENING,1,2024-11-12,-14
STUDY001,LB,STUDY001-SUBJ0009,2,L00002,HCT,Hematocrit,HEMATOLOGY,43.59,%,41.0,51.0,43.59,43.59,%,41.0,51.0,NORMAL,,SCREENING,1,2024-11-12,-14
STUDY001,LB,STUDY001-SUBJ0009,3,L00003,WBC,White Blood Cell Count,HEMATOLOGY,7.19,10^9/L,4.5,11.0,7.19,7.19,10^9/L,4.5,11.0,NORMAL,,SCREENING,1,2024-11-12,-14
STUDY001,LB,STUDY001-SUBJ0009,4,L00004,PLT,Platelet Count,HEMATOLOGY,241.15,10^9/L,150.0,450.0,241.15,241.15,10^9/L,150.0,450.0,NORMAL,,SCREENING,1,2024-11-12,-14
STUDY001,LB,STUDY001-SUBJ0009,5,L00005,GLUC,Glucose,CHEMISTRY,95.22,mg/dL,70.0,100.0,95.22,95.22,mg/dL,70.0,100.0,NORMAL,,SCREENING,1,2024-11-12,-14
STUDY001,LB,STUDY001-SUBJ0009,6,L00006,BUN,Blood Urea Nitrogen,CHEMISTRY,18.32,mg/dL,7.0,20.0,18.32,18.32,mg/dL,7.0,20.0,NORMAL,,SCREENING,1,2024-11-12,-14
STUDY001,LB,STUDY001-SUBJ0009,7,L00007,CREAT,Creatinine,CHEMISTRY,0.67,mg/dL,0.6,1.2,0.67,0.67,mg/dL,0.6,1.2,NORMAL,,SCREENING,1,2024-11-12,-14
STUDY001,LB,STUDY001-SUBJ0009,8,L00008,BILI,Total Bilirubin,CHEMISTRY,0.81,mg/dL,0.1,1.2,0.81,0.81,mg/dL,0.1,1.2,NORMAL,,SCREENING,1,2024-11-12,-14
STUDY001,LB,STUDY001-SUBJ0009,9,L00009,ALP,Alkaline Phosphatase,CHEMISTRY,108.17,U/L,44.0,147.0,108.17,108.17,U/L,44.0,147.0,NORMAL,,SCREENING,1,2024-11-12,-14
STUDY001,LB,STUDY001-SUBJ0009,10,L00010,ALT,Alanine Aminotransferase,CHEMISTRY,39.27,U/L,7.0,56.0,39.27,39.27,U/L,7.0,56.0,NORMAL,,SCREENING,1,2024-11-12,-14
STUDY001,LB,STUDY001-SUBJ0009,11,L00011,HGB,Hemoglobin,HEMATOLOGY,14.94,g/dL,13.5,17.5,14.94,14.94,g/dL,13.5,17.5,NORMAL,Y,BASELINE,2,2024-11-26,1
STUDY001,LB,STUDY001-SUBJ0009,12,L00012,HCT,Hematocrit,HEMATOLOGY,43.16,%,41.0,51.0,43.16,43.16,%,41.0,51.0,NORMAL,Y,BASELINE,2,2024-11-26,1
STUDY001,LB,STUDY001-SUBJ0009,13,L00013,WBC,White Blood Cell Count,HEMATOLOGY,6.9,10^9/L,4.5,11.0,6.9,6.9,10^9/L,4.5,11.0,NORMAL,Y,BASELINE,2,2024-11-26,1
STUDY001,LB,STUDY001-SUBJ0009,14,L00014,PLT,Platelet Count,HEMATOLOGY,236.24,10^9/L,150.0,450.0,236.24,236.24,10^9/L,150.0,450.0,NORMAL,Y,BASELINE,2,2024-11-26,1
STUDY001,LB,STUDY001-SUBJ0009,15,L00015,GLUC,Glucose,CHEMISTRY,94.23,mg/dL,70.0,100.0,94.23,94.23,mg/dL,70.0,100.0,NORMAL,Y,BASELINE,2,2024-11-26,1
STUDY001,LB,STUDY001-SUBJ0009,16,L00016,BUN,Blood Urea Nitrogen,CHEMISTRY,17.99,mg/dL,7.0,20.0,17.99,17.99,mg/dL,7.0,20.0,NORMAL,Y,BASELINE,2,2024-11-26,1
STUDY001,LB,STUDY001-SUBJ0009,17,L00017,CREAT,Creatinine,CHEMISTRY,0.68,mg/dL,0.6,1.2,0.68,0.68,mg/dL,0.6,1.2,NORMAL,Y,BASELINE,2,2024-11-26,1
STUDY001,LB,STUDY001-SUBJ0009,18,L00018,BILI,Total Bilirubin,CHEMISTRY,0.83,mg/dL,0.1,1.2,0.83,0.83,mg/dL,0.1,1.2,NORMAL,Y,BASELINE,2,2024-11-26,1
STUDY001,LB,STUDY001-SUBJ0009,19,L00019,ALP,Alkaline Phosphatase,CHEMISTRY,108.65,U/L,44.0,147.0,108.65,108.65,U/L,44.0,147.0,NORMAL,Y,BASELINE,2,2024-11-26,1
STUDY001,LB,STUDY001-SUBJ0009,20,L00020,ALT,Alanine Aminotransferase,CHEMISTRY,38.37,U/L,7.0,56.0,38.37,38.37,U/L,7.0,56.0,NORMAL,Y,BASELINE,2,2024-11-26,1
STUDY001,LB,STUDY001-SUBJ0009,21,L00021,HGB,Hemoglobin,HEMATOLOGY,14.88,g/dL,13.5,17.5,14.88,14.88,g/dL,13.5,17.5,NORMAL,,WEEK 1,3,2024-12-02,7
STUDY001,LB,STUDY001-SUBJ0009,22,L00022,HCT,Hematocrit,HEMATOLOGY,43.53,%,41.0,51.0,43.53,43.53,%,41.0,51.0,NORMAL,,WEEK 1,3,2024-12-02,7
STUDY001,LB,STUDY001-SUBJ0009,23,L00023,WBC,White Blood Cell Count,HEMATOLOGY,7.14,10^9/L,4.5,11.0,7.14,7.14,10^9/L,4.5,11.0,NORMAL,,WEEK 1,3,2024-12-02,7
STUDY001,LB,STUDY001-SUBJ0009,24,L00024,PLT,Platelet Count,HEMATOLOGY,247.49,10^9/L,150.0,450.0,247.49,247.49,10^9/L,150.0,450.0,NORMAL,,WEEK 1,3,2024-12-02,7
STUDY001,LB,STUDY001-SUBJ0009,25,L00025,GLUC,Glucose,CHEMISTRY,92.73,mg/dL,70.0,100.0,92.73,92.73,mg/dL,70.0,100.0,NORMAL,,WEEK 1,3,2024-12-02,7
STUDY001,LB,STUDY001-SUBJ0009,26,L00026,BUN,Blood Urea Nitrogen,CHEMISTRY,18.57,mg/dL,7.0,20.0,18.57,18.57,mg/dL,7.0,20.0,NORMAL,,WEEK 1,3,2024-12-02,7
STUDY001,LB,STUDY001-SUBJ0009,27,L00027,CREAT,Creatinine,CHEMISTRY,0.7,mg/dL,0.6,1.2,0.7,0.7,mg/dL,0.6,1.2,NORMAL,,WEEK 1,3,2024-12-02,7
STUDY001,LB,STUDY001-SUBJ0009,28,L00028,BILI,Total Bilirubin,CHEMISTRY,0.8,mg/dL,0.1,1.2,0.8,0.8,mg/dL,0.1,1.2,NORMAL,,WEEK 1,3,2024-12-02,7
STUDY001,LB,STUDY001-SUBJ0009,29,L00029,ALP,Alkaline Phosphatase,CHEMISTRY,113.58,U/L,44.0,147.0,113.58,113.58,U/L,44.0,147.0,NORMAL,,WEEK 1,3,2024-12-02,7
STUDY001,LB,STUDY001-SUBJ0009,30,L00030,ALT,Alanine Aminotransferase,CHEMISTRY,38.87,U/L,7.0,56.0,38.87,38.87,U/L,7.0,56.0,NORMAL,,WEEK 1,3,2024-12-02,7
STUDY001,LB,STUDY001-SUBJ0009,31,L00031,HGB,Hemoglobin,HEMATOLOGY,15.03,g/dL,13.5,17.5,15.03,15.03,g/dL,13.5,17.5,NORMAL,,WEEK 2,4,2024-12-09,14
STUDY001,LB,STUDY001-SUBJ0009,32,L00032,HCT,Hematocrit,HEMATOLOGY,43.63,%,41.0,51.0,43.63,43.63,%,41.0,51.0,NORMAL,,WEEK 2,4,2024-12-09,14
STUDY001,LB,STUDY001-SUBJ0009,33,L00033,WBC,White Blood Cell Count,HEMATOLOGY,6.98,10^9/L,4.5,11.0,6.98,6.98,10^9/L,4.5,11.0,NORMAL,,WEEK 2,4,2024-12-09,14
STUDY001,LB,STUDY001-SUBJ0009,34,L00034,PLT,Platelet Count,HEMATOLOGY,248.51,10^9/L,150.0,450.0,248.51,248.51,10^9/L,150.0,450.0,NORMAL,,WEEK 2,4,2024-12-09,14
STUDY001,LB,STUDY001-SUBJ0009,35,L00035,GLUC,Glucose,CHEMISTRY,93.43,mg/dL,70.0,100.0,93.43,93.43,mg/dL,70.0,100.0,NORMAL,,WEEK 2,4,2024-12-09,14
STUDY001,LB,STUDY001-SUBJ0009,36,L00036,BUN,Blood Urea Nitrogen,CHEMISTRY,17.75,mg/dL,7.0,20.0,17.75,17.75,mg/dL,7.0,20.0,NORMAL,,WEEK 2,4,2024-12-09,14
STUDY001,LB,STUDY001-SUBJ0009,37,L00037,CREAT,Creatinine,CHEMISTRY,0.68,mg/dL,0.6,1.2,0.68,0.68,mg/dL,0.6,1.2,NORMAL,,WEEK 2,4,2024-12-09,14
STUDY001,LB,STUDY001-SUBJ0009,38,L00038,BILI,Total Bilirubin,CHEMISTRY,0.83,mg/dL,0.1,1.2,0.83,0.83,mg/dL,0.1,1.2,NORMAL,,WEEK 2,4,2024-12-09,14
STUDY001,LB,STUDY001-SUBJ0009,39,L00039,ALP,Alkaline Phosphatase,CHEMISTRY,112.22,U/L,44.0,147.0,112.22,112.22,U/L,44.0,147.0,NORMAL,,WEEK 2,4,2024-12-09,14
STUDY001,LB,STUDY001-SUBJ0009,40,L00040,ALT,Alanine Aminotransferase,CHEMISTRY,38.84,U/L,7.0,56.0,38.84,38.84,U/L,7.0,56.0,NORMAL,,WEEK 2,4,2024-12-09,14
STUDY001,LB,STUDY001-SUBJ0009,41,L00041,HGB,Hemoglobin,HEMATOLOGY,14.81,g/dL,13.5,17.5,14.81,14.81,g/dL,13.5,17.5,NORMAL,,WEEK 4,5,2024-12-23,28
STUDY001,LB,STUDY001-SUBJ0009,42,L00042,HCT,Hematocrit,HEMATOLOGY,43.61,%,41.0,51.0,43.61,43.61,%,41.0,51.0,NORMAL,,WEEK 4,5,2024-12-23,28
STUDY001,LB,STUDY001-SUBJ0009,43,L00043,WBC,White Blood Cell Count,HEMATOLOGY,7.04,10^9/L,4.5,11.0,7.04,7.04,10^9/L,4.5,11.0,NORMAL,,WEEK 4,5,2024-12-23,28
STUDY001,LB,STUDY001-SUBJ0009,44,L00044,PLT,Platelet Count,HEMATOLOGY,242.79,10^9/L,150.0,450.0,242.79,242.79,10^9/L,150.0,450.0,NORMAL,,WEEK 4,5,2024-12-23,28
STUDY001,LB,STUDY001-SUBJ0009,45,L00045,GLUC,Glucose,CHEMISTRY,95.3,mg/dL,70.0,100.0,95.3,95.3,mg/dL,70.0,100.0,NORMAL,,WEEK 4,5,2024-12-23,28
STUDY001,LB,STUDY001-SUBJ0009,46,L00046,BUN,Blood Urea Nitrogen,CHEMISTRY,18.09,mg/dL,7.0,20.0,18.09,18.09,mg/dL,7.0,20.0,NORMAL,,WEEK 4,5,2024-12-23,28
STUDY001,LB,STUDY001-SUBJ0009,47,L00047,CREAT,Creatinine,CHEMISTRY,0.66,mg/dL,0.6,1.2,0.66,0.66,mg/dL,0.6,1.2,NORMAL,,WEEK 4,5,2024-12-23,28
STUDY001,LB,STUDY001-SUBJ0009,48,L00048,BILI,Total Bilirubin,CHEMISTRY,0.83,mg/dL,0.1,1.2,0.83,0.83,mg/dL,0.1,1.2,NORMAL,,WEEK 4,5,2024-12-23,28
STUDY001,LB,STUDY001-SUBJ0009,49,L00049,ALP,Alkaline Phosphatase,CHEMISTRY,108.9,U/L,44.0,147.0,108.9,108.9,U/L,44.0,147.0,NORMAL,,WEEK 4,5,2024-12-23,28
STUDY001,LB,STUDY001-SUBJ0009,50,L00050,ALT,Alanine Aminotransferase,CHEMISTRY,39.97,U/L,7.0,56.0,39.97,39.97,U/L,7.0,56.0,NORMAL,,WEEK 4,5,2024-12-23,28
STUDY001,LB,STUDY001-SUBJ0009,51,L00051,HGB,Hemoglobin,HEMATOLOGY,14.84,g/dL,13.5,17.5,14.84,14.84,g/dL,13.5,17.5,NORMAL,,WEEK 8,6,2025-01-20,56
STUDY001,LB,STUDY001-SUBJ0009,52,L00052,HCT,Hematocrit,HEMATOLOGY,43.7,%,41.0,51.0,43.7,43.7,%,41.0,51.0,NORMAL,,WEEK 8,6,2025-01-20,56
STUDY001,LB,STUDY001-SUBJ0009,53,L00053,WBC,White Blood Cell Count,HEMATOLOGY,6.58,10^9/L,4.5,11.0,6.58,6.58,10^9/L,4.5,11.0,NORMAL,,WEEK 8,6,2025-01-20,56
STUDY001,LB,STUDY001-SUBJ0009,54,L00054,PLT,Platelet Count,HEMATOLOGY,241.51,10^9/L,150.0,450.0,241.51,241.51,10^9/L,150.0,450.0,NORMAL,,WEEK 8,6,2025-01-20,56
STUDY001,LB,STUDY001-SUBJ0009,55,L00055,GLUC,Glucose,CHEMISTRY,95.71,mg/dL,70.0,100.0,95.71,95.71,mg/dL,70.0,100.0,NORMAL,,WEEK 8,6,2025-01-20,56
STUDY001,LB,STUDY001-SUBJ0009,56,L00056,BUN,Blood Urea Nitrogen,CHEMISTRY,18.06,mg/dL,7.0,20.0,18.06,18.06,mg/dL,7.0,20.0,NORMAL,,WEEK 8,6,2025-01-20,56
STUDY001,LB,STUDY001-SUBJ0009,57,L00057,CREAT,Creatinine,CHEMISTRY,0.67,mg/dL,0.6,1.2,0.67,0.67,mg/dL,0.6,1.2,NORMAL,,WEEK 8,6,2025-01-20,56
STUDY001,LB,STUDY001-SUBJ0009,58,L00058,BILI,Total Bilirubin,CHEMISTRY,0.83,mg/dL,0.1,1.2,0.83,0.83,mg/dL,0.1,1.2,NORMAL,,WEEK 8,6,2025-01-20,56
STUDY001,LB,STUDY001-SUBJ0009,59,L00059,ALP,Alkaline Phosphatase,CHEMISTRY,110.0,U/L,44.0,147.0,110.0,110.0,U/L,44.0,147.0,NORMAL,,WEEK 8,6,2025-01-20,56
STUDY001,LB,STUDY001-SUBJ0009,60,L00060,ALT,Alanine Aminotransferase,CHEMISTRY,42.01,U/L,7.0,56.0,42.01,42.01,U/L,7.0,56.0,NORMAL,,WEEK 8,6,2025-01-20,56
STUDY001,LB,STUDY001-SUBJ0009,61,L00061,HGB,Hemoglobin,HEMATOLOGY,14.95,g/dL,13.5,17.5,14.95,14.95,g/dL,13.5,17.5,NORMAL,,WEEK 12,7,2025-02-17,84
STUDY001,LB,STUDY001-SUBJ0009,62,L00062,HCT,Hematocrit,HEMATOLOGY,43.9,%,41.0,51.0,43.9,43.9,%,41.0,51.0,NORMAL,,WEEK 12,7,2025-02-17,84
STUDY001,LB,STUDY001-SUBJ0009,63,L00063,WBC,White Blood Cell Count,HEMATOLOGY,6.92,10^9/L,4.5,11.0,6.92,6.92,10^9/L,4.5,11.0,NORMAL,,WEEK 12,7,2025-02-17,84
STUDY001,LB,STUDY001-SUBJ0009,64,L00064,PLT,Platelet Count,HEMATOLOGY,245.88,10^9/L,150.0,450.0,245.88,245.88,10^9/L,150.0,450.0,NORMAL,,WEEK 12,7,2025-02-17,84
STUDY001,LB,STUDY001-SUBJ0009,65,L00065,GLUC,Glucose,CHEMISTRY,95.04,mg/dL,70.0,100.0,95.04,95.04,mg/dL,70.0,100.0,NORMAL,,WEEK 12,7,2025-02-17,84
STUDY001,LB,STUDY001-SUBJ0009,66,L00066,BUN,Blood Urea Nitrogen,CHEMISTRY,18.29,mg/dL,7.0,20.0,18.29,18.29,mg/dL,7.0,20.0,NORMAL,,WEEK 12,7,2025-02-17,84
STUDY001,LB,STUDY001-SUBJ0009,67,L00067,CREAT,Creatinine,CHEMISTRY,0.69,mg/dL,0.6,1.2,0.69,0.69,mg/dL,0.6,1.2,NORMAL,,WEEK 12,7,2025-02-17,84
STUDY001,LB,STUDY001-SUBJ0009,68,L00068,BILI,Total Bilirubin,CHEMISTRY,0.84,mg/dL,0.1,1.2,0.84,0.84,mg/dL,0.1,1.2,NORMAL,,WEEK 12,7,2025-02-17,84
STUDY001,LB,STUDY001-SUBJ0009,69,L00069,ALP,Alkaline Phosphatase,CHEMISTRY,109.82,U/L,44.0,147.0,109.82,109.82,U/L,44.0,147.0,NORMAL,,WEEK 12,7,2025-02-17,84
STUDY001,LB,STUDY001-SUBJ0009,70,L00070,ALT,Alanine Aminotransferase,CHEMISTRY,39.34,U/L,7.0,56.0,39.34,39.34,U/L,7.0,56.0,NORMAL,,WEEK 12,7,2025-02-17,84
STUDY001,LB,STUDY001-SUBJ0009,71,L00071,HGB,Hemoglobin,HEMATOLOGY,14.73,g/dL,13.5,17.5,14.73,14.73,g/dL,13.5,17.5,NORMAL,,WEEK 16,8,2025-03-17,112
STUDY001,LB,STUDY001-SUBJ0009,72,L00072,HCT,Hematocrit,HEMATOLOGY,44.05,%,41.0,51.0,44.05,44.05,%,41.0,51.0,NORMAL,,WEEK 16,8,2025-03-17,112
STUDY001,LB,STUDY001-SUBJ0009,73,L00073,WBC,White Blood Cell Count,HEMATOLOGY,7.03,10^9/L,4.5,11.0,7.03,7.03,10^9/L,4.5,11.0,NORMAL,,WEEK 16,8,2025-03-17,112
STUDY001,LB,STUDY001-SUBJ0009,74,L00074,PLT,Platelet Count,HEMATOLOGY,246.53,10^9/L,150.0,450.0,246.53,246.53,10^9/L,150.0,450.0,NORMAL,,WEEK 16,8,2025-03-17,112
STUDY001,LB,STUDY001-SUBJ0009,75,L00075,GLUC,Glucose,CHEMISTRY,96.52,mg/dL,70.0,100.0,96.52,96.52,mg/dL,70.0,100.0,NORMAL,,WEEK 16,8,2025-03-17,112
STUDY001,LB,STUDY001-SUBJ0009,76,L00076,BUN,Blood Urea Nitrogen,CHEMISTRY,18.56,mg/dL,7.0,20.0,18.56,18.56,mg/dL,7.0,20.0,NORMAL,,WEEK 16,8,2025-03-17,112
STUDY001,LB,STUDY001-SUBJ0009,77,L00077,CREAT,Creatinine,CHEMISTRY,0.7,mg/dL,0.6,1.2,0.7,0.7,mg/dL,0.6,1.2,NORMAL,,WEEK 16,8,2025-03-17,112
STUDY001,LB,STUDY001-SUBJ0009,78,L00078,BILI,Total Bilirubin,CHEMISTRY,0.81,mg/dL,0.1,1.2,0.81,0.81,mg/dL,0.1,1.2,NORMAL,,WEEK 16,8,2025-03-17,112
STUDY001,LB,STUDY001-SUBJ0009,79,L00079,ALP,Alkaline Phosphatase,CHEMISTRY,110.73,U/L,44.0,147.0,110.73,110.73,U/L,44.0,147.0,NORMAL,,WEEK 16,8,2025-03-17,112
STUDY001,LB,STUDY001-SUBJ0009,80,L00080,ALT,Alanine Aminotransferase,CHEMISTRY,39.92,U/L,7.0,56.0,39.92,39.92,U/L,7.0,56.0,NORMAL,,WEEK 16,8,2025-03-17,112
STUDY001,LB,STUDY001-SUBJ0009,81,L00081,HGB,Hemoglobin,HEMATOLOGY,14.85,g/dL,13.5,17.5,14.85,14.85,g/dL,13.5,17.5,NORMAL,,END OF TREATMENT,9,2025-04-14,140
STUDY001,LB,STUDY001-SUBJ0009,82,L00082,HCT,Hematocrit,HEMATOLOGY,43.54,%,41.0,51.0,43.54,43.54,%,41.0,51.0,NORMAL,,END OF TREATMENT,9,2025-04-14,140
STUDY001,LB,STUDY001-SUBJ0009,83,L00083,WBC,White Blood Cell Count,HEMATOLOGY,6.79,10^9/L,4.5,11.0,6.79,6.79,10^9/L,4.5,11.0,NORMAL,,END OF TREATMENT,9,2025-04-14,140
STUDY001,LB,STUDY001-SUBJ0009,84,L00084,PLT,Platelet Count,HEMATOLOGY,253.82,10^9/L,150.0,450.0,253.82,253.82,10^9/L,150.0,450.0,NORMAL,,END OF TREATMENT,9,2025-04-14,140
STUDY001,LB,STUDY001-SUBJ0009,85,L00085,GLUC,Glucose,CHEMISTRY,92.94,mg/dL,70.0,100.0,92.94,92.94,mg/dL,70.0,100.0,NORMAL,,END OF TREATMENT,9,2025-04-14,140
STUDY001,LB,STUDY001-SUBJ0009,86,L00086,BUN,Blood Urea Nitrogen,CHEMISTRY,19.0,mg/dL,7.0,20.0,19.0,19.0,mg/dL,7.0,20.0,NORMAL,,END OF TREATMENT,9,2025-04-14,140
STUDY001,LB,STUDY001-SUBJ0009,87,L00087,CREAT,Creatinine,CHEMISTRY,0.71,mg/dL,0.6,1.2,0.71,0.71,mg/dL,0.6,1.2,NORMAL,,END OF TREATMENT,9,2025-04-14,140
STUDY001,LB,STUDY001-SUBJ0009,88,L00088,BILI,Total Bilirubin,CHEMISTRY,0.85,mg/dL,0.1,1.2,0.85,0.85,mg/dL,0.1,1.2,NORMAL,,END OF TREATMENT,9,2025-04-14,140
STUDY001,LB,STUDY001-SUBJ0009,89,L00089,ALP,Alkaline Phosphatase,CHEMISTRY,108.23,U/L,44.0,147.0,108.23,108.23,U/L,44.0,147.0,NORMAL,,END OF TREATMENT,9,2025-04-14,140
STUDY001,LB,STUDY001-SUBJ0009,90,L00090,ALT,Alanine Aminotransferase,CHEMISTRY,40.11,U/L,7.0,56.0,40.11,40.11,U/L,7.0,56.0,NORMAL,,END OF TREATMENT,9,2025-04-14,140
STUDY001,LB,STUDY001-SUBJ0010,1,L00001,HGB,Hemoglobin,HEMATOLOGY,14.88,g/dL,13.5,17.5,14.88,14.88,g/dL,13.5,17.5,NORMAL,,SCREENING,1,2025-04-13,-14
STUDY001,LB,STUDY001-SUBJ0010,2,L00002,HCT,Hematocrit,HEMATOLOGY,42.95,%,41.0,51.0,42.95,42.95,%,41.0,51.0,NORMAL,,SCREENING,1,2025-04-13,-14
STUDY001,LB,STUDY001-SUBJ0010,3,L00003,WBC,White Blood Cell Count,HEMATOLOGY,6.59,10^9/L,4.5,11.0,6.59,6.59,10^9/L,4.5,11.0,NORMAL,,SCREENING,1,2025-04-13,-14
STUDY001,LB,STUDY001-SUBJ0010,4,L00004,PLT,Platelet Count,HEMATOLOGY,259.92,10^9/L,150.0,450.0,259.92,259.92,10^9/L,150.0,450.0,NORMAL,,SCREENING,1,2025-04-13,-14
STUDY001,LB,STUDY001-SUBJ0010,5,L00005,GLUC,Glucose,CHEMISTRY,97.53,mg/dL,70.0,100.0,97.53,97.53,mg/dL,70.0,100.0,NORMAL,,SCREENING,1,2025-04-13,-14
STUDY001,LB,STUDY001-SUBJ0010,6,L00006,BUN,Blood Urea Nitrogen,CHEMISTRY,13.56,mg/dL,7.0,20.0,13.56,13.56,mg/dL,7.0,20.0,NORMAL,,SCREENING,1,2025-04-13,-14
STUDY001,LB,STUDY001-SUBJ0010,7,L00007,CREAT,Creatinine,CHEMISTRY,0.66,mg/dL,0.6,1.2,0.66,0.66,mg/dL,0.6,1.2,NORMAL,,SCREENING,1,2025-04-13,-14
STUDY001,LB,STUDY001-SUBJ0010,8,L00008,BILI,Total Bilirubin,CHEMISTRY,0.83,mg/dL,0.1,1.2,0.83,0.83,mg/dL,0.1,1.2,NORMAL,,SCREENING,1,2025-04-13,-14
STUDY001,LB,STUDY001-SUBJ0010,9,L00009,ALP,Alkaline Phosphatase,CHEMISTRY,119.58,U/L,44.0,147.0,119.58,119.58,U/L,44.0,147.0,NORMAL,,SCREENING,1,2025-04-13,-14
STUDY001,LB,STUDY001-SUBJ0010,10,L00010,ALT,Alanine Aminotransferase,CHEMISTRY,31.3,U/L,7.0,56.0,31.3,31.3,U/L,7.0,56.0,NORMAL,,SCREENING,1,2025-04-13,-14
STUDY001,LB,STUDY001-SUBJ0010,11,L00011,HGB,Hemoglobin,HEMATOLOGY,14.83,g/dL,13.5,17.5,14.83,14.83,g/dL,13.5,17.5,NORMAL,Y,BASELINE,2,2025-04-27,1
STUDY001,LB,STUDY001-SUBJ0010,12,L00012,HCT,Hematocrit,HEMATOLOGY,43.17,%,41.0,51.0,43.17,43.17,%,41.0,51.0,NORMAL,Y,BASELINE,2,2025-04-27,1
STUDY001,LB,STUDY001-SUBJ0010,13,L00013,WBC,White Blood Cell Count,HEMATOLOGY,6.59,10^9/L,4.5,11.0,6.59,6.59,10^9/L,4.5,11.0,NORMAL,Y,BASELINE,2,2025-04-27,1
STUDY001,LB,STUDY001-SUBJ0010,14,L00014,PLT,Platelet Count,HEMATOLOGY,253.84,10^9/L,150.0,450.0,253.84,253.84,10^9/L,150.0,450.0,NORMAL,Y,BASELINE,2,2025-04-27,1
STUDY001,LB,STUDY001-SUBJ0010,15,L00015,GLUC,Glucose,CHEMISTRY,99.54,mg/dL,70.0,100.0,99.54,99.54,mg/dL,70.0,100.0,NORMAL,Y,BASELINE,2,2025-04-27,1
STUDY001,LB,STUDY001-SUBJ0010,16,L00016,BUN,Blood Urea Nitrogen,CHEMISTRY,13.75,mg/dL,7.0,20.0,13.75,13.75,mg/dL,7.0,20.0,NORMAL,Y,BASELINE,2,2025-04-27,1
STUDY001,LB,STUDY001-SUBJ0010,17,L00017,CREAT,Creatinine,CHEMISTRY,0.66,mg/dL,0.6,1.2,0.66,0.66,mg/dL,0.6,1.2,NORMAL,Y,BASELINE,2,2025-04-27,1
STUDY001,LB,STUDY001-SUBJ0010,18,L00018,BILI,Total Bilirubin,CHEMISTRY,0.84,mg/dL,0.1,1.2,0.84,0.84,mg/dL,0.1,1.2,NORMAL,Y,BASELINE,2,2025-04-27,1
STUDY001,LB,STUDY001-SUBJ0010,19,L00019,ALP,Alkaline Phosphatase,CHEMISTRY,123.74,U/L,44.0,147.0,123.74,123.74,U/L,44.0,147.0,NORMAL,Y,BASELINE,2,2025-04-27,1
STUDY001,LB,STUDY001-SUBJ0010,20,L00020,ALT,Alanine Aminotransferase,CHEMISTRY,32.63,U/L,7.0,56.0,32.63,32.63,U/L,7.0,56.0,NORMAL,Y,BASELINE,2,2025-04-27,1
STUDY001,LB,STUDY001-SUBJ0010,21,L00021,HGB,Hemoglobin,HEMATOLOGY,14.88,g/dL,13.5,17.5,14.88,14.88,g/dL,13.5,17.5,NORMAL,,WEEK 1,3,2025-05-03,7
STUDY001,LB,STUDY001-SUBJ0010,22,L00022,HCT,Hematocrit,HEMATOLOGY,43.74,%,41.0,51.0,43.74,43.74,%,41.0,51.0,NORMAL,,WEEK 1,3,2025-05-03,7
STUDY001,LB,STUDY001-SUBJ0010,23,L00023,WBC,White Blood Cell Count,HEMATOLOGY,6.77,10^9/L,4.5,11.0,6.77,6.77,10^9/L,4.5,11.0,NORMAL,,WEEK 1,3,2025-05-03,7
STUDY001,LB,STUDY001-SUBJ0010,24,L00024,PLT,Platelet Count,HEMATOLOGY,259.26,10^9/L,150.0,450.0,259.26,259.26,10^9/L,150.0,450.0,NORMAL,,WEEK 1,3,2025-05-03,7
STUDY001,LB,STUDY001-SUBJ0010,25,L00025,GLUC,Glucose,CHEMISTRY,99.56,mg/dL,70.0,100.0,99.56,99.56,mg/dL,70.0,100.0,NORMAL,,WEEK 1,3,2025-05-03,7
STUDY001,LB,STUDY001-SUBJ0010,26,L00026,BUN,Blood Urea Nitrogen,CHEMISTRY,13.37,mg/dL,7.0,20.0,13.37,13.37,mg/dL,7.0,20.0,NORMAL,,WEEK 1,3,2025-05-03,7
STUDY001,LB,STUDY001-SUBJ0010,27,L00027,CREAT,Creatinine,CHEMISTRY,0.64,mg/dL,0.6,1.2,0.64,0.64,mg/dL,0.6,1.2,NORMAL,,WEEK 1,3,2025-05-03,7
STUDY001,LB,STUDY001-SUBJ0010,28,L00028,BILI,Total Bilirubin,CHEMISTRY,0.83,mg/dL,0.1,1.2,0.83,0.83,mg/dL,0.1,1.2,NORMAL,,WEEK 1,3,2025-05-03,7
STUDY001,LB,STUDY001-SUBJ0010,29,L00029,ALP,Alkaline Phosphatase,CHEMISTRY,119.29,U/L,44.0,147.0,119.29,119.29,U/L,44.0,147.0,NORMAL,,WEEK 1,3,2025-05-03,7
STUDY001,LB,STUDY001-SUBJ0010,30,L00030,ALT,Alanine Aminotransferase,CHEMISTRY,31.34,U/L,7.0,56.0,31.34,31.34,U/L,7.0,56.0,NORMAL,,WEEK 1,3,2025-05-03,7
STUDY001,LB,STUDY001-SUBJ0010,31,L00031,HGB,Hemoglobin,HEMATOLOGY,14.82,g/dL,13.5,17.5,14.82,14.82,g/dL,13.5,17.5,NORMAL,,WEEK 2,4,2025-05-10,14
STUDY001,LB,STUDY001-SUBJ0010,32,L00032,HCT,Hematocrit,HEMATOLOGY,42.43,%,41.0,51.0,42.43,42.43,%,41.0,51.0,NORMAL,,WEEK 2,4,2025-05-10,14
STUDY001,LB,STUDY001-SUBJ0010,33,L00033,WBC,White Blood Cell Count,HEMATOLOGY,6.38,10^9/L,4.5,11.0,6.38,6.38,10^9/L,4.5,11.0,NORMAL,,WEEK 2,4,2025-05-10,14
STUDY001,LB,STUDY001-SUBJ0010,34,L00034,PLT,Platelet Count,HEMATOLOGY,265.87,10^9/L,150.0,450.0,265.87,265.87,10^9/L,150.0,450.0,NORMAL,,WEEK 2,4,2025-05-10,14
STUDY001,LB,STUDY001-SUBJ0010,35,L00035,GLUC,Glucose,CHEMISTRY,99.45,mg/dL,70.0,100.0,99.45,99.45,mg/dL,70.0,100.0,NORMAL,,WEEK 2,4,2025-05-10,14
STUDY001,LB,STUDY001-SUBJ0010,36,L00036,BUN,Blood Urea Nitrogen,CHEMISTRY,14.19,mg/dL,7.0,20.0,14.19,14.19,mg/dL,7.0,20.0,NORMAL,,WEEK 2,4,2025-05-10,14
STUDY001,LB,STUDY001-SUBJ0010,37,L00037,CREAT,Creatinine,CHEMISTRY,0.64,mg/dL,0.6,1.2,0.64,0.64,mg/dL,0.6,1.2,NORMAL,,WEEK 2,4,2025-05-10,14
STUDY001,LB,STUDY001-SUBJ0010,38,L00038,BILI,Total Bilirubin,CHEMISTRY,0.85,mg/dL,0.1,1.2,0.85,0.85,mg/dL,0.1,1.2,NORMAL,,WEEK 2,4,2025-05-10,14
STUDY001,LB,STUDY001-SUBJ0010,39,L00039,ALP,Alkaline Phosphatase,CHEMISTRY,123.71,U/L,44.0,147.0,123.71,123.71,U/L,44.0,147.0,NORMAL,,WEEK 2,4,2025-05-10,14
STUDY001,LB,STUDY001-SUBJ0010,40,L00040,ALT,Alanine Aminotransferase,CHEMISTRY,32.39,U/L,7.0,56.0,32.39,32.39,U/L,7.0,56.0,NORMAL,,WEEK 2,4,2025-05-10,14
STUDY001,LB,STUDY001-SUBJ0010,41,L00041,HGB,Hemoglobin,HEMATOLOGY,14.94,g/dL,13.5,17.5,14.94,14.94,g/dL,13.5,17.5,NORMAL,,WEEK 4,5,2025-05-24,28
STUDY001,LB,STUDY001-SUBJ0010,42,L00042,HCT,Hematocrit,HEMATOLOGY,43.32,%,41.0,51.0,43.32,43.32,%,41.0,51.0,NORMAL,,WEEK 4,5,2025-05-24,28
STUDY001,LB,STUDY001-SUBJ0010,43,L00043,WBC,White Blood Cell Count,HEMATOLOGY,6.63,10^9/L,4.5,11.0,6.63,6.63,10^9/L,4.5,11.0,NORMAL,,WEEK 4,5,2025-05-24,28
STUDY001,LB,STUDY001-SUBJ0010,44,L00044,PLT,Platelet Count,HEMATOLOGY,256.82,10^9/L,150.0,450.0,256.82,256.82,10^9/L,150.0,450.0,NORMAL,,WEEK 4,5,2025-05-24,28
STUDY001,LB,STUDY001-SUBJ0010,45,L00045,GLUC,Glucose,CHEMISTRY,99.66,mg/dL,70.0,100.0,99.66,99.66,mg/dL,70.0,100.0,NORMAL,,WEEK 4,5,2025-05-24,28
STUDY001,LB,STUDY001-SUBJ0010,46,L00046,BUN,Blood Urea Nitrogen,CHEMISTRY,13.87,mg/dL,7.0,20.0,13.87,13.87,mg/dL,7.0,20.0,NORMAL,,WEEK 4,5,2025-05-24,28
STUDY001,LB,STUDY001-SUBJ0010,47,L00047,CREAT,Creatinine,CHEMISTRY,0.68,mg/dL,0.6,1.2,0.68,0.68,mg/dL,0.6,1.2,NORMAL,,WEEK 4,5,2025-05-24,28
STUDY001,LB,STUDY001-SUBJ0010,48,L00048,BILI,Total Bilirubin,CHEMISTRY,0.81,mg/dL,0.1,1.2,0.81,0.81,mg/dL,0.1,1.2,NORMAL,,WEEK 4,5,2025-05-24,28
STUDY001,LB,STUDY001-SUBJ0010,49,L00049,ALP,Alkaline Phosphatase,CHEMISTRY,122.42,U/L,44.0,147.0,122.42,122.42,U/L,44.0,147.0,NORMAL,,WEEK 4,5,2025-05-24,28
STUDY001,LB,STUDY001-SUBJ0010,50,L00050,ALT,Alanine Aminotransferase,CHEMISTRY,31.43,U/L,7.0,56.0,31.43,31.43,U/L,7.0,56.0,NORMAL,,WEEK 4,5,2025-05-24,28
STUDY001,LB,STUDY001-SUBJ0010,51,L00051,HGB,Hemoglobin,HEMATOLOGY,14.66,g/dL,13.5,17.5,14.66,14.66,g/dL,13.5,17.5,NORMAL,,WEEK 8,6,2025-06-21,56
STUDY001,LB,STUDY001-SUBJ0010,52,L00052,HCT,Hematocrit,HEMATOLOGY,43.47,%,41.0,51.0,43.47,43.47,%,41.0,51.0,NORMAL,,WEEK 8,6,2025-06-21,56
STUDY001,LB,STUDY001-SUBJ0010,53,L00053,WBC,White Blood Cell Count,HEMATOLOGY,6.51,10^9/L,4.5,11.0,6.51,6.51,10^9/L,4.5,11.0,NORMAL,,WEEK 8,6,2025-06-21,56
STUDY001,LB,STUDY001-SUBJ0010,54,L00054,PLT,Platelet Count,HEMATOLOGY,262.39,10^9/L,150.0,450.0,262.39,262.39,10^9/L,150.0,450.0,NORMAL,,WEEK 8,6,2025-06-21,56
STUDY001,LB,STUDY001-SUBJ0010,55,L00055,GLUC,Glucose,CHEMISTRY,98.15,mg/dL,70.0,100.0,98.15,98.15,mg/dL,70.0,100.0,NORMAL,,WEEK 8,6,2025-06-21,56
STUDY001,LB,STUDY001-SUBJ0010,56,L00056,BUN,Blood Urea Nitrogen,CHEMISTRY,13.59,mg/dL,7.0,20.0,13.59,13.59,mg/dL,7.0,20.0,NORMAL,,WEEK 8,6,2025-06-21,56
STUDY001,LB,STUDY001-SUBJ0010,57,L00057,CREAT,Creatinine,CHEMISTRY,0.69,mg/dL,0.6,1.2,0.69,0.69,mg/dL,0.6,1.2,NORMAL,,WEEK 8,6,2025-06-21,56
STUDY001,LB,STUDY001-SUBJ0010,58,L00058,BILI,Total Bilirubin,CHEMISTRY,0.84,mg/dL,0.1,1.2,0.84,0.84,mg/dL,0.1,1.2,NORMAL,,WEEK 8,6,2025-06-21,56
STUDY001,LB,STUDY001-SUBJ0010,59,L00059,ALP,Alkaline Phosphatase,CHEMISTRY,118.97,U/L,44.0,147.0,118.97,118.97,U/L,44.0,147.0,NORMAL,,WEEK 8,6,2025-06-21,56
STUDY001,LB,STUDY001-SUBJ0010,60,L00060,ALT,Alanine Aminotransferase,CHEMISTRY,31.69,U/L,7.0,56.0,31.69,31.69,U/L,7.0,56.0,NORMAL,,WEEK 8,6,2025-06-21,56
STUDY001,LB,STUDY001-SUBJ0010,61,L00061,HGB,Hemoglobin,HEMATOLOGY,14.84,g/dL,13.5,17.5,14.84,14.84,g/dL,13.5,17.5,NORMAL,,WEEK 12,7,2025-07-19,84
STUDY001,LB,STUDY001-SUBJ0010,62,L00062,HCT,Hematocrit,HEMATOLOGY,43.12,%,41.0,51.0,43.12,43.12,%,41.0,51.0,NORMAL,,WEEK 12,7,2025-07-19,84
STUDY001,LB,STUDY001-SUBJ0010,63,L00063,WBC,White Blood Cell Count,HEMATOLOGY,6.44,10^9/L,4.5,11.0,6.44,6.44,10^9/L,4.5,11.0,NORMAL,,WEEK 12,7,2025-07-19,84
STUDY001,LB,STUDY001-SUBJ0010,64,L00064,PLT,Platelet Count,HEMATOLOGY,259.41,10^9/L,150.0,450.0,259.41,259.41,10^9/L,150.0,450.0,NORMAL,,WEEK 12,7,2025-07-19,84
STUDY001,LB,STUDY001-SUBJ0010,65,L00065,GLUC,Glucose,CHEMISTRY,96.85,mg/dL,70.0,100.0,96.85,96.85,mg/dL,70.0,100.0,NORMAL,,WEEK 12,7,2025-07-19,84
STUDY001,LB,STUDY001-SUBJ0010,66,L00066,BUN,Blood Urea Nitrogen,CHEMISTRY,13.75,mg/dL,7.0,20.0,13.75,13.75,mg/dL,7.0,20.0,NORMAL,,WEEK 12,7,2025-07-19,84
STUDY001,LB,STUDY001-SUBJ0010,67,L00067,CREAT,Creatinine,CHEMISTRY,0.66,mg/dL,0.6,1.2,0.66,0.66,mg/dL,0.6,1.2,NORMAL,,WEEK 12,7,2025-07-19,84
STUDY001,LB,STUDY001-SUBJ0010,68,L00068,BILI,Total Bilirubin,CHEMISTRY,0.85,mg/dL,0.1,1.2,0.85,0.85,mg/dL,0.1,1.2,NORMAL,,WEEK 12,7,2025-07-19,84
STUDY001,LB,STUDY001-SUBJ0010,69,L00069,ALP,Alkaline Phosphatase,CHEMISTRY,119.45,U/L,44.0,147.0,119.45,119.45,U/L,44.0,147.0,NORMAL,,WEEK 12,7,2025-07-19,84
STUDY001,LB,STUDY001-SUBJ0010,70,L00070,ALT,Alanine Aminotransferase,CHEMISTRY,33.43,U/L,7.0,56.0,33.43,33.43,U/L,7.0,56.0,NORMAL,,WEEK 12,7,2025-07-19,84
STUDY001,LB,STUDY001-SUBJ0010,71,L00071,HGB,Hemoglobin,HEMATOLOGY,14.81,g/dL,13.5,17.5,14.81,14.81,g/dL,13.5,17.5,NORMAL,,WEEK 16,8,2025-08-16,112
STUDY001,LB,STUDY001-SUBJ0010,72,L00072,HCT,Hematocrit,HEMATOLOGY,43.34,%,41.0,51.0,43.34,43.34,%,41.0,51.0,NORMAL,,WEEK 16,8,2025-08-16,112
STUDY001,LB,STUDY001-SUBJ0010,73,L00073,WBC,White Blood Cell Count,HEMATOLOGY,6.61,10^9/L,4.5,11.0,6.61,6.61,10^9/L,4.5,11.0,NORMAL,,WEEK 16,8,2025-08-16,112
STUDY001,LB,STUDY001-SUBJ0010,74,L00074,PLT,Platelet Count,HEMATOLOGY,252.02,10^9/L,150.0,450.0,252.02,252.02,10^9/L,150.0,450.0,NORMAL,,WEEK 16,8,2025-08-16,112
STUDY001,LB,STUDY001-SUBJ0010,75,L00075,GLUC,Glucose,CHEMISTRY,98.78,mg/dL,70.0,100.0,98.78,98.78,mg/dL,70.0,100.0,NORMAL,,WEEK 16,8,2025-08-16,112
STUDY001,LB,STUDY001-SUBJ0010,76,L00076,BUN,Blood Urea Nitrogen,CHEMISTRY,13.3,mg/dL,7.0,20.0,13.3,13.3,mg/dL,7.0,20.0,NORMAL,,WEEK 16,8,2025-08-16,112
STUDY001,LB,STUDY001-SUBJ0010,77,L00077,CREAT,Creatinine,CHEMISTRY,0.66,mg/dL,0.6,1.2,0.66,0.66,mg/dL,0.6,1.2,NORMAL,,WEEK 16,8,2025-08-16,112
STUDY001,LB,STUDY001-SUBJ0010,78,L00078,BILI,Total Bilirubin,CHEMISTRY,0.83,mg/dL,0.1,1.2,0.83,0.83,mg/dL,0.1,1.2,NORMAL,,WEEK 16,8,2025-08-16,112
STUDY001,LB,STUDY001-SUBJ0010,79,L00079,ALP,Alkaline Phosphatase,CHEMISTRY,121.14,U/L,44.0,147.0,121.14,121.14,U/L,44.0,147.0,NORMAL,,WEEK 16,8,2025-08-16,112
STUDY001,LB,STUDY001-SUBJ0010,80,L00080,ALT,Alanine Aminotransferase,CHEMISTRY,29.22,U/L,7.0,56.0,29.22,29.22,U/L,7.0,56.0,NORMAL,,WEEK 16,8,2025-08-16,112
STUDY001,LB,STUDY001-SUBJ0010,81,L00081,HGB,Hemoglobin,HEMATOLOGY,14.93,g/dL,13.5,17.5,14.93,14.93,g/dL,13.5,17.5,NORMAL,,END OF TREATMENT,9,2025-09-13,140
STUDY001,LB,STUDY001-SUBJ0010,82,L00082,HCT,Hematocrit,HEMATOLOGY,42.97,%,41.0,51.0,42.97,42.97,%,41.0,51.0,NORMAL,,END OF TREATMENT,9,2025-09-13,140
STUDY001,LB,STUDY001-SUBJ0010,83,L00083,WBC,White Blood Cell Count,HEMATOLOGY,6.35,10^9/L,4.5,11.0,6.35,6.35,10^9/L,4.5,11.0,NORMAL,,END OF TREATMENT,9,2025-09-13,140
STUDY001,LB,STUDY001-SUBJ0010,84,L00084,PLT,Platelet Count,HEMATOLOGY,257.62,10^9/L,150.0,450.0,257.62,257.62,10^9/L,150.0,450.0,NORMAL,,END OF TREATMENT,9,2025-09-13,140
STUDY001,LB,STUDY001-SUBJ0010,85,L00085,GLUC,Glucose,CHEMISTRY,97.76,mg/dL,70.0,100.0,97.76,97.76,mg/dL,70.0,100.0,NORMAL,,END OF TREATMENT,9,2025-09-13,140
STUDY001,LB,STUDY001-SUBJ0010,86,L00086,BUN,Blood Urea Nitrogen,CHEMISTRY,13.25,mg/dL,7.0,20.0,13.25,13.25,mg/dL,7.0,20.0,NORMAL,,END OF TREATMENT,9,2025-09-13,140
STUDY001,LB,STUDY001-SUBJ0010,87,L00087,CREAT,Creatinine,CHEMISTRY,0.67,mg/dL,0.6,1.2,0.67,0.67,mg/dL,0.6,1.2,NORMAL,,END OF TREATMENT,9,2025-09-13,140
STUDY001,LB,STUDY001-SUBJ0010,88,L00088,BILI,Total Bilirubin,CHEMISTRY,0.84,mg/dL,0.1,1.2,0.84,0.84,mg/dL,0.1,1.2,NORMAL,,END OF TREATMENT,9,2025-09-13,140
STUDY001,LB,STUDY001-SUBJ0010,89,L00089,ALP,Alkaline Phosphatase,CHEMISTRY,121.95,U/L,44.0,147.0,121.95,121.95,U/L,44.0,147.0,NORMAL,,END OF TREATMENT,9,2025-09-13,140
STUDY001,LB,STUDY001-SUBJ0010,90,L00090,ALT,Alanine Aminotransferase,CHEMISTRY,30.49,U/L,7.0,56.0,30.49,30.49,U/L,7.0,56.0,NORMAL,,END OF TREATMENT,9,2025-09-13,140
