STUDYID,DOMAIN,USUBJID,LBSEQ,LBREFID,LBTESTCD,LBTEST,LBCAT,LBORRES,LBORRESU,LBORNRLO,LBORNRHI,LBSTRESC,LBSTRESN,LBSTRESU,LBSTNRLO,LBSTNRHI,LBNRIND,LBBLFL,VISIT,VISITNUM,LBDTC,LBDY
STUDY001,LB,STUDY001-SUBJ0001,1,L00001,HGB,Hemoglobin,HEMATOLOGY,14.01,g/dL,13.5,17.5,14.01,14.01,g/dL,13.5,17.5,NORMAL,,SCREENING,1,2025-02-21,-14
STUDY001,LB,STUDY001-SUBJ0001,2,L00002,HCT,Hematocrit,HEMATOLOGY,43.86,%,41.0,51.0,43.86,43.86,%,41.0,51.0,NORMAL,,SCREENING,1,2025-02-21,-14
STUDY001,LB,STUDY001-SUBJ0001,3,L00003,WBC,White Blood Cell Count,HEMATOLOGY,8.49,10^9/L,4.5,11.0,8.49,8.49,10^9/L,4.5,11.0,NORMAL,,SCREENING,1,2025-02-21,-14
STUDY001,LB,STUDY001-SUBJ0001,4,L00004,PLT,Platelet Count,HEMATOLOGY,309.52,10^9/L,150.0,450.0,309.52,309.52,10^9/L,150.0,450.0,NORMAL,,SCREENING,1,2025-02-21,-14
STUDY001,LB,STUDY001-SUBJ0001,5,L00005,GLUC,Glucose,CHEMISTRY,85.91,mg/dL,70.0,100.0,85.91,85.91,mg/dL,70.0,100.0,NORMAL,,SCREENING,1,2025-02-21,-14
STUDY001,LB,STUDY001-SUBJ0001,6,L00006,BUN,Blood Urea Nitrogen,CHEMISTRY,13.05,mg/dL,7.0,20.0,13.05,13.05,mg/dL,7.0,20.0,NORMAL,,SCREENING,1,2025-02-21,-14
STUDY001,LB,STUDY001-SUBJ0001,7,L00007,CREAT,Creatinine,CHEMISTRY,0.68,mg/dL,0.6,1.2,0.68,0.68,mg/dL,0.6,1.2,NORMAL,,SCREENING,1,2025-02-21,-14
STUDY001,LB,STUDY001-SUBJ0001,8,L00008,BILI,Total Bilirubin,CHEMISTRY,0.79,mg/dL,0.1,1.2,0.79,0.79,mg/dL,0.1,1.2,NORMAL,,SCREENING,1,2025-02-21,-14
STUDY001,LB,STUDY001-SUBJ0001,9,L00009,ALP,Alkaline Phosphatase,CHEMISTRY,118.45,U/L,44.0,147.0,118.45,118.45,U/L,44.0,147.0,NORMAL,,SCREENING,1,2025-02-21,-14
STUDY001,LB,STUDY001-SUBJ0001,10,L00010,ALT,Alanine Aminotransferase,CHEMISTRY,31.5,U/L,7.0,56.0,31.5,31.5,U/L,7.0,56.0,NORMAL,,SCREENING,1,2025-02-21,-14
STUDY001,LB,STUDY001-SUBJ0001,11,L00011,HGB,Hemoglobin,HEMATOLOGY,14.07,g/dL,13.5,17.5,14.07,14.07,g/dL,13.5,17.5,NORMAL,Y,BASELINE,2,2025-03-07,1
STUDY001,LB,STUDY001-SUBJ0001,12,L00012,HCT,Hematocrit,HEMATOLOGY,43.82,%,41.0,51.0,43.82,43.82,%,41.0,51.0,NORMAL,Y,BASELINE,2,2025-03-07,1
STUDY001,LB,STUDY001-SUBJ0001,13,L00013,WBC,White Blood Cell Count,HEMATOLOGY,8.82,10^9/L,4.5,11.0,8.82,8.82,10^9/L,4.5,11.0,NORMAL,Y,BASELINE,2,2025-03-07,1
STUDY001,LB,STUDY001-SUBJ0001,14,L00014,PLT,Platelet Count,HEMATOLOGY,294.26,10^9/L,150.0,450.0,294.26,294.26,10^9/L,150.0,450.0,NORMAL,Y,BASELINE,2,2025-03-07,1
STUDY001,LB,STUDY001-SUBJ0001,15,L00015,GLUC,Glucose,CHEMISTRY,86.11,mg/dL,70.0,100.0,86.11,86.11,mg/dL,70.0,100.0,NORMAL,Y,BASELINE,2,2025-03-07,1
STUDY001,LB,STUDY001-SUBJ0001,16,L00016,BUN,Blood Urea Nitrogen,CHEMISTRY,12.86,mg/dL,7.0,20.0,12.86,12.86,mg/dL,7.0,20.0,NORMAL,Y,BASELINE,2,2025-03-07,1
STUDY001,LB,STUDY001-SUBJ0001,17,L00017,CREAT,Creatinine,CHEMISTRY,0.67,mg/dL,0.6,1.2,0.67,0.67,mg/dL,0.6,1.2,NORMAL,Y,BASELINE,2,2025-03-07,1
STUDY001,LB,STUDY001-SUBJ0001,18,L00018,BILI,Total Bilirubin,CHEMISTRY,0.78,mg/dL,0.1,1.2,0.78,0.78,mg/dL,0.1,1.2,NORMAL,Y,BASELINE,2,2025-03-07,1
STUDY001,LB,STUDY001-SUBJ0001,19,L00019,ALP,Alkaline Phosphatase,CHEMISTRY,115.23,U/L,44.0,147.0,115.23,115.23,U/L,44.0,147.0,NORMAL,Y,BASELINE,2,2025-03-07,1
STUDY001,LB,STUDY001-SUBJ0001,20,L00020,ALT,Alanine Aminotransferase,CHEMISTRY,30.72,U/L,7.0,56.0,30.72,30.72,U/L,7.0,56.0,NORMAL,Y,BASELINE,2,2025-03-07,1
STUDY001,LB,STUDY001-SUBJ0001,21,L00021,HGB,Hemoglobin,HEMATOLOGY,14.2,g/dL,13.5,17.5,14.2,14.2,g/dL,13.5,17.5,NORMAL,,WEEK 1,3,2025-03-13,7
STUDY001,LB,STUDY001-SUBJ0001,22,L00022,HCT,Hematocrit,HEMATOLOGY,43.88,%,41.0,51.0,43.88,43.88,%,41.0,51.0,NORMAL,,WEEK 1,3,2025-03-13,7
STUDY001,LB,STUDY001-SUBJ0001,23,L00023,WBC,White Blood Cell Count,HEMATOLOGY,8.69,10^9/L,4.5,11.0,8.69,8.69,10^9/L,4.5,11.0,NORMAL,,WEEK 1,3,2025-03-13,7
STUDY001,LB,STUDY001-SUBJ0001,24,L00024,PLT,Platelet Count,HEMATOLOGY,296.98,10^9/L,150.0,450.0,296.98,296.98,10^9/L,150.0,450.0,NORMAL,,WEEK 1,3,2025-03-13,7
STUDY001,LB,STUDY001-SUBJ0001,25,L00025,GLUC,Glucose,CHEMISTRY,84.83,mg/dL,70.0,100.0,84.83,84.83,mg/dL,70.0,100.0,NORMAL,,WEEK 1,3,2025-03-13,7
STUDY001,LB,STUDY001-SUBJ0001,26,L00026,BUN,Blood Urea Nitrogen,CHEMISTRY,12.55,mg/dL,7.0,20.0,12.55,12.55,mg/dL,7.0,20.0,NORMAL,,WEEK 1,3,2025-03-13,7
STUDY001,LB,STUDY001-SUBJ0001,27,L00027,CREAT,Creatinine,CHEMISTRY,0.67,mg/dL,0.6,1.2,0.67,0.67,mg/dL,0.6,1.2,NORMAL,,WEEK 1,3,2025-03-13,7
STUDY001,LB,STUDY001-SUBJ0001,28,L00028,BILI,Total Bilirubin,CHEMISTRY,0.81,mg/dL,0.1,1.2,0.81,0.81,mg/dL,0.1,1.2,NORMAL,,WEEK 1,3,2025-03-13,7
STUDY001,LB,STUDY001-SUBJ0001,29,L00029,ALP,Alkaline Phosphatase,CHEMISTRY,114.58,U/L,44.0,147.0,114.58,114.58,U/L,44.0,147.0,NORMAL,,WEEK 1,3,2025-03-13,7
STUDY001,LB,STUDY001-SUBJ0001,30,L00030,ALT,Alanine Aminotransferase,CHEMISTRY,31.82,U/L,7.0,56.0,31.82,31.82,U/L,7.0,56.0,NORMAL,,WEEK 1,3,2025-03-13,7
STUDY001,LB,STUDY001-SUBJ0001,31,L00031,HGB,Hemoglobin,HEMATOLOGY,13.9,g/dL,13.5,17.5,13.9,13.9,g/dL,13.5,17.5,NORMAL,,WEEK 2,4,2025-03-20,14
STUDY001,LB,STUDY001-SUBJ0001,32,L00032,HCT,Hematocrit,HEMATOLOGY,43.42,%,41.0,51.0,43.42,43.42,%,41.0,51.0,NORMAL,,WEEK 2,4,2025-03-20,14
STUDY001,LB,STUDY001-SUBJ0001,33,L00033,WBC,White Blood Cell Count,HEMATOLOGY,8.84,10^9/L,4.5,11.0,8.84,8.84,10^9/L,4.5,11.0,NORMAL,,WEEK 2,4,2025-03-20,14
STUDY001,LB,STUDY001-SUBJ0001,34,L00034,PLT,Platelet Count,HEMATOLOGY,294.24,10^9/L,150.0,450.0,294.24,294.24,10^9/L,150.0,450.0,NORMAL,,WEEK 2,4,2025-03-20,14
STUDY001,LB,STUDY001-SUBJ0001,35,L00035,GLUC,Glucose,CHEMISTRY,84.46,mg/dL,70.0,100.0,84.46,84.46,mg/dL,70.0,100.0,NORMAL,,WEEK 2,4,2025-03-20,14
STUDY001,LB,STUDY001-SUBJ0001,36,L00036,BUN,Blood Urea Nitrogen,CHEMISTRY,12.38,mg/dL,7.0,20.0,12.38,12.38,mg/dL,7.0,20.0,NORMAL,,WEEK 2,4,2025-03-20,14
STUDY001,LB,STUDY001-SUBJ0001,37,L00037,CREAT,Creatinine,CHEMISTRY,0.67,mg/dL,0.6,1.2,0.67,0.67,mg/dL,0.6,1.2,NORMAL,,WEEK 2,4,2025-03-20,14
STUDY001,LB,STUDY001-SUBJ0001,38,L00038,BILI,Total Bilirubin,CHEMISTRY,0.79,mg/dL,0.1,1.2,0.79,0.79,mg/dL,0.1,1.2,NORMAL,,WEEK 2,4,2025-03-20,14
STUDY001,LB,STUDY001-SUBJ0001,39,L00039,ALP,Alkaline Phosphatase,CHEMISTRY,116.03,U/L,44.0,147.0,116.03,116.03,U/L,44.0,147.0,NORMAL,,WEEK 2,4,2025-03-20,14
STUDY001,LB,STUDY001-SUBJ0001,40,L00040,ALT,Alanine Aminotransferase,CHEMISTRY,31.49,U/L,7.0,56.0,31.49,31.49,U/L,7.0,56.0,NORMAL,,WEEK 2,4,2025-03-20,14
STUDY001,LB,STUDY001-SUBJ0001,41,L00041,HGB,Hemoglobin,HEMATOLOGY,13.92,g/dL,13.5,17.5,13.92,13.92,g/dL,13.5,17.5,NORMAL,,WEEK 4,5,2025-04-03,28
STUDY001,LB,STUDY001-SUBJ0001,42,L00042,HCT,Hematocrit,HEMATOLOGY,43.83,%,41.0,51.0,43.83,43.83,%,41.0,51.0,NORMAL,,WEEK 4,5,2025-04-03,28
STUDY001,LB,STUDY001-SUBJ0001,43,L00043,WBC,White Blood Cell Count,HEMATOLOGY,8.62,10^9/L,4.5,11.0,8.62,8.62,10^9/L,4.5,11.0,NORMAL,,WEEK 4,5,2025-04-03,28
STUDY001,LB,STUDY001-SUBJ0001,44,L00044,PLT,Platelet Count,HEMATOLOGY,302.61,10^9/L,150.0,450.0,302.61,302.61,10^9/L,150.0,450.0,NORMAL,,WEEK 4,5,2025-04-03,28
STUDY001,LB,STUDY001-SUBJ0001,45,L00045,GLUC,Glucose,CHEMISTRY,86.12,mg/dL,70.0,100.0,86.12,86.12,mg/dL,70.0,100.0,NORMAL,,WEEK 4,5,2025-04-03,28
STUDY001,LB,STUDY001-SUBJ0001,46,L00046,BUN,Blood Urea Nitrogen,CHEMISTRY,12.64,mg/dL,7.0,20.0,12.64,12.64,mg/dL,7.0,20.0,NORMAL,,WEEK 4,5,2025-04-03,28
STUDY001,LB,STUDY001-SUBJ0001,47,L00047,CREAT,Creatinine,CHEMISTRY,0.68,mg/dL,0.6,1.2,0.68,0.68,mg/dL,0.6,1.2,NORMAL,,WEEK 4,5,2025-04-03,28
STUDY001,LB,STUDY001-SUBJ0001,48,L00048,BILI,Total Bilirubin,CHEMISTRY,0.79,mg/dL,0.1,1.2,0.79,0.79,mg/dL,0.1,1.2,NORMAL,,WEEK 4,5,2025-04-03,28
STUDY001,LB,STUDY001-SUBJ0001,49,L00049,ALP,Alkaline Phosphatase,CHEMISTRY,111.75,U/L,44.0,147.0,111.75,111.75,U/L,44.0,147.0,NORMAL,,WEEK 4,5,2025-04-03,28
STUDY001,LB,STUDY001-SUBJ0001,50,L00050,ALT,Alanine Aminotransferase,CHEMISTRY,32.72,U/L,7.0,56.0,32.72,32.72,U/L,7.0,56.0,NORMAL,,WEEK 4,5,2025-04-03,28
STUDY001,LB,STUDY001-SUBJ0001,51,L00051,HGB,Hemoglobin,HEMATOLOGY,14.1,g/dL,13.5,17.5,14.1,14.1,g/dL,13.5,17.5,NORMAL,,WEEK 8,6,2025-05-01,56
STUDY001,LB,STUDY001-SUBJ0001,52,L00052,HCT,Hematocrit,HEMATOLOGY,44.16,%,41.0,51.0,44.16,44.16,%,41.0,51.0,NORMAL,,WEEK 8,6,2025-05-01,56
STUDY001,LB,STUDY001-SUBJ0001,53,L00053,WBC,White Blood Cell Count,HEMATOLOGY,8.9,10^9/L,4.5,11.0,8.9,8.9,10^9/L,4.5,11.0,NORMAL,,WEEK 8,6,2025-05-01,56
STUDY001,LB,STUDY001-SUBJ0001,54,L00054,PLT,Platelet Count,HEMATOLOGY,303.08,10^9/L,150.0,450.0,303.08,303.08,10^9/L,150.0,450.0,NORMAL,,WEEK 8,6,2025-05-01,56
STUDY001,LB,STUDY001-SUBJ0001,55,L00055,GLUC,Glucose,CHEMISTRY,83.51,mg/dL,70.0,100.0,83.51,83.51,mg/dL,70.0,100.0,NORMAL,,WEEK 8,6,2025-05-01,56
STUDY001,LB,STUDY001-SUBJ0001,56,L00056,BUN,Blood Urea Nitrogen,CHEMISTRY,13.36,mg/dL,7.0,20.0,13.36,13.36,mg/dL,7.0,20.0,NORMAL,,WEEK 8,6,2025-05-01,56
STUDY001,LB,STUDY001-SUBJ0001,57,L00057,CREAT,Creatinine,CHEMISTRY,0.67,mg/dL,0.6,1.2,0.67,0.67,mg/dL,0.6,1.2,NORMAL,,WEEK 8,6,2025-05-01,56
STUDY001,LB,STUDY001-SUBJ0001,58,L00058,BILI,Total Bilirubin,CHEMISTRY,0.79,mg/dL,0.1,1.2,0.79,0.79,mg/dL,0.1,1.2,NORMAL,,WEEK 8,6,2025-05-01,56
STUDY001,LB,STUDY001-SUBJ0001,59,L00059,ALP,Alkaline Phosphatase,CHEMISTRY,115.01,U/L,44.0,147.0,115.01,115.01,U/L,44.0,147.0,NORMAL,,WEEK 8,6,2025-05-01,56
STUDY001,LB,STUDY001-SUBJ0001,60,L00060,ALT,Alanine Aminotransferase,CHEMISTRY,29.16,U/L,7.0,56.0,29.16,29.16,U/L,7.0,56.0,NORMAL,,WEEK 8,6,2025-05-01,56
STUDY001,LB,STUDY001-SUBJ0001,61,L00061,HGB,Hemoglobin,HEMATOLOGY,14.08,g/dL,13.5,17.5,14.08,14.08,g/dL,13.5,17.5,NORMAL,,WEEK 12,7,2025-05-29,84
STUDY001,LB,STUDY001-SUBJ0001,62,L00062,HCT,Hematocrit,HEMATOLOGY,43.96,%,41.0,51.0,43.96,43.96,%,41.0,51.0,NORMAL,,WEEK 12,7,2025-05-29,84
STUDY001,LB,STUDY001-SUBJ0001,63,L00063,WBC,White Blood Cell Count,HEMATOLOGY,8.81,10^9/L,4.5,11.0,8.81,8.81,10^9/L,4.5,11.0,NORMAL,,WEEK 12,7,2025-05-29,84
STUDY001,LB,STUDY001-SUBJ0001,64,L00064,PLT,Platelet Count,HEMATOLOGY,301.19,10^9/L,150.0,450.0,301.19,301.19,10^9/L,150.0,450.0,NORMAL,,WEEK 12,7,2025-05-29,84
STUDY001,LB,STUDY001-SUBJ0001,65,L00065,GLUC,Glucose,CHEMISTRY,85.24,mg/dL,70.0,100.0,85.24,85.24,mg/dL,70.0,100.0,NORMAL,,WEEK 12,7,2025-05-29,84
STUDY001,LB,STUDY001-SUBJ0001,66,L00066,BUN,Blood Urea Nitrogen,CHEMISTRY,12.78,mg/dL,7.0,20.0,12.78,12.78,mg/dL,7.0,20.0,NORMAL,,WEEK 12,7,2025-05-29,84
STUDY001,LB,STUDY001-SUBJ0001,67,L00067,CREAT,Creatinine,CHEMISTRY,0.68,mg/dL,0.6,1.2,0.68,0.68,mg/dL,0.6,1.2,NORMAL,,WEEK 12,7,2025-05-29,84
STUDY001,LB,STUDY001-SUBJ0001,68,L00068,BILI,Total Bilirubin,CHEMISTRY,0.81,mg/dL,0.1,1.2,0.81,0.81,mg/dL,0.1,1.2,NORMAL,,WEEK 12,7,2025-05-29,84
STUDY001,LB,STUDY001-SUBJ0001,69,L00069,ALP,Alkaline Phosphatase,CHEMISTRY,114.77,U/L,44.0,147.0,114.77,114.77,U/L,44.0,147.0,NORMAL,,WEEK 12,7,2025-05-29,84
STUDY001,LB,STUDY001-SUBJ0001,70,L00070,ALT,Alanine Aminotransferase,CHEMISTRY,31.16,U/L,7.0,56.0,31.16,31.16,U/L,7.0,56.0,NORMAL,,WEEK 12,7,2025-05-29,84
STUDY001,LB,STUDY001-SUBJ0001,71,L00071,HGB,Hemoglobin,HEMATOLOGY,14.04,g/dL,13.5,17.5,14.04,14.04,g/dL,13.5,17.5,NORMAL,,WEEK 16,8,2025-06-26,112
STUDY001,LB,STUDY001-SUBJ0001,72,L00072,HCT,Hematocrit,HEMATOLOGY,43.81,%,41.0,51.0,43.81,43.81,%,41.0,51.0,NORMAL,,WEEK 16,8,2025-06-26,112
STUDY001,LB,STUDY001-SUBJ0001,73,L00073,WBC,White Blood Cell Count,HEMATOLOGY,8.81,10^9/L,4.5,11.0,8.81,8.81,10^9/L,4.5,11.0,NORMAL,,WEEK 16,8,2025-06-26,112
STUDY001,LB,STUDY001-SUBJ0001,74,L00074,PLT,Platelet Count,HEMATOLOGY,303.54,10^9/L,150.0,450.0,303.54,303.54,10^9/L,150.0,450.0,NORMAL,,WEEK 16,8,2025-06-26,112
STUDY001,LB,STUDY001-SUBJ0001,75,L00075,GLUC,Glucose,CHEMISTRY,85.4,mg/dL,70.0,100.0,85.4,85.4,mg/dL,70.0,100.0,NORMAL,,WEEK 16,8,2025-06-26,112
STUDY001,LB,STUDY001-SUBJ0001,76,L00076,BUN,Blood Urea Nitrogen,CHEMISTRY,12.52,mg/dL,7.0,20.0,12.52,12.52,mg/dL,7.0,20.0,NORMAL,,WEEK 16,8,2025-06-26,112
STUDY001,LB,STUDY001-SUBJ0001,77,L00077,CREAT,Creatinine,CHEMISTRY,0.67,mg/dL,0.6,1.2,0.67,0.67,mg/dL,0.6,1.2,NORMAL,,WEEK 16,8,2025-06-26,112
STUDY001,LB,STUDY001-SUBJ0001,78,L00078,BILI,Total Bilirubin,CHEMISTRY,0.81,mg/dL,0.1,1.2,0.81,0.81,mg/dL,0.1,1.2,NORMAL,,WEEK 16,8,2025-06-26,112
STUDY001,LB,STUDY001-SUBJ0001,79,L00079,ALP,Alkaline Phosphatase,CHEMISTRY,116.77,U/L,44.0,147.0,116.77,116.77,U/L,44.0,147.0,NORMAL,,WEEK 16,8,2025-06-26,112
STUDY001,LB,STUDY001-SUBJ0001,80,L00080,ALT,Alanine Aminotransferase,CHEMISTRY,31.42,U/L,7.0,56.0,31.42,31.42,U/L,7.0,56.0,NORMAL,,WEEK 16,8,2025-06-26,112
STUDY001,LB,STUDY001-SUBJ0001,81,L00081,HGB,Hemoglobin,HEMATOLOGY,13.97,g/dL,13.5,17.5,13.97,13.97,g/dL,13.5,17.5,NORMAL,,END OF TREATMENT,9,2025-07-24,140
STUDY001,LB,STUDY001-SUBJ0001,82,L00082,HCT,Hematocrit,HEMATOLOGY,43.71,%,41.0,51.0,43.71,43.71,%,41.0,51.0,NORMAL,,END OF TREATMENT,9,2025-07-24,140
STUDY001,LB,STUDY001-SUBJ0001,83,L00083,WBC,White Blood Cell Count,HEMATOLOGY,8.64,10^9/L,4.5,11.0,8.64,8.64,10^9/L,4.5,11.0,NORMAL,,END OF TREATMENT,9,2025-07-24,140
STUDY001,LB,STUDY001-SUBJ0001,84,L00084,PLT,Platelet Count,HEMATOLOGY,304.25,10^9/L,150.0,450.0,304.25,304.25,10^9/L,150.0,450.0,NORMAL,,END OF TREATMENT,9,2025-07-24,140
STUDY001,LB,STUDY001-SUBJ0001,85,L00085,GLUC,Glucose,CHEMISTRY,84.87,mg/dL,70.0,100.0,84.87,84.87,mg/dL,70.0,100.0,NORMAL,,END OF TREATMENT,9,2025-07-24,140
STUDY001,LB,STUDY001-SUBJ0001,86,L00086,BUN,Blood Urea Nitrogen,CHEMISTRY,12.39,mg/dL,7.0,20.0,12.39,12.39,mg/dL,7.0,20.0,NORMAL,,END OF TREATMENT,9,2025-07-24,140
STUDY001,LB,STUDY001-SUBJ0001,87,L00087,CREAT,Creatinine,CHEMISTRY,0.7,mg/dL,0.6,1.2,0.7,0.7,mg/dL,0.6,1.2,NORMAL,,END OF TREATMENT,9,2025-07-24,140
STUDY001,LB,STUDY001-SUBJ0001,88,L00088,BILI,Total Bilirubin,CHEMISTRY,0.79,mg/dL,0.1,1.2,0.79,0.79,mg/dL,0.1,1.2,NORMAL,,END OF TREATMENT,9,2025-07-24,140
STUDY001,LB,STUDY001-SUBJ0001,89,L00089,ALP,Alkaline Phosphatase,CHEMISTRY,118.19,U/L,44.0,147.0,118.19,118.19,U/L,44.0,147.0,NORMAL,,END OF TREATMENT,9,2025-07-24,140
STUDY001,LB,STUDY001-SUBJ0001,90,L00090,ALT,Alanine Aminotransferase,CHEMISTRY,29.93,U/L,7.0,56.0,29.93,29.93,U/L,7.0,56.0,NORMAL,,END OF TREATMENT,9,2025-07-24,140
STUDY001,LB,STUDY001-SUBJ0002,1,L00001,HGB,Hemoglobin,HEMATOLOGY,14.61,g/dL,13.5,17.5,14.61,14.61,g/dL,13.5,17.5,NORMAL,,SCREENING,1,2024-11-18,-14
STUDY001,LB,STUDY001-SUBJ0002,2,L00002,HCT,Hematocrit,HEMATOLOGY,49.41,%,41.0,51.0,49.41,49.41,%,41.0,51.0,NORMAL,,SCREENING,1,2024-11-18,-14
STUDY001,LB,STUDY001-SUBJ0002,3,L00003,WBC,White Blood Cell Count,HEMATOLOGY,8.61,10^9/L,4.5,11.0,8.61,8.61,10^9/L,4.5,11.0,NORMAL,,SCREENING,1,2024-11-18,-14
STUDY001,LB,STUDY001-SUBJ0002,4,L00004,PLT,Platelet Count,HEMATOLOGY,218.4,10^9/L,150.0,450.0,218.4,218.4,10^9/L,150.0,450.0,NORMAL,,SCREENING,1,2024-11-18,-14
STUDY001,LB,STUDY001-SUBJ0002,5,L00005,GLUC,Glucose,CHEMISTRY,92.2,mg/dL,70.0,100.0,92.2,92.2,mg/dL,70.0,100.0,NORMAL,,SCREENING,1,2024-11-18,-14
STUDY001,LB,STUDY001-SUBJ0002,6,L00006,BUN,Blood Urea Nitrogen,CHEMISTRY,8.56,mg/dL,7.0,20.0,8.56,8.56,mg/dL,7.0,20.0,NORMAL,,SCREENING,1,2024-11-18,-14
STUDY001,LB,STUDY001-SUBJ0002,7,L00007,CREAT,Creatinine,CHEMISTRY,0.97,mg/dL,0.6,1.2,0.97,0.97,mg/dL,0.6,1.2,NORMAL,,SCREENING,1,2024-11-18,-14
STUDY001,LB,STUDY001-SUBJ0002,8,L00008,BILI,Total Bilirubin,CHEMISTRY,1.05,mg/dL,0.1,1.2,1.05,1.05,mg/dL,0.1,1.2,NORMAL,,SCREENING,1,2024-11-18,-14
STUDY001,LB,STUDY001-SUBJ0002,9,L00009,ALP,Alkaline Phosphatase,CHEMISTRY,95.58,U/L,44.0,147.0,95.58,95.58,U/L,44.0,147.0,NORMAL,,SCREENING,1,2024-11-18,-14
STUDY001,LB,STUDY001-SUBJ0002,10,L00010,ALT,Alanine Aminotransferase,CHEMISTRY,26.37,U/L,7.0,56.0,26.37,26.37,U/L,7.0,56.0,NORMAL,,SCREENING,1,2024-11-18,-14
STUDY001,LB,STUDY001-SUBJ0002,11,L00011,HGB,Hemoglobin,HEMATOLOGY,14.69,g/dL,13.5,17.5,14.69,14.69,g/dL,13.5,17.5,NORMAL,Y,BASELINE,2,2024-12-02,1
STUDY001,LB,STUDY001-SUBJ0002,12,L00012,HCT,Hematocrit,HEMATOLOGY,49.17,%,41.0,51.0,49.17,49.17,%,41.0,51.0,NORMAL,Y,BASELINE,2,2024-12-02,1
STUDY001,LB,STUDY001-SUBJ0002,13,L00013,WBC,White Blood Cell Count,HEMATOLOGY,8.53,10^9/L,4.5,11.0,8.53,8.53,10^9/L,4.5,11.0,NORMAL,Y,BASELINE,2,2024-12-02,1
STUDY001,LB,STUDY001-SUBJ0002,14,L00014,PLT,Platelet Count,HEMATOLOGY,221.24,10^9/L,150.0,450.0,221.24,221.24,10^9/L,150.0,450.0,NORMAL,Y,BASELINE,2,2024-12-02,1
STUDY001,LB,STUDY001-SUBJ0002,15,L00015,GLUC,Glucose,CHEMISTRY,93.63,mg/dL,70.0,100.0,93.63,93.63,mg/dL,70.0,100.0,NORMAL,Y,BASELINE,2,2024-12-02,1
STUDY001,LB,STUDY001-SUBJ0002,16,L00016,BUN,Blood Urea Nitrogen,CHEMISTRY,8.41,mg/dL,7.0,20.0,8.41,8.41,mg/dL,7.0,20.0,NORMAL,Y,BASELINE,2,2024-12-02,1
STUDY001,LB,STUDY001-SUBJ0002,17,L00017,CREAT,Creatinine,CHEMISTRY,0.96,mg/dL,0.6,1.2,0.96,0.96,mg/dL,0.6,1.2,NORMAL,Y,BASELINE,2,2024-12-02,1
STUDY001,LB,STUDY001-SUBJ0002,18,L00018,BILI,Total Bilirubin,CHEMISTRY,1.05,mg/dL,0.1,1.2,1.05,1.05,mg/dL,0.1,1.2,NORMAL,Y,BASELINE,2,2024-12-02,1
STUDY001,LB,STUDY001-SUBJ0002,19,L00019,ALP,Alkaline Phosphatase,CHEMISTRY,96.56,U/L,44.0,147.0,96.56,96.56,U/L,44.0,147.0,NORMAL,Y,BASELINE,2,2024-12-02,1
STUDY001,LB,STUDY001-SUBJ0002,20,L00020,ALT,Alanine Aminotransferase,CHEMISTRY,26.41,U/L,7.0,56.0,26.41,26.41,U/L,7.0,56.0,NORMAL,Y,BASELINE,2,2024-12-02,1
STUDY001,LB,STUDY001-SUBJ0002,21,L00021,HGB,Hemoglobin,HEMATOLOGY,14.76,g/dL,13.5,17.5,14.76,14.76,g/dL,13.5,17.5,NORMAL,,WEEK 1,3,2024-12-08,7
STUDY001,LB,STUDY001-SUBJ0002,22,L00022,HCT,Hematocrit,HEMATOLOGY,48.94,%,41.0,51.0,48.94,48.94,%,41.0,51.0,NORMAL,,WEEK 1,3,2024-12-08,7
STUDY001,LB,STUDY001-SUBJ0002,23,L00023,WBC,White Blood Cell Count,HEMATOLOGY,8.95,10^9/L,4.5,11.0,8.95,8.95,10^9/L,4.5,11.0,NORMAL,,WEEK 1,3,2024-12-08,7
STUDY001,LB,STUDY001-SUBJ0002,24,L00024,PLT,Platelet Count,HEMATOLOGY,231.14,10^9/L,150.0,450.0,231.14,231.14,10^9/L,150.0,450.0,NORMAL,,WEEK 1,3,2024-12-08,7
STUDY001,LB,STUDY001-SUBJ0002,25,L00025,GLUC,Glucose,CHEMISTRY,92.17,mg/dL,70.0,100.0,92.17,92.17,mg/dL,70.0,100.0,NORMAL,,WEEK 1,3,2024-12-08,7
STUDY001,LB,STUDY001-SUBJ0002,26,L00026,BUN,Blood Urea Nitrogen,CHEMISTRY,7.69,mg/dL,7.0,20.0,7.69,7.69,mg/dL,7.0,20.0,NORMAL,,WEEK 1,3,2024-12-08,7
STUDY001,LB,STUDY001-SUBJ0002,27,L00027,CREAT,Creatinine,CHEMISTRY,0.98,mg/dL,0.6,1.2,0.98,0.98,mg/dL,0.6,1.2,NORMAL,,WEEK 1,3,2024-12-08,7
STUDY001,LB,STUDY001-SUBJ0002,28,L00028,BILI,Total Bilirubin,CHEMISTRY,1.04,mg/dL,0.1,1.2,1.04,1.04,mg/dL,0.1,1.2,NORMAL,,WEEK 1,3,2024-12-08,7
STUDY001,LB,STUDY001-SUBJ0002,29,L00029,ALP,Alkaline Phosphatase,CHEMISTRY,98.41,U/L,44.0,147.0,98.41,98.41,U/L,44.0,147.0,NORMAL,,WEEK 1,3,2024-12-08,7
STUDY001,LB,STUDY001-SUBJ0002,30,L00030,ALT,Alanine Aminotransferase,CHEMISTRY,23.29,U/L,7.0,56.0,23.29,23.29,U/L,7.0,56.0,NORMAL,,WEEK 1,3,2024-12-08,7
STUDY001,LB,STUDY001-SUBJ0002,31,L00031,HGB,Hemoglobin,HEMATOLOGY,14.72,g/dL,13.5,17.5,14.72,14.72,g/dL,13.5,17.5,NORMAL,,WEEK 2,4,2024-12-15,14
STUDY001,LB,STUDY001-SUBJ0002,32,L00032,HCT,Hematocrit,HEMATOLOGY,49.39,%,41.0,51.0,49.39,49.39,%,41.0,51.0,NORMAL,,WEEK 2,4,2024-12-15,14
STUDY001,LB,STUDY001-SUBJ0002,33,L00033,WBC,White Blood Cell Count,HEMATOLOGY,8.64,10^9/L,4.5,11.0,8.64,8.64,10^9/L,4.5,11.0,NORMAL,,WEEK 2,4,2024-12-15,14
STUDY001,LB,STUDY001-SUBJ0002,34,L00034,PLT,Platelet Count,HEMATOLOGY,228.7,10^9/L,150.0,450.0,228.7,228.7,10^9/L,150.0,450.0,NORMAL,,WEEK 2,4,2024-12-15,14
STUDY001,LB,STUDY001-SUBJ0002,35,L00035,GLUC,Glucose,CHEMISTRY,94.09,mg/dL,70.0,100.0,94.09,94.09,mg/dL,70.0,100.0,NORMAL,,WEEK 2,4,2024-12-15,14
STUDY001,LB,STUDY001-SUBJ0002,36,L00036,BUN,Blood Urea Nitrogen,CHEMISTRY,8.21,mg/dL,7.0,20.0,8.21,8.21,mg/dL,7.0,20.0,NORMAL,,WEEK 2,4,2024-12-15,14
STUDY001,LB,STUDY001-SUBJ0002,37,L00037,CREAT,Creatinine,CHEMISTRY,0.97,mg/dL,0.6,1.2,0.97,0.97,mg/dL,0.6,1.2,NORMAL,,WEEK 2,4,2024-12-15,14
STUDY001,LB,STUDY001-SUBJ0002,38,L00038,BILI,Total Bilirubin,CHEMISTRY,1.02,mg/dL,0.1,1.2,1.02,1.02,mg/dL,0.1,1.2,NORMAL,,WEEK 2,4,2024-12-15,14
STUDY001,LB,STUDY001-SUBJ0002,39,L00039,ALP,Alkaline Phosphatase,CHEMISTRY,98.96,U/L,44.0,147.0,98.96,98.96,U/L,44.0,147.0,NORMAL,,WEEK 2,4,2024-12-15,14
STUDY001,LB,STUDY001-SUBJ0002,40,L00040,ALT,Alanine Aminotransferase,CHEMISTRY,25.95,U/L,7.0,56.0,25.95,25.95,U/L,7.0,56.0,NORMAL,,WEEK 2,4,2024-12-15,14
STUDY001,LB,STUDY001-SUBJ0002,41,L00041,HGB,Hemoglobin,HEMATOLOGY,14.76,g/dL,13.5,17.5,14.76,14.76,g/dL,13.5,17.5,NORMAL,,WEEK 4,5,2024-12-29,28
STUDY001,LB,STUDY001-SUBJ0002,42,L00042,HCT,Hematocrit,HEMATOLOGY,48.94,%,41.0,51.0,48.94,48.94,%,41.0,51.0,NORMAL,,WEEK 4,5,2024-12-29,28
STUDY001,LB,STUDY001-SUBJ0002,43,L00043,WBC,White Blood Cell Count,HEMATOLOGY,8.5,10^9/L,4.5,11.0,8.5,8.5,10^9/L,4.5,11.0,NORMAL,,WEEK 4,5,2024-12-29,28
STUDY001,LB,STUDY001-SUBJ0002,44,L00044,PLT,Platelet Count,HEMATOLOGY,220.67,10^9/L,150.0,450.0,220.67,220.67,10^9/L,150.0,450.0,NORMAL,,WEEK 4,5,2024-12-29,28
STUDY001,LB,STUDY001-SUBJ0002,45,L00045,GLUC,Glucose,CHEMISTRY,93.01,mg/dL,70.0,100.0,93.01,93.01,mg/dL,70.0,100.0,NORMAL,,WEEK 4,5,2024-12-29,28
STUDY001,LB,STUDY001-SUBJ0002,46,L00046,BUN,Blood Urea Nitrogen,CHEMISTRY,7.85,mg/dL,7.0,20.0,7.85,7.85,mg/dL,7.0,20.0,NORMAL,,WEEK 4,5,2024-12-29,28
STUDY001,LB,STUDY001-SUBJ0002,47,L00047,CREAT,Creatinine,CHEMISTRY,0.95,mg/dL,0.6,1.2,0.95,0.95,mg/dL,0.6,1.2,NORMAL,,WEEK 4,5,2024-12-29,28
STUDY001,LB,STUDY001-SUBJ0002,48,L00048,BILI,Total Bilirubin,CHEMISTRY,1.06,mg/dL,0.1,1.2,1.06,1.06,mg/dL,0.1,1.2,NORMAL,,WEEK 4,5,2024-12-29,28
STUDY001,LB,STUDY001-SUBJ0002,49,L00049,ALP,Alkaline Phosphatase,CHEMISTRY,99.05,U/L,44.0,147.0,99.05,99.05,U/L,44.0,147.0,NORMAL,,WEEK 4,5,2024-12-29,28
STUDY001,LB,STUDY001-SUBJ0002,50,L00050,ALT,Alanine Aminotransferase,CHEMISTRY,26.9,U/L,7.0,56.0,26.9,26.9,U/L,7.0,56.0,NORMAL,,WEEK 4,5,2024-12-29,28
STUDY001,LB,STUDY001-SUBJ0002,51,L00051,HGB,Hemoglobin,HEMATOLOGY,14.65,g/dL,13.5,17.5,14.65,14.65,g/dL,13.5,17.5,NORMAL,,WEEK 8,6,2025-01-26,56
STUDY001,LB,STUDY001-SUBJ0002,52,L00052,HCT,Hematocrit,HEMATOLOGY,49.11,%,41.0,51.0,49.11,49.11,%,41.0,51.0,NORMAL,,WEEK 8,6,2025-01-26,56
STUDY001,LB,STUDY001-SUBJ0002,53,L00053,WBC,White Blood Cell Count,HEMATOLOGY,8.58,10^9/L,4.5,11.0,8.58,8.58,10^9/L,4.5,11.0,NORMAL,,WEEK 8,6,2025-01-26,56
STUDY001,LB,STUDY001-SUBJ0002,54,L00054,PLT,Platelet Count,HEMATOLOGY,223.35,10^9/L,150.0,450.0,223.35,223.35,10^9/L,150.0,450.0,NORMAL,,WEEK 8,6,2025-01-26,56
STUDY001,LB,STUDY001-SUBJ0002,55,L00055,GLUC,Glucose,CHEMISTRY,92.91,mg/dL,70.0,100.0,92.91,92.91,mg/dL,70.0,100.0,NORMAL,,WEEK 8,6,2025-01-26,56
STUDY001,LB,STUDY001-SUBJ0002,56,L00056,BUN,Blood Urea Nitrogen,CHEMISTRY,8.57,mg/dL,7.0,20.0,8.57,8.57,mg/dL,7.0,20.0,NORMAL,,WEEK 8,6,2025-01-26,56
STUDY001,LB,STUDY001-SUBJ0002,57,L00057,CREAT,Creatinine,CHEMISTRY,0.95,mg/dL,0.6,1.2,0.95,0.95,mg/dL,0.6,1.2,NORMAL,,WEEK 8,6,2025-01-26,56
STUDY001,LB,STUDY001-SUBJ0002,58,L00058,BILI,Total Bilirubin,CHEMISTRY,1.05,mg/dL,0.1,1.2,1.05,1.05,mg/dL,0.1,1.2,NORMAL,,WEEK 8,6,2025-01-26,56
STUDY001,LB,STUDY001-SUBJ0002,59,L00059,ALP,Alkaline Phosphatase,CHEMISTRY,100.45,U/L,44.0,147.0,100.45,100.45,U/L,44.0,147.0,NORMAL,,WEEK 8,6,2025-01-26,56
STUDY001,LB,STUDY001-SUBJ0002,60,L00060,ALT,Alanine Aminotransferase,CHEMISTRY,25.68,U/L,7.0,56.0,25.68,25.68,U/L,7.0,56.0,NORMAL,,WEEK 8,6,2025-01-26,56
STUDY001,LB,STUDY001-SUBJ0002,61,L00061,HGB,Hemoglobin,HEMATOLOGY,14.73,g/dL,13.5,17.5,14.73,14.73,g/dL,13.5,17.5,NORMAL,,WEEK 12,7,2025-02-23,84
STUDY001,LB,STUDY001-SUBJ0002,62,L00062,HCT,Hematocrit,HEMATOLOGY,49.14,%,41.0,51.0,49.14,49.14,%,41.0,51.0,NORMAL,,WEEK 12,7,2025-02-23,84
STUDY001,LB,STUDY001-SUBJ0002,63,L00063,WBC,White Blood Cell Count,HEMATOLOGY,8.37,10^9/L,4.5,11.0,8.37,8.37,10^9/L,4.5,11.0,NORMAL,,WEEK 12,7,2025-02-23,84
STUDY001,LB,STUDY001-SUBJ0002,64,L00064,PLT,Platelet Count,HEMATOLOGY,211.48,10^9/L,150.0,450.0,211.48,211.48,10^9/L,150.0,450.0,NORMAL,,WEEK 12,7,2025-02-23,84
STUDY001,LB,STUDY001-SUBJ0002,65,L00065,GLUC,Glucose,CHEMISTRY,91.97,mg/dL,70.0,100.0,91.97,91.97,mg/dL,70.0,100.0,NORMAL,,WEEK 12,7,2025-02-23,84
STUDY001,LB,STUDY001-SUBJ0002,66,L00066,BUN,Blood Urea Nitrogen,CHEMISTRY,7.9,mg/dL,7.0,20.0,7.9,7.9,mg/dL,7.0,20.0,NORMAL,,WEEK 12,7,2025-02-23,84
STUDY001,LB,STUDY001-SUBJ0002,67,L00067,CREAT,Creatinine,CHEMISTRY,0.97,mg/dL,0.6,1.2,0.97,0.97,mg/dL,0.6,1.2,NORMAL,,WEEK 12,7,2025-02-23,84
STUDY001,LB,STUDY001-SUBJ0002,68,L00068,BILI,Total Bilirubin,CHEMISTRY,1.04,mg/dL,0.1,1.2,1.04,1.04,mg/dL,0.1,1.2,NORMAL,,WEEK 12,7,2025-02-23,84
STUDY001,LB,STUDY001-SUBJ0002,69,L00069,ALP,Alkaline Phosphatase,CHEMISTRY,98.97,U/L,44.0,147.0,98.97,98.97,U/L,44.0,147.0,NORMAL,,WEEK 12,7,2025-02-23,84
STUDY001,LB,STUDY001-SUBJ0002,70,L00070,ALT,Alanine Aminotransferase,CHEMISTRY,27.12,U/L,7.0,56.0,27.12,27.12,U/L,7.0,56.0,NORMAL,,WEEK 12,7,2025-02-23,84
STUDY001,LB,STUDY001-SUBJ0002,71,L00071,HGB,Hemoglobin,HEMATOLOGY,14.62,g/dL,13.5,17.5,14.62,14.62,g/dL,13.5,17.5,NORMAL,,WEEK 16,8,2025-03-23,112
STUDY001,LB,STUDY001-SUBJ0002,72,L00072,HCT,Hematocrit,HEMATOLOGY,48.98,%,41.0,51.0,48.98,48.98,%,41.0,51.0,NORMAL,,WEEK 16,8,2025-03-23,112
STUDY001,LB,STUDY001-SUBJ0002,73,L00073,WBC,White Blood Cell Count,HEMATOLOGY,8.58,10^9/L,4.5,11.0,8.58,8.58,10^9/L,4.5,11.0,NORMAL,,WEEK 16,8,2025-03-23,112
STUDY001,LB,STUDY001-SUBJ0002,74,L00074,PLT,Platelet Count,HEMATOLOGY,227.11,10^9/L,150.0,450.0,227.11,227.11,10^9/L,150.0,450.0,NORMAL,,WEEK 16,8,2025-03-23,112
STUDY001,LB,STUDY001-SUBJ0002,75,L00075,GLUC,Glucose,CHEMISTRY,92.32,mg/dL,70.0,100.0,92.32,92.32,mg/dL,70.0,100.0,NORMAL,,WEEK 16,8,2025-03-23,112
STUDY001,LB,STUDY001-SUBJ0002,76,L00076,BUN,Blood Urea Nitrogen,CHEMISTRY,8.01,mg/dL,7.0,20.0,8.01,8.01,mg/dL,7.0,20.0,NORMAL,,WEEK 16,8,2025-03-23,112
STUDY001,LB,STUDY001-SUBJ0002,77,L00077,CREAT,Creatinine,CHEMISTRY,0.95,mg/dL,0.6,1.2,0.95,0.95,mg/dL,0.6,1.2,NORMAL,,WEEK 16,8,2025-03-23,112
STUDY001,LB,STUDY001-SUBJ0002,78,L00078,BILI,Total Bilirubin,CHEMISTRY,1.07,mg/dL,0.1,1.2,1.07,1.07,mg/dL,0.1,1.2,NORMAL,,WEEK 16,8,2025-03-23,112
STUDY001,LB,STUDY001-SUBJ0002,79,L00079,ALP,Alkaline Phosphatase,CHEMISTRY,100.16,U/L,44.0,147.0,100.16,100.16,U/L,44.0,147.0,NORMAL,,WEEK 16,8,2025-03-23,112
STUDY001,LB,STUDY001-SUBJ0002,80,L00080,ALT,Alanine Aminotransferase,CHEMISTRY,25.73,U/L,7.0,56.0,25.73,25.73,U/L,7.0,56.0,NORMAL,,WEEK 16,8,2025-03-23,112
STUDY001,LB,STUDY001-SUBJ0002,81,L00081,HGB,Hemoglobin,HEMATOLOGY,14.54,g/dL,13.5,17.5,14.54,14.54,g/dL,13.5,17.5,NORMAL,,END OF TREATMENT,9,2025-04-20,140
STUDY001,LB,STUDY001-SUBJ0002,82,L00082,HCT,Hematocrit,HEMATOLOGY,49.13,%,41.0,51.0,49.13,49.13,%,41.0,51.0,NORMAL,,END OF TREATMENT,9,2025-04-20,140
STUDY001,LB,STUDY001-SUBJ0002,83,L00083,WBC,White Blood Cell Count,HEMATOLOGY,8.37,10^9/L,4.5,11.0,8.37,8.37,10^9/L,4.5,11.0,NORMAL,,END OF TREATMENT,9,2025-04-20,140
STUDY001,LB,STUDY001-SUBJ0002,84,L00084,PLT,Platelet Count,HEMATOLOGY,223.79,10^9/L,150.0,450.0,223.79,223.79,10^9/L,150.0,450.0,NORMAL,,END OF TREATMENT,9,2025-04-20,140
STUDY001,LB,STUDY001-SUBJ0002,85,L00085,GLUC,Glucose,CHEMISTRY,91.4,mg/dL,70.0,100.0,91.4,91.4,mg/dL,70.0,100.0,NORMAL,,END OF TREATMENT,9,2025-04-20,140
STUDY001,LB,STUDY001-SUBJ0002,86,L00086,BUN,Blood Urea Nitrogen,CHEMISTRY,8.05,mg/dL,7.0,20.0,8.05,8.05,mg/dL,7.0,20.0,NORMAL,,END OF TREATMENT,9,2025-04-20,140
STUDY001,LB,STUDY001-SUBJ0002,87,L00087,CREAT,Creatinine,CHEMISTRY,0.99,mg/dL,0.6,1.2,0.99,0.99,mg/dL,0.6,1.2,NORMAL,,END OF TREATMENT,9,2025-04-20,140
STUDY001,LB,STUDY001-SUBJ0002,88,L00088,BILI,Total Bilirubin,CHEMISTRY,1.07,mg/dL,0.1,1.2,1.07,1.07,mg/dL,0.1,1.2,NORMAL,,END OF TREATMENT,9,2025-04-20,140
STUDY001,LB,STUDY001-SUBJ0002,89,L00089,ALP,Alkaline Phosphatase,CHEMISTRY,96.02,U/L,44.0,147.0,96.02,96.02,U/L,44.0,147.0,NORMAL,,END OF TREATMENT,9,2025-04-20,140
STUDY001,LB,STUDY001-SUBJ0002,90,L00090,ALT,Alanine Aminotransferase,CHEMISTRY,26.27,U/L,7.0,56.0,26.27,26.27,U/L,7.0,56.0,NORMAL,,END OF TREATMENT,9,2025-04-20,140
STUDY001,LB,STUDY001-SUBJ0003,1,L00001,HGB,Hemoglobin,HEMATOLOGY,16.09,g/dL,13.5,17.5,16.09,16.09,g/dL,13.5,17.5,NORMAL,,SCREENING,1,2025-04-28,-14
STUDY001,LB,STUDY001-SUBJ0003,2,L00002,HCT,Hematocrit,HEMATOLOGY,42.44,%,41.0,51.0,42.44,42.44,%,41.0,51.0,NORMAL,,SCREENING,1,2025-04-28,-14
STUDY001,LB,STUDY001-SUBJ0003,3,L00003,WBC,White Blood Cell Count,HEMATOLOGY,5.41,10^9/L,4.5,11.0,5.41,5.41,10^9/L,4.5,11.0,NORMAL,,SCREENING,1,2025-04-28,-14
STUDY001,LB,STUDY001-SUBJ0003,4,L00004,PLT,Platelet Count,HEMATOLOGY,275.0,10^9/L,150.0,450.0,275.0,275.0,10^9/L,150.0,450.0,NORMAL,,SCREENING,1,2025-04-28,-14
STUDY001,LB,STUDY001-SUBJ0003,5,L00005,GLUC,Glucose,CHEMISTRY,66.64,mg/dL,70.0,100.0,66.64,66.64,mg/dL,70.0,100.0,LOW,,SCREENING,1,2025-04-28,-14
STUDY001,LB,STUDY001-SUBJ0003,6,L00006,BUN,Blood Urea Nitrogen,CHEMISTRY,12.28,mg/dL,7.0,20.0,12.28,12.28,mg/dL,7.0,20.0,NORMAL,,SCREENING,1,2025-04-28,-14
STUDY001,LB,STUDY001-SUBJ0003,7,L00007,CREAT,Creatinine,CHEMISTRY,0.96,mg/dL,0.6,1.2,0.96,0.96,mg/dL,0.6,1.2,NORMAL,,SCREENING,1,2025-04-28,-14
STUDY001,LB,STUDY001-SUBJ0003,8,L00008,BILI,Total Bilirubin,CHEMISTRY,0.57,mg/dL,0.1,1.2,0.57,0.57,mg/dL,0.1,1.2,NORMAL,,SCREENING,1,2025-04-28,-14
STUDY001,LB,STUDY001-SUBJ0003,9,L00009,ALP,Alkaline Phosphatase,CHEMISTRY,95.73,U/L,44.0,147.0,95.73,95.73,U/L,44.0,147.0,NORMAL,,SCREENING,1,2025-04-28,-14
STUDY001,LB,STUDY001-SUBJ0003,10,L00010,ALT,Alanine Aminotransferase,CHEMISTRY,30.93,U/L,7.0,56.0,30.93,30.93,U/L,7.0,56.0,NORMAL,,SCREENING,1,2025-04-28,-14
STUDY001,LB,STUDY001-SUBJ0003,11,L00011,HGB,Hemoglobin,HEMATOLOGY,16.05,g/dL,13.5,17.5,16.05,16.05,g/dL,13.5,17.5,NORMAL,Y,BASELINE,2,2025-05-12,1
STUDY001,LB,STUDY001-SUBJ0003,12,L00012,HCT,Hematocrit,HEMATOLOGY,42.12,%,41.0,51.0,42.12,42.12,%,41.0,51.0,NORMAL,Y,BASELINE,2,2025-05-12,1
STUDY001,LB,STUDY001-SUBJ0003,13,L00013,WBC,White Blood Cell Count,HEMATOLOGY,5.19,10^9/L,4.5,11.0,5.19,5.19,10^9/L,4.5,11.0,NORMAL,Y,BASELINE,2,2025-05-12,1
STUDY001,LB,STUDY001-SUBJ0003,14,L00014,PLT,Platelet Count,HEMATOLOGY,273.76,10^9/L,150.0,450.0,273.76,273.76,10^9/L,150.0,450.0,NORMAL,Y,BASELINE,2,2025-05-12,1
STUDY001,LB,STUDY001-SUBJ0003,15,L00015,GLUC,Glucose,CHEMISTRY,65.85,mg/dL,70.0,100.0,65.85,65.85,mg/dL,70.0,100.0,LOW,Y,BASELINE,2,2025-05-12,1
STUDY001,LB,STUDY001-SUBJ0003,16,L00016,BUN,Blood Urea Nitrogen,CHEMISTRY,12.48,mg/dL,7.0,20.0,12.48,12.48,mg/dL,7.0,20.0,NORMAL,Y,BASELINE,2,2025-05-12,1
STUDY001,LB,STUDY001-SUBJ0003,17,L00017,CREAT,Creatinine,CHEMISTRY,0.96,mg/dL,0.6,1.2,0.96,0.96,mg/dL,0.6,1.2,NORMAL,Y,BASELINE,2,2025-05-12,1
STUDY001,LB,STUDY001-SUBJ0003,18,L00018,BILI,Total Bilirubin,CHEMISTRY,0.54,mg/dL,0.1,1.2,0.54,0.54,mg/dL,0.1,1.2,NORMAL,Y,BASELINE,2,2025-05-12,1
STUDY001,LB,STUDY001-SUBJ0003,19,L00019,ALP,Alkaline Phosphatase,CHEMISTRY,101.48,U/L,44.0,147.0,101.48,101.48,U/L,44.0,147.0,NORMAL,Y,BASELINE,2,2025-05-12,1
STUDY001,LB,STUDY001-SUBJ0003,20,L00020,ALT,Alanine Aminotransferase,CHEMISTRY,29.41,U/L,7.0,56.0,29.41,29.41,U/L,7.0,56.0,NORMAL,Y,BASELINE,2,2025-05-12,1
STUDY001,LB,STUDY001-SUBJ0003,21,L00021,HGB,Hemoglobin,HEMATOLOGY,16.08,g/dL,13.5,17.5,16.08,16.08,g/dL,13.5,17.5,NORMAL,,WEEK 1,3,2025-05-18,7
STUDY001,LB,STUDY001-SUBJ0003,22,L00022,HCT,Hematocrit,HEMATOLOGY,42.26,%,41.0,51.0,42.26,42.26,%,41.0,51.0,NORMAL,,WEEK 1,3,2025-05-18,7
STUDY001,LB,STUDY001-SUBJ0003,23,L00023,WBC,White Blood Cell Count,HEMATOLOGY,5.27,10^9/L,4.5,11.0,5.27,5.27,10^9/L,4.5,11.0,NORMAL,,WEEK 1,3,2025-05-18,7
STUDY001,LB,STUDY001-SUBJ0003,24,L00024,PLT,Platelet Count,HEMATOLOGY,270.55,10^9/L,150.0,450.0,270.55,270.55,10^9/L,150.0,450.0,NORMAL,,WEEK 1,3,2025-05-18,7
STUDY001,LB,STUDY001-SUBJ0003,25,L00025,GLUC,Glucose,CHEMISTRY,66.53,mg/dL,70.0,100.0,66.53,66.53,mg/dL,70.0,100.0,LOW,,WEEK 1,3,2025-05-18,7
STUDY001,LB,STUDY001-SUBJ0003,26,L00026,BUN,Blood Urea Nitrogen,CHEMISTRY,12.26,mg/dL,7.0,20.0,12.26,12.26,mg/dL,7.0,20.0,NORMAL,,WEEK 1,3,2025-05-18,7
STUDY001,LB,STUDY001-SUBJ0003,27,L00027,CREAT,Creatinine,CHEMISTRY,0.96,mg/dL,0.6,1.2,0.96,0.96,mg/dL,0.6,1.2,NORMAL,,WEEK 1,3,2025-05-18,7
STUDY001,LB,STUDY001-SUBJ0003,28,L00028,BILI,Total Bilirubin,CHEMISTRY,0.57,mg/dL,0.1,1.2,0.57,0.57,mg/dL,0.1,1.2,NORMAL,,WEEK 1,3,2025-05-18,7
STUDY001,LB,STUDY001-SUBJ0003,29,L00029,ALP,Alkaline Phosphatase,CHEMISTRY,105.15,U/L,44.0,147.0,105.15,105.15,U/L,44.0,147.0,NORMAL,,WEEK 1,3,2025-05-18,7
STUDY001,LB,STUDY001-SUBJ0003,30,L00030,ALT,Alanine Aminotransferase,CHEMISTRY,31.93,U/L,7.0,56.0,31.93,31.93,U/L,7.0,56.0,NORMAL,,WEEK 1,3,2025-05-18,7
STUDY001,LB,STUDY001-SUBJ0003,31,L00031,HGB,Hemoglobin,HEMATOLOGY,16.03,g/dL,13.5,17.5,16.03,16.03,g/dL,13.5,17.5,NORMAL,,WEEK 2,4,2025-05-25,14
STUDY001,LB,STUDY001-SUBJ0003,32,L00032,HCT,Hematocrit,HEMATOLOGY,42.52,%,41.0,51.0,42.52,42.52,%,41.0,51.0,NORMAL,,WEEK 2,4,2025-05-25,14
STUDY001,LB,STUDY001-SUBJ0003,33,L00033,WBC,White Blood Cell Count,HEMATOLOGY,5.27,10^9/L,4.5,11.0,5.27,5.27,10^9/L,4.5,11.0,NORMAL,,WEEK 2,4,2025-05-25,14
STUDY001,LB,STUDY001-SUBJ0003,34,L00034,PLT,Platelet Count,HEMATOLOGY,261.16,10^9/L,150.0,450.0,261.16,261.16,10^9/L,150.0,450.0,NORMAL,,WEEK 2,4,2025-05-25,14
STUDY001,LB,STUDY001-SUBJ0003,35,L00035,GLUC,Glucose,CHEMISTRY,66.54,mg/dL,70.0,100.0,66.54,66.54,mg/dL,70.0,100.0,LOW,,WEEK 2,4,2025-05-25,14
STUDY001,LB,STUDY001-SUBJ0003,36,L00036,BUN,Blood Urea Nitrogen,CHEMISTRY,12.36,mg/dL,7.0,20.0,12.36,12.36,mg/dL,7.0,20.0,NORMAL,,WEEK 2,4,2025-05-25,14
STUDY001,LB,STUDY001-SUBJ0003,37,L00037,CREAT,Creatinine,CHEMISTRY,1.0,mg/dL,0.6,1.2,1.0,1.0,mg/dL,0.6,1.2,NORMAL,,WEEK 2,4,2025-05-25,14
STUDY001,LB,STUDY001-SUBJ0003,38,L00038,BILI,Total Bilirubin,CHEMISTRY,0.59,mg/dL,0.1,1.2,0.59,0.59,mg/dL,0.1,1.2,NORMAL,,WEEK 2,4,2025-05-25,14
STUDY001,LB,STUDY001-SUBJ0003,39,L00039,ALP,Alkaline Phosphatase,CHEMISTRY,103.01,U/L,44.0,147.0,103.01,103.01,U/L,44.0,147.0,NORMAL,,WEEK 2,4,2025-05-25,14
STUDY001,LB,STUDY001-SUBJ0003,40,L00040,ALT,Alanine Aminotransferase,CHEMISTRY,32.4,U/L,7.0,56.0,32.4,32.4,U/L,7.0,56.0,NORMAL,,WEEK 2,4,2025-05-25,14
STUDY001,LB,STUDY001-SUBJ0003,41,L00041,HGB,Hemoglobin,HEMATOLOGY,15.96,g/dL,13.5,17.5,15.96,15.96,g/dL,13.5,17.5,NORMAL,,WEEK 4,5,2025-06-08,28
STUDY001,LB,STUDY001-SUBJ0003,42,L00042,HCT,Hematocrit,HEMATOLOGY,42.69,%,41.0,51.0,42.69,42.69,%,41.0,51.0,NORMAL,,WEEK 4,5,2025-06-08,28
STUDY001,LB,STUDY001-SUBJ0003,43,L00043,WBC,White Blood Cell Count,HEMATOLOGY,5.12,10^9/L,4.5,11.0,5.12,5.12,10^9/L,4.5,11.0,NORMAL,,WEEK 4,5,2025-06-08,28
STUDY001,LB,STUDY001-SUBJ0003,44,L00044,PLT,Platelet Count,HEMATOLOGY,269.2,10^9/L,150.0,450.0,269.2,269.2,10^9/L,150.0,450.0,NORMAL,,WEEK 4,5,2025-06-08,28
STUDY001,LB,STUDY001-SUBJ0003,45,L00045,GLUC,Glucose,CHEMISTRY,66.39,mg/dL,70.0,100.0,66.39,66.39,mg/dL,70.0,100.0,LOW,,WEEK 4,5,2025-06-08,28
STUDY001,LB,STUDY001-SUBJ0003,46,L00046,BUN,Blood Urea Nitrogen,CHEMISTRY,12.26,mg/dL,7.0,20.0,12.26,12.26,mg/dL,7.0,20.0,NORMAL,,WEEK 4,5,2025-06-08,28
STUDY001,LB,STUDY001-SUBJ0003,47,L00047,CREAT,Creatinine,CHEMISTRY,0.97,mg/dL,0.6,1.2,0.97,0.97,mg/dL,0.6,1.2,NORMAL,,WEEK 4,5,2025-06-08,28
STUDY001,LB,STUDY001-SUBJ0003,48,L00048,BILI,Total Bilirubin,CHEMISTRY,0.57,mg/dL,0.1,1.2,0.57,0.57,mg/dL,0.1,1.2,NORMAL,,WEEK 4,5,2025-06-08,28
STUDY001,LB,STUDY001-SUBJ0003,49,L00049,ALP,Alkaline Phosphatase,CHEMISTRY,99.18,U/L,44.0,147.0,99.18,99.18,U/L,44.0,147.0,NORMAL,,WEEK 4,5,2025-06-08,28
STUDY001,LB,STUDY001-SUBJ0003,50,L00050,ALT,Alanine Aminotransferase,CHEMISTRY,28.34,U/L,7.0,56.0,28.34,28.34,U/L,7.0,56.0,NORMAL,,WEEK 4,5,2025-06-08,28
STUDY001,LB,STUDY001-SUBJ0003,51,L00051,HGB,Hemoglobin,HEMATOLOGY,15.95,g/dL,13.5,17.5,15.95,15.95,g/dL,13.5,17.5,NORMAL,,WEEK 8,6,2025-07-06,56
STUDY001,LB,STUDY001-SUBJ0003,52,L00052,HCT,Hematocrit,HEMATOLOGY,41.83,%,41.0,51.0,41.83,41.83,%,41.0,51.0,NORMAL,,WEEK 8,6,2025-07-06,56
STUDY001,LB,STUDY001-SUBJ0003,53,L00053,WBC,White Blood Cell Count,HEMATOLOGY,5.47,10^9/L,4.5,11.0,5.47,5.47,10^9/L,4.5,11.0,NORMAL,,WEEK 8,6,2025-07-06,56
STUDY001,LB,STUDY001-SUBJ0003,54,L00054,PLT,Platelet Count,HEMATOLOGY,271.04,10^9/L,150.0,450.0,271.04,271.04,10^9/L,150.0,450.0,NORMAL,,WEEK 8,6,2025-07-06,56
STUDY001,LB,STUDY001-SUBJ0003,55,L00055,GLUC,Glucose,CHEMISTRY,65.81,mg/dL,70.0,100.0,65.81,65.81,mg/dL,70.0,100.0,LOW,,WEEK 8,6,2025-07-06,56
STUDY001,LB,STUDY001-SUBJ0003,56,L00056,BUN,Blood Urea Nitrogen,CHEMISTRY,12.29,mg/dL,7.0,20.0,12.29,12.29,mg/dL,7.0,20.0,NORMAL,,WEEK 8,6,2025-07-06,56
STUDY001,LB,STUDY001-SUBJ0003,57,L00057,CREAT,Creatinine,CHEMISTRY,1.0,mg/dL,0.6,1.2,1.0,1.0,mg/dL,0.6,1.2,NORMAL,,WEEK 8,6,2025-07-06,56
STUDY001,LB,STUDY001-SUBJ0003,58,L00058,BILI,Total Bilirubin,CHEMISTRY,0.56,mg/dL,0.1,1.2,0.56,0.56,mg/dL,0.1,1.2,NORMAL,,WEEK 8,6,2025-07-06,56
STUDY001,LB,STUDY001-SUBJ0003,59,L00059,ALP,Alkaline Phosphatase,CHEMISTRY,101.53,U/L,44.0,147.0,101.53,101.53,U/L,44.0,147.0,NORMAL,,WEEK 8,6,2025-07-06,56
STUDY001,LB,STUDY001-SUBJ0003,60,L00060,ALT,Alanine Aminotransferase,CHEMISTRY,30.27,U/L,7.0,56.0,30.27,30.27,U/L,7.0,56.0,NORMAL,,WEEK 8,6,2025-07-06,56
STUDY001,LB,STUDY001-SUBJ0003,61,L00061,HGB,Hemoglobin,HEMATOLOGY,16.32,g/dL,13.5,17.5,16.32,16.32,g/dL,13.5,17.5,NORMAL,,WEEK 12,7,2025-08-03,84
STUDY001,LB,STUDY001-SUBJ0003,62,L00062,HCT,Hematocrit,HEMATOLOGY,42.58,%,41.0,51.0,42.58,42.58,%,41.0,51.0,NORMAL,,WEEK 12,7,2025-08-03,84
STUDY001,LB,STUDY001-SUBJ0003,63,L00063,WBC,White Blood Cell Count,HEMATOLOGY,5.26,10^9/L,4.5,11.0,5.26,5.26,10^9/L,4.5,11.0,NORMAL,,WEEK 12,7,2025-08-03,84
STUDY001,LB,STUDY001-SUBJ0003,64,L00064,PLT,Platelet Count,HEMATOLOGY,279.68,10^9/L,150.0,450.0,279.68,279.68,10^9/L,150.0,450.0,NORMAL,,WEEK 12,7,2025-08-03,84
STUDY001,LB,STUDY001-SUBJ0003,65,L00065,GLUC,Glucose,CHEMISTRY,65.43,mg/dL,70.0,100.0,65.43,65.43,mg/dL,70.0,100.0,LOW,,WEEK 12,7,2025-08-03,84
STUDY001,LB,STUDY001-SUBJ0003,66,L00066,BUN,Blood Urea Nitrogen,CHEMISTRY,11.79,mg/dL,7.0,20.0,11.79,11.79,mg/dL,7.0,20.0,NORMAL,,WEEK 12,7,2025-08-03,84
STUDY001,LB,STUDY001-SUBJ0003,67,L00067,CREAT,Creatinine,CHEMISTRY,0.97,mg/dL,0.6,1.2,0.97,0.97,mg/dL,0.6,1.2,NORMAL,,WEEK 12,7,2025-08-03,84
STUDY001,LB,STUDY001-SUBJ0003,68,L00068,BILI,Total Bilirubin,CHEMISTRY,0.55,mg/dL,0.1,1.2,0.55,0.55,mg/dL,0.1,1.2,NORMAL,,WEEK 12,7,2025-08-03,84
STUDY001,LB,STUDY001-SUBJ0003,69,L00069,ALP,Alkaline Phosphatase,CHEMISTRY,100.47,U/L,44.0,147.0,100.47,100.47,U/L,44.0,147.0,NORMAL,,WEEK 12,7,2025-08-03,84
STUDY001,LB,STUDY001-SUBJ0003,70,L00070,ALT,Alanine Aminotransferase,CHEMISTRY,33.15,U/L,7.0,56.0,33.15,33.15,U/L,7.0,56.0,NORMAL,,WEEK 12,7,2025-08-03,84
STUDY001,LB,STUDY001-SUBJ0003,71,L00071,HGB,Hemoglobin,HEMATOLOGY,16.0,g/dL,13.5,17.5,16.0,16.0,g/dL,13.5,17.5,NORMAL,,WEEK 16,8,2025-08-31,112
STUDY001,LB,STUDY001-SUBJ0003,72,L00072,HCT,Hematocrit,HEMATOLOGY,42.61,%,41.0,51.0,42.61,42.61,%,41.0,51.0,NORMAL,,WEEK 16,8,2025-08-31,112
STUDY001,LB,STUDY001-SUBJ0003,73,L00073,WBC,White Blood Cell Count,HEMATOLOGY,5.18,10^9/L,4.5,11.0,5.18,5.18,10^9/L,4.5,11.0,NORMAL,,WEEK 16,8,2025-08-31,112
STUDY001,LB,STUDY001-SUBJ0003,74,L00074,PLT,Platelet Count,HEMATOLOGY,271.85,10^9/L,150.0,450.0,271.85,271.85,10^9/L,150.0,450.0,NORMAL,,WEEK 16,8,2025-08-31,112
STUDY001,LB,STUDY001-SUBJ0003,75,L00075,GLUC,Glucose,CHEMISTRY,66.89,mg/dL,70.0,100.0,66.89,66.89,mg/dL,70.0,100.0,LOW,,WEEK 16,8,2025-08-31,112
STUDY001,LB,STUDY001-SUBJ0003,76,L00076,BUN,Blood Urea Nitrogen,CHEMISTRY,12.19,mg/dL,7.0,20.0,12.19,12.19,mg/dL,7.0,20.0,NORMAL,,WEEK 16,8,2025-08-31,112
STUDY001,LB,STUDY001-SUBJ0003,77,L00077,CREAT,Creatinine,CHEMISTRY,0.99,mg/dL,0.6,1.2,0.99,0.99,mg/dL,0.6,1.2,NORMAL,,WEEK 16,8,2025-08-31,112
STUDY001,LB,STUDY001-SUBJ0003,78,L00078,BILI,Total Bilirubin,CHEMISTRY,0.57,mg/dL,0.1,1.2,0.57,0.57,mg/dL,0.1,1.2,NORMAL,,WEEK 16,8,2025-08-31,112
STUDY001,LB,STUDY001-SUBJ0003,79,L00079,ALP,Alkaline Phosphatase,CHEMISTRY,100.59,U/L,44.0,147.0,100.59,100.59,U/L,44.0,147.0,NORMAL,,WEEK 16,8,2025-08-31,112
STUDY001,LB,STUDY001-SUBJ0003,80,L00080,ALT,Alanine Aminotransferase,CHEMISTRY,33.35,U/L,7.0,56.0,33.35,33.35,U/L,7.0,56.0,NORMAL,,WEEK 16,8,2025-08-31,112
STUDY001,LB,STUDY001-SUBJ0003,81,L00081,HGB,Hemoglobin,HEMATOLOGY,16.03,g/dL,13.5,17.5,16.03,16.03,g/dL,13.5,17.5,NORMAL,,END OF TREATMENT,9,2025-09-28,140
STUDY001,LB,STUDY001-SUBJ0003,82,L00082,HCT,Hematocrit,HEMATOLOGY,42.52,%,41.0,51.0,42.52,42.52,%,41.0,51.0,NORMAL,,END OF TREATMENT,9,2025-09-28,140
STUDY001,LB,STUDY001-SUBJ0003,83,L00083,WBC,White Blood Cell Count,HEMATOLOGY,5.27,10^9/L,4.5,11.0,5.27,5.27,10^9/L,4.5,11.0,NORMAL,,END OF TREATMENT,9,2025-09-28,140
STUDY001,LB,STUDY001-SUBJ0003,84,L00084,PLT,Platelet Count,HEMATOLOGY,269.51,10^9/L,150.0,450.0,269.51,269.51,10^9/L,150.0,450.0,NORMAL,,END OF TREATMENT,9,2025-09-28,140
STUDY001,LB,STUDY001-SUBJ0003,85,L00085,GLUC,Glucose,CHEMISTRY,65.69,mg/dL,70.0,100.0,65.69,65.69,mg/dL,70.0,100.0,LOW,,END OF TREATMENT,9,2025-09-28,140
STUDY001,LB,STUDY001-SUBJ0003,86,L00086,BUN,Blood Urea Nitrogen,CHEMISTRY,12.31,mg/dL,7.0,20.0,12.31,12.31,mg/dL,7.0,20.0,NORMAL,,END OF TREATMENT,9,2025-09-28,140
STUDY001,LB,STUDY001-SUBJ0003,87,L00087,CREAT,Creatinine,CHEMISTRY,0.97,mg/dL,0.6,1.2,0.97,0.97,mg/dL,0.6,1.2,NORMAL,,END OF TREATMENT,9,2025-09-28,140
STUDY001,LB,STUDY001-SUBJ0003,88,L00088,BILI,Total Bilirubin,CHEMISTRY,0.59,mg/dL,0.1,1.2,0.59,0.59,mg/dL,0.1,1.2,NORMAL,,END OF TREATMENT,9,2025-09-28,140
STUDY001,LB,STUDY001-SUBJ0003,89,L00089,ALP,Alkaline Phosphatase,CHEMISTRY,103.43,U/L,44.0,147.0,103.43,103.43,U/L,44.0,147.0,NORMAL,,END OF TREATMENT,9,2025-09-28,140
STUDY001,LB,STUDY001-SUBJ0003,90,L00090,ALT,Alanine Aminotransferase,CHEMISTRY,31.25,U/L,7.0,56.0,31.25,31.25,U/L,7.0,56.0,NORMAL,,END OF TREATMENT,9,2025-09-28,140
STUDY001,LB,STUDY001-SUBJ0004,1,L00001,HGB,Hemoglobin,HEMATOLOGY,14.09,g/dL,13.5,17.5,14.09,14.09,g/dL,13.5,17.5,NORMAL,,SCREENING,1,2025-03-28,-14
STUDY001,LB,STUDY001-SUBJ0004,2,L00002,HCT,Hematocrit,HEMATOLOGY,44.24,%,41.0,51.0,44.24,44.24,%,41.0,51.0,NORMAL,,SCREENING,1,2025-03-28,-14
STUDY001,LB,STUDY001-SUBJ0004,3,L00003,WBC,White Blood Cell Count,HEMATOLOGY,9.02,10^9/L,4.5,11.0,9.02,9.02,10^9/L,4.5,11.0,NORMAL,,SCREENING,1,2025-03-28,-14
STUDY001,LB,STUDY001-SUBJ0004,4,L00004,PLT,Platelet Count,HEMATOLOGY,312.27,10^9/L,150.0,450.0,312.27,312.27,10^9/L,150.0,450.0,NORMAL,,SCREENING,1,2025-03-28,-14
STUDY001,LB,STUDY001-SUBJ0004,5,L00005,GLUC,Glucose,CHEMISTRY,71.23,mg/dL,70.0,100.0,71.23,71.23,mg/dL,70.0,100.0,NORMAL,,SCREENING,1,2025-03-28,-14
STUDY001,LB,STUDY001-SUBJ0004,6,L00006,BUN,Blood Urea Nitrogen,CHEMISTRY,13.1,mg/dL,7.0,20.0,13.1,13.1,mg/dL,7.0,20.0,NORMAL,,SCREENING,1,2025-03-28,-14
STUDY001,LB,STUDY001-SUBJ0004,7,L00007,CREAT,Creatinine,CHEMISTRY,0.77,mg/dL,0.6,1.2,0.77,0.77,mg/dL,0.6,1.2,NORMAL,,SCREENING,1,2025-03-28,-14
STUDY001,LB,STUDY001-SUBJ0004,8,L00008,BILI,Total Bilirubin,CHEMISTRY,0.74,mg/dL,0.1,1.2,0.74,0.74,mg/dL,0.1,1.2,NORMAL,,SCREENING,1,2025-03-28,-14
STUDY001,LB,STUDY001-SUBJ0004,9,L00009,ALP,Alkaline Phosphatase,CHEMISTRY,62.24,U/L,44.0,147.0,62.24,62.24,U/L,44.0,147.0,NORMAL,,SCREENING,1,2025-03-28,-14
STUDY001,LB,STUDY001-SUBJ0004,10,L00010,ALT,Alanine Aminotransferase,CHEMISTRY,25.86,U/L,7.0,56.0,25.86,25.86,U/L,7.0,56.0,NORMAL,,SCREENING,1,2025-03-28,-14
STUDY001,LB,STUDY001-SUBJ0004,11,L00011,HGB,Hemoglobin,HEMATOLOGY,14.07,g/dL,13.5,17.5,14.07,14.07,g/dL,13.5,17.5,NORMAL,Y,BASELINE,2,2025-04-11,1
STUDY001,LB,STUDY001-SUBJ0004,12,L00012,HCT,Hematocrit,HEMATOLOGY,43.64,%,41.0,51.0,43.64,43.64,%,41.0,51.0,NORMAL,Y,BASELINE,2,2025-04-11,1
STUDY001,LB,STUDY001-SUBJ0004,13,L00013,WBC,White Blood Cell Count,HEMATOLOGY,9.15,10^9/L,4.5,11.0,9.15,9.15,10^9/L,4.5,11.0,NORMAL,Y,BASELINE,2,2025-04-11,1
STUDY001,LB,STUDY001-SUBJ0004,14,L00014,PLT,Platelet Count,HEMATOLOGY,317.21,10^9/L,150.0,450.0,317.21,317.21,10^9/L,150.0,450.0,NORMAL,Y,BASELINE,2,2025-04-11,1
STUDY001,LB,STUDY001-SUBJ0004,15,L00015,GLUC,Glucose,CHEMISTRY,72.15,mg/dL,70.0,100.0,72.15,72.15,mg/dL,70.0,100.0,NORMAL,Y,BASELINE,2,2025-04-11,1
STUDY001,LB,STUDY001-SUBJ0004,16,L00016,BUN,Blood Urea Nitrogen,CHEMISTRY,12.89,mg/dL,7.0,20.0,12.89,12.89,mg/dL,7.0,20.0,NORMAL,Y,BASELINE,2,2025-04-11,1
STUDY001,LB,STUDY001-SUBJ0004,17,L00017,CREAT,Creatinine,CHEMISTRY,0.75,mg/dL,0.6,1.2,0.75,0.75,mg/dL,0.6,1.2,NORMAL,Y,BASELINE,2,2025-04-11,1
STUDY001,LB,STUDY001-SUBJ0004,18,L00018,BILI,Total Bilirubin,CHEMISTRY,0.73,mg/dL,0.1,1.2,0.73,0.73,mg/dL,0.1,1.2,NORMAL,Y,BASELINE,2,2025-04-11,1
STUDY001,LB,STUDY001-SUBJ0004,19,L00019,ALP,Alkaline Phosphatase,CHEMISTRY,66.44,U/L,44.0,147.0,66.44,66.44,U/L,44.0,147.0,NORMAL,Y,BASELINE,2,2025-04-11,1
STUDY001,LB,STUDY001-SUBJ0004,20,L00020,ALT,Alanine Aminotransferase,CHEMISTRY,26.43,U/L,7.0,56.0,26.43,26.43,U/L,7.0,56.0,NORMAL,Y,BASELINE,2,2025-04-11,1
STUDY001,LB,STUDY001-SUBJ0004,21,L00021,HGB,Hemoglobin,HEMATOLOGY,14.03,g/dL,13.5,17.5,14.03,14.03,g/dL,13.5,17.5,NORMAL,,WEEK 1,3,2025-04-17,7
STUDY001,LB,STUDY001-SUBJ0004,22,L00022,HCT,Hematocrit,HEMATOLOGY,44.05,%,41.0,51.0,44.05,44.05,%,41.0,51.0,NORMAL,,WEEK 1,3,2025-04-17,7
STUDY001,LB,STUDY001-SUBJ0004,23,L00023,WBC,White Blood Cell Count,HEMATOLOGY,9.19,10^9/L,4.5,11.0,9.19,9.19,10^9/L,4.5,11.0,NORMAL,,WEEK 1,3,2025-04-17,7
STUDY001,LB,STUDY001-SUBJ0004,24,L00024,PLT,Platelet Count,HEMATOLOGY,320.18,10^9/L,150.0,450.0,320.18,320.18,10^9/L,150.0,450.0,NORMAL,,WEEK 1,3,2025-04-17,7
STUDY001,LB,STUDY001-SUBJ0004,25,L00025,GLUC,Glucose,CHEMISTRY,73.08,mg/dL,70.0,100.0,73.08,73.08,mg/dL,70.0,100.0,NORMAL,,WEEK 1,3,2025-04-17,7
STUDY001,LB,STUDY001-SUBJ0004,26,L00026,BUN,Blood Urea Nitrogen,CHEMISTRY,12.55,mg/dL,7.0,20.0,12.55,12.55,mg/dL,7.0,20.0,NORMAL,,WEEK 1,3,2025-04-17,7
STUDY001,LB,STUDY001-SUBJ0004,27,L00027,CREAT,Creatinine,CHEMISTRY,0.76,mg/dL,0.6,1.2,0.76,0.76,mg/dL,0.6,1.2,NORMAL,,WEEK 1,3,2025-04-17,7
STUDY001,LB,STUDY001-SUBJ0004,28,L00028,BILI,Total Bilirubin,CHEMISTRY,0.7,mg/dL,0.1,1.2,0.7,0.7,mg/dL,0.1,1.2,NORMAL,,WEEK 1,3,2025-04-17,7
STUDY001,LB,STUDY001-SUBJ0004,29,L00029,ALP,Alkaline Phosphatase,CHEMISTRY,68.44,U/L,44.0,147.0,68.44,68.44,U/L,44.0,147.0,NORMAL,,WEEK 1,3,2025-04-17,7
STUDY001,LB,STUDY001-SUBJ0004,30,L00030,ALT,Alanine Aminotransferase,CHEMISTRY,27.29,U/L,7.0,56.0,27.29,27.29,U/L,7.0,56.0,NORMAL,,WEEK 1,3,2025-04-17,7
STUDY001,LB,STUDY001-SUBJ0004,31,L00031,HGB,Hemoglobin,HEMATOLOGY,14.13,g/dL,13.5,17.5,14.13,14.13,g/dL,13.5,17.5,NORMAL,,WEEK 2,4,2025-04-24,14
STUDY001,LB,STUDY001-SUBJ0004,32,L00032,HCT,Hematocrit,HEMATOLOGY,43.99,%,41.0,51.0,43.99,43.99,%,41.0,51.0,NORMAL,,WEEK 2,4,2025-04-24,14
STUDY001,LB,STUDY001-SUBJ0004,33,L00033,WBC,White Blood Cell Count,HEMATOLOGY,9.3,10^9/L,4.5,11.0,9.3,9.3,10^9/L,4.5,11.0,NORMAL,,WEEK 2,4,2025-04-24,14
STUDY001,LB,STUDY001-SUBJ0004,34,L00034,PLT,Platelet Count,HEMATOLOGY,319.26,10^9/L,150.0,450.0,319.26,319.26,10^9/L,150.0,450.0,NORMAL,,WEEK 2,4,2025-04-24,14
STUDY001,LB,STUDY001-SUBJ0004,35,L00035,GLUC,Glucose,CHEMISTRY,70.92,mg/dL,70.0,100.0,70.92,70.92,mg/dL,70.0,100.0,NORMAL,,WEEK 2,4,2025-04-24,14
STUDY001,LB,STUDY001-SUBJ0004,36,L00036,BUN,Blood Urea Nitrogen,CHEMISTRY,12.92,mg/dL,7.0,20.0,12.92,12.92,mg/dL,7.0,20.0,NORMAL,,WEEK 2,4,2025-04-24,14
STUDY001,LB,STUDY001-SUBJ0004,37,L00037,CREAT,Creatinine,CHEMISTRY,0.76,mg/dL,0.6,1.2,0.76,0.76,mg/dL,0.6,1.2,NORMAL,,WEEK 2,4,2025-04-24,14
STUDY001,LB,STUDY001-SUBJ0004,38,L00038,BILI,Total Bilirubin,CHEMISTRY,0.76,mg/dL,0.1,1.2,0.76,0.76,mg/dL,0.1,1.2,NORMAL,,WEEK 2,4,2025-04-24,14
STUDY001,LB,STUDY001-SUBJ0004,39,L00039,ALP,Alkaline Phosphatase,CHEMISTRY,64.28,U/L,44.0,147.0,64.28,64.28,U/L,44.0,147.0,NORMAL,,WEEK 2,4,2025-04-24,14
STUDY001,LB,STUDY001-SUBJ0004,40,L00040,ALT,Alanine Aminotransferase,CHEMISTRY,25.74,U/L,7.0,56.0,25.74,25.74,U/L,7.0,56.0,NORMAL,,WEEK 2,4,2025-04-24,14
STUDY001,LB,STUDY001-SUBJ0004,41,L00041,HGB,Hemoglobin,HEMATOLOGY,13.92,g/dL,13.5,17.5,13.92,13.92,g/dL,13.5,17.5,NORMAL,,WEEK 4,5,2025-05-08,28
STUDY001,LB,STUDY001-SUBJ0004,42,L00042,HCT,Hematocrit,HEMATOLOGY,43.73,%,41.0,51.0,43.73,43.73,%,41.0,51.0,NORMAL,,WEEK 4,5,2025-05-08,28
STUDY001,LB,STUDY001-SUBJ0004,43,L00043,WBC,White Blood Cell Count,HEMATOLOGY,9.19,10^9/L,4.5,11.0,9.19,9.19,10^9/L,4.5,11.0,NORMAL,,WEEK 4,5,2025-05-08,28
STUDY001,LB,STUDY001-SUBJ0004,44,L00044,PLT,Platelet Count,HEMATOLOGY,333.73,10^9/L,150.0,450.0,333.73,333.73,10^9/L,150.0,450.0,NORMAL,,WEEK 4,5,2025-05-08,28
STUDY001,LB,STUDY001-SUBJ0004,45,L00045,GLUC,Glucose,CHEMISTRY,70.8,mg/dL,70.0,100.0,70.8,70.8,mg/dL,70.0,100.0,NORMAL,,WEEK 4,5,2025-05-08,28
STUDY001,LB,STUDY001-SUBJ0004,46,L00046,BUN,Blood Urea Nitrogen,CHEMISTRY,12.31,mg/dL,7.0,20.0,12.31,12.31,mg/dL,7.0,20.0,NORMAL,,WEEK 4,5,2025-05-08,28
STUDY001,LB,STUDY001-SUBJ0004,47,L00047,CREAT,Creatinine,CHEMISTRY,0.76,mg/dL,0.6,1.2,0.76,0.76,mg/dL,0.6,1.2,NORMAL,,WEEK 4,5,2025-05-08,28
STUDY001,LB,STUDY001-SUBJ0004,48,L00048,BILI,Total Bilirubin,CHEMISTRY,0.72,mg/dL,0.1,1.2,0.72,0.72,mg/dL,0.1,1.2,NORMAL,,WEEK 4,5,2025-05-08,28
STUDY001,LB,STUDY001-SUBJ0004,49,L00049,ALP,Alkaline Phosphatase,CHEMISTRY,66.72,U/L,44.0,147.0,66.72,66.72,U/L,44.0,147.0,NORMAL,,WEEK 4,5,2025-05-08,28
STUDY001,LB,STUDY001-SUBJ0004,50,L00050,ALT,Alanine Aminotransferase,CHEMISTRY,25.36,U/L,7.0,56.0,25.36,25.36,U/L,7.0,56.0,NORMAL,,WEEK 4,5,2025-05-08,28
STUDY001,LB,STUDY001-SUBJ0004,51,L00051,HGB,Hemoglobin,HEMATOLOGY,14.27,g/dL,13.5,17.5,14.27,14.27,g/dL,13.5,17.5,NORMAL,,WEEK 8,6,2025-06-05,56
STUDY001,LB,STUDY001-SUBJ0004,52,L00052,HCT,Hematocrit,HEMATOLOGY,43.73,%,41.0,51.0,43.73,43.73,%,41.0,51.0,NORMAL,,WEEK 8,6,2025-06-05,56
STUDY001,LB,STUDY001-SUBJ0004,53,L00053,WBC,White Blood Cell Count,HEMATOLOGY,9.28,10^9/L,4.5,11.0,9.28,9.28,10^9/L,4.5,11.0,NORMAL,,WEEK 8,6,2025-06-05,56
STUDY001,LB,STUDY001-SUBJ0004,54,L00054,PLT,Platelet Count,HEMATOLOGY,314.36,10^9/L,150.0,450.0,314.36,314.36,10^9/L,150.0,450.0,NORMAL,,WEEK 8,6,2025-06-05,56
STUDY001,LB,STUDY001-SUBJ0004,55,L00055,GLUC,Glucose,CHEMISTRY,71.05,mg/dL,70.0,100.0,71.05,71.05,mg/dL,70.0,100.0,NORMAL,,WEEK 8,6,2025-06-05,56
STUDY001,LB,STUDY001-SUBJ0004,56,L00056,BUN,Blood Urea Nitrogen,CHEMISTRY,13.15,mg/dL,7.0,20.0,13.15,13.15,mg/dL,7.0,20.0,NORMAL,,WEEK 8,6,2025-06-05,56
STUDY001,LB,STUDY001-SUBJ0004,57,L00057,CREAT,Creatinine,CHEMISTRY,0.77,mg/dL,0.6,1.2,0.77,0.77,mg/dL,0.6,1.2,NORMAL,,WEEK 8,6,2025-06-05,56
STUDY001,LB,STUDY001-SUBJ0004,58,L00058,BILI,Total Bilirubin,CHEMISTRY,0.76,mg/dL,0.1,1.2,0.76,0.76,mg/dL,0.1,1.2,NORMAL,,WEEK 8,6,2025-06-05,56
STUDY001,LB,STUDY001-SUBJ0004,59,L00059,ALP,Alkaline Phosphatase,CHEMISTRY,64.44,U/L,44.0,147.0,64.44,64.44,U/L,44.0,147.0,NORMAL,,WEEK 8,6,2025-06-05,56
STUDY001,LB,STUDY001-SUBJ0004,60,L00060,ALT,Alanine Aminotransferase,CHEMISTRY,24.26,U/L,7.0,56.0,24.26,24.26,U/L,7.0,56.0,NORMAL,,WEEK 8,6,2025-06-05,56
STUDY001,LB,STUDY001-SUBJ0004,61,L00061,HGB,Hemoglobin,HEMATOLOGY,14.02,g/dL,13.5,17.5,14.02,14.02,g/dL,13.5,17.5,NORMAL,,WEEK 12,7,2025-07-03,84
STUDY001,LB,STUDY001-SUBJ0004,62,L00062,HCT,Hematocrit,HEMATOLOGY,43.93,%,41.0,51.0,43.93,43.93,%,41.0,51.0,NORMAL,,WEEK 12,7,2025-07-03,84
STUDY001,LB,STUDY001-SUBJ0004,63,L00063,WBC,White Blood Cell Count,HEMATOLOGY,9.39,10^9/L,4.5,11.0,9.39,9.39,10^9/L,4.5,11.0,NORMAL,,WEEK 12,7,2025-07-03,84
STUDY001,LB,STUDY001-SUBJ0004,64,L00064,PLT,Platelet Count,HEMATOLOGY,323.73,10^9/L,150.0,450.0,323.73,323.73,10^9/L,150.0,450.0,NORMAL,,WEEK 12,7,2025-07-03,84
STUDY001,LB,STUDY001-SUBJ0004,65,L00065,GLUC,Glucose,CHEMISTRY,70.82,mg/dL,70.0,100.0,70.82,70.82,mg/dL,70.0,100.0,NORMAL,,WEEK 12,7,2025-07-03,84
STUDY001,LB,STUDY001-SUBJ0004,66,L00066,BUN,Blood Urea Nitrogen,CHEMISTRY,13.23,mg/dL,7.0,20.0,13.23,13.23,mg/dL,7.0,20.0,NORMAL,,WEEK 12,7,2025-07-03,84
STUDY001,LB,STUDY001-SUBJ0004,67,L00067,CREAT,Creatinine,CHEMISTRY,0.79,mg/dL,0.6,1.2,0.79,0.79,mg/dL,0.6,1.2,NORMAL,,WEEK 12,7,2025-07-03,84
STUDY001,LB,STUDY001-SUBJ0004,68,L00068,BILI,Total Bilirubin,CHEMISTRY,0.76,mg/dL,0.1,1.2,0.76,0.76,mg/dL,0.1,1.2,NORMAL,,WEEK 12,7,2025-07-03,84
STUDY001,LB,STUDY001-SUBJ0004,69,L00069,ALP,Alkaline Phosphatase,CHEMISTRY,63.14,U/L,44.0,147.0,63.14,63.14,U/L,44.0,147.0,NORMAL,,WEEK 12,7,2025-07-03,84
STUDY001,LB,STUDY001-SUBJ0004,70,L00070,ALT,Alanine Aminotransferase,CHEMISTRY,26.87,U/L,7.0,56.0,26.87,26.87,U/L,7.0,56.0,NORMAL,,WEEK 12,7,2025-07-03,84
STUDY001,LB,STUDY001-SUBJ0004,71,L00071,HGB,Hemoglobin,HEMATOLOGY,14.23,g/dL,13.5,17.5,14.23,14.23,g/dL,13.5,17.5,NORMAL,,WEEK 16,8,2025-07-31,112
STUDY001,LB,STUDY001-SUBJ0004,72,L00072,HCT,Hematocrit,HEMATOLOGY,44.04,%,41.0,51.0,44.04,44.04,%,41.0,51.0,NORMAL,,WEEK 16,8,2025-07-31,112
STUDY001,LB,STUDY001-SUBJ0004,73,L00073,WBC,White Blood Cell Count,HEMATOLOGY,9.39,10^9/L,4.5,11.0,9.39,9.39,10^9/L,4.5,11.0,NORMAL,,WEEK 16,8,2025-07-31,112
STUDY001,LB,STUDY001-SUBJ0004,74,L00074,PLT,Platelet Count,HEMATOLOGY,316.69,10^9/L,150.0,450.0,316.69,316.69,10^9/L,150.0,450.0,NORMAL,,WEEK 16,8,2025-07-31,112
STUDY001,LB,STUDY001-SUBJ0004,75,L00075,GLUC,Glucose,CHEMISTRY,71.0,mg/dL,70.0,100.0,71.0,71.0,mg/dL,70.0,100.0,NORMAL,,WEEK 16,8,2025-07-31,112
STUDY001,LB,STUDY001-SUBJ0004,76,L00076,BUN,Blood Urea Nitrogen,CHEMISTRY,12.9,mg/dL,7.0,20.0,12.9,12.9,mg/dL,7.0,20.0,NORMAL,,WEEK 16,8,2025-07-31,112
STUDY001,LB,STUDY001-SUBJ0004,77,L00077,CREAT,Creatinine,CHEMISTRY,0.77,mg/dL,0.6,1.2,0.77,0.77,mg/dL,0.6,1.2,NORMAL,,WEEK 16,8,2025-07-31,112
STUDY001,LB,STUDY001-SUBJ0004,78,L00078,BILI,Total Bilirubin,CHEMISTRY,0.76,mg/dL,0.1,1.2,0.76,0.76,mg/dL,0.1,1.2,NORMAL,,WEEK 16,8,2025-07-31,112
STUDY001,LB,STUDY001-SUBJ0004,79,L00079,ALP,Alkaline Phosphatase,CHEMISTRY,64.29,U/L,44.0,147.0,64.29,64.29,U/L,44.0,147.0,NORMAL,,WEEK 16,8,2025-07-31,112
STUDY001,LB,STUDY001-SUBJ0004,80,L00080,ALT,Alanine Aminotransferase,CHEMISTRY,26.97,U/L,7.0,56.0,26.97,26.97,U/L,7.0,56.0,NORMAL,,WEEK 16,8,2025-07-31,112
STUDY001,LB,STUDY001-SUBJ0004,81,L00081,HGB,Hemoglobin,HEMATOLOGY,14.26,g/dL,13.5,17.5,14.26,14.26,g/dL,13.5,17.5,NORMAL,,END OF TREATMENT,9,2025-08-28,140
STUDY001,LB,STUDY001-SUBJ0004,82,L00082,HCT,Hematocrit,HEMATOLOGY,43.63,%,41.0,51.0,43.63,43.63,%,41.0,51.0,NORMAL,,END OF TREATMENT,9,2025-08-28,140
STUDY001,LB,STUDY001-SUBJ0004,83,L00083,WBC,White Blood Cell Count,HEMATOLOGY,9.02,10^9/L,4.5,11.0,9.02,9.02,10^9/L,4.5,11.0,NORMAL,,END OF TREATMENT,9,2025-08-28,140
STUDY001,LB,STUDY001-SUBJ0004,84,L00084,PLT,Platelet Count,HEMATOLOGY,318.25,10^9/L,150.0,450.0,318.25,318.25,10^9/L,150.0,450.0,NORMAL,,END OF TREATMENT,9,2025-08-28,140
STUDY001,LB,STUDY001-SUBJ0004,85,L00085,GLUC,Glucose,CHEMISTRY,73.16,mg/dL,70.0,100.0,73.16,73.16,mg/dL,70.0,100.0,NORMAL,,END OF TREATMENT,9,2025-08-28,140
STUDY001,LB,STUDY001-SUBJ0004,86,L00086,BUN,Blood Urea Nitrogen,CHEMISTRY,12.43,mg/dL,7.0,20.0,12.43,12.43,mg/dL,7.0,20.0,NORMAL,,END OF TREATMENT,9,2025-08-28,140
STUDY001,LB,STUDY001-SUBJ0004,87,L00087,CREAT,Creatinine,CHEMISTRY,0.76,mg/dL,0.6,1.2,0.76,0.76,mg/dL,0.6,1.2,NORMAL,,END OF TREATMENT,9,2025-08-28,140
STUDY001,LB,STUDY001-SUBJ0004,88,L00088,BILI,Total Bilirubin,CHEMISTRY,0.74,mg/dL,0.1,1.2,0.74,0.74,mg/dL,0.1,1.2,NORMAL,,END OF TREATMENT,9,2025-08-28,140
STUDY001,LB,STUDY001-SUBJ0004,89,L00089,ALP,Alkaline Phosphatase,CHEMISTRY,64.15,U/L,44.0,147.0,64.15,64.15,U/L,44.0,147.0,NORMAL,,END OF TREATMENT,9,2025-08-28,140
STUDY001,LB,STUDY001-SUBJ0004,90,L00090,ALT,Alanine Aminotransferase,CHEMISTRY,25.41,U/L,7.0,56.0,25.41,25.41,U/L,7.0,56.0,NORMAL,,END OF TREATMENT,9,2025-08-28,140
STUDY001,LB,STUDY001-SUBJ0005,1,L00001,HGB,Hemoglobin,HEMATOLOGY,13.81,g/dL,13.5,17.5,13.81,13.81,g/dL,13.5,17.5,NORMAL,,SCREENING,1,2024-10-26,-14
STUDY001,LB,STUDY001-SUBJ0005,2,L00002,HCT,Hematocrit,HEMATOLOGY,50.7,%,41.0,51.0,50.7,50.7,%,41.0,51.0,NORMAL,,SCREENING,1,2024-10-26,-14
STUDY001,LB,STUDY001-SUBJ0005,3,L00003,WBC,White Blood Cell Count,HEMATOLOGY,8.52,10^9/L,4.5,11.0,8.52,8.52,10^9/L,4.5,11.0,NORMAL,,SCREENING,1,2024-10-26,-14
STUDY001,LB,STUDY001-SUBJ0005,4,L00004,PLT,Platelet Count,HEMATOLOGY,235.89,10^9/L,150.0,450.0,235.89,235.89,10^9/L,150.0,450.0,NORMAL,,SCREENING,1,2024-10-26,-14
STUDY001,LB,STUDY001-SUBJ0005,5,L00005,GLUC,Glucose,CHEMISTRY,75.5,mg/dL,70.0,100.0,75.5,75.5,mg/dL,70.0,100.0,NORMAL,,SCREENING,1,2024-10-26,-14
STUDY001,LB,STUDY001-SUBJ0005,6,L00006,BUN,Blood Urea Nitrogen,CHEMISTRY,12.81,mg/dL,7.0,20.0,12.81,12.81,mg/dL,7.0,20.0,NORMAL,,SCREENING,1,2024-10-26,-14
STUDY001,LB,STUDY001-SUBJ0005,7,L00007,CREAT,Creatinine,CHEMISTRY,0.93,mg/dL,0.6,1.2,0.93,0.93,mg/dL,0.6,1.2,NORMAL,,SCREENING,1,2024-10-26,-14
STUDY001,LB,STUDY001-SUBJ0005,8,L00008,BILI,Total Bilirubin,CHEMISTRY,0.78,mg/dL,0.1,1.2,0.78,0.78,mg/dL,0.1,1.2,NORMAL,,SCREENING,1,2024-10-26,-14
STUDY001,LB,STUDY001-SUBJ0005,9,L00009,ALP,Alkaline Phosphatase,CHEMISTRY,41.07,U/L,44.0,147.0,41.07,41.07,U/L,44.0,147.0,LOW,,SCREENING,1,2024-10-26,-14
STUDY001,LB,STUDY001-SUBJ0005,10,L00010,ALT,Alanine Aminotransferase,CHEMISTRY,43.05,U/L,7.0,56.0,43.05,43.05,U/L,7.0,56.0,NORMAL,,SCREENING,1,2024-10-26,-14
STUDY001,LB,STUDY001-SUBJ0005,11,L00011,HGB,Hemoglobin,HEMATOLOGY,13.79,g/dL,13.5,17.5,13.79,13.79,g/dL,13.5,17.5,NORMAL,Y,BASELINE,2,2024-11-09,1
STUDY001,LB,STUDY001-SUBJ0005,12,L00012,HCT,Hematocrit,HEMATOLOGY,50.23,%,41.0,51.0,50.23,50.23,%,41.0,51.0,NORMAL,Y,BASELINE,2,2024-11-09,1
STUDY001,LB,STUDY001-SUBJ0005,13,L00013,WBC,White Blood Cell Count,HEMATOLOGY,8.6,10^9/L,4.5,11.0,8.6,8.6,10^9/L,4.5,11.0,NORMAL,Y,BASELINE,2,2024-11-09,1
STUDY001,LB,STUDY001-SUBJ0005,14,L00014,PLT,Platelet Count,HEMATOLOGY,222.3,10^9/L,150.0,450.0,222.3,222.3,10^9/L,150.0,450.0,NORMAL,Y,BASELINE,2,2024-11-09,1
STUDY001,LB,STUDY001-SUBJ0005,15,L00015,GLUC,Glucose,CHEMISTRY,74.34,mg/dL,70.0,100.0,74.34,74.34,mg/dL,70.0,100.0,NORMAL,Y,BASELINE,2,2024-11-09,1
STUDY001,LB,STUDY001-SUBJ0005,16,L00016,BUN,Blood Urea Nitrogen,CHEMISTRY,13.3,mg/dL,7.0,20.0,13.3,13.3,mg/dL,7.0,20.0,NORMAL,Y,BASELINE,2,2024-11-09,1
STUDY001,LB,STUDY001-SUBJ0005,17,L00017,CREAT,Creatinine,CHEMISTRY,0.92,mg/dL,0.6,1.2,0.92,0.92,mg/dL,0.6,1.2,NORMAL,Y,BASELINE,2,2024-11-09,1
STUDY001,LB,STUDY001-SUBJ0005,18,L00018,BILI,Total Bilirubin,CHEMISTRY,0.82,mg/dL,0.1,1.2,0.82,0.82,mg/dL,0.1,1.2,NORMAL,Y,BASELINE,2,2024-11-09,1
STUDY001,LB,STUDY001-SUBJ0005,19,L00019,ALP,Alkaline Phosphatase,CHEMISTRY,36.93,U/L,44.0,147.0,36.93,36.93,U/L,44.0,147.0,LOW,Y,BASELINE,2,2024-11-09,1
STUDY001,LB,STUDY001-SUBJ0005,20,L00020,ALT,Alanine Aminotransferase,CHEMISTRY,42.14,U/L,7.0,56.0,42.14,42.14,U/L,7.0,56.0,NORMAL,Y,BASELINE,2,2024-11-09,1
STUDY001,LB,STUDY001-SUBJ0005,21,L00021,HGB,Hemoglobin,HEMATOLOGY,13.99,g/dL,13.5,17.5,13.99,13.99,g/dL,13.5,17.5,NORMAL,,WEEK 1,3,2024-11-15,7
STUDY001,LB,STUDY001-SUBJ0005,22,L00022,HCT,Hematocrit,HEMATOLOGY,50.41,%,41.0,51.0,50.41,50.41,%,41.0,51.0,NORMAL,,WEEK 1,3,2024-11-15,7
STUDY001,LB,STUDY001-SUBJ0005,23,L00023,WBC,White Blood Cell Count,HEMATOLOGY,8.33,10^9/L,4.5,11.0,8.33,8.33,10^9/L,4.5,11.0,NORMAL,,WEEK 1,3,2024-11-15,7
STUDY001,LB,STUDY001-SUBJ0005,24,L00024,PLT,Platelet Count,HEMATOLOGY,229.94,10^9/L,150.0,450.0,229.94,229.94,10^9/L,150.0,450.0,NORMAL,,WEEK 1,3,2024-11-15,7
STUDY001,LB,STUDY001-SUBJ0005,25,L00025,GLUC,Glucose,CHEMISTRY,74.14,mg/dL,70.0,100.0,74.14,74.14,mg/dL,70.0,100.0,NORMAL,,WEEK 1,3,2024-11-15,7
STUDY001,LB,STUDY001-SUBJ0005,26,L00026,BUN,Blood Urea Nitrogen,CHEMISTRY,13.04,mg/dL,7.0,20.0,13.04,13.04,mg/dL,7.0,20.0,NORMAL,,WEEK 1,3,2024-11-15,7
STUDY001,LB,STUDY001-SUBJ0005,27,L00027,CREAT,Creatinine,CHEMISTRY,0.94,mg/dL,0.6,1.2,0.94,0.94,mg/dL,0.6,1.2,NORMAL,,WEEK 1,3,2024-11-15,7
STUDY001,LB,STUDY001-SUBJ0005,28,L00028,BILI,Total Bilirubin,CHEMISTRY,0.81,mg/dL,0.1,1.2,0.81,0.81,mg/dL,0.1,1.2,NORMAL,,WEEK 1,3,2024-11-15,7
STUDY001,LB,STUDY001-SUBJ0005,29,L00029,ALP,Alkaline Phosphatase,CHEMISTRY,38.96,U/L,44.0,147.0,38.96,38.96,U/L,44.0,147.0,LOW,,WEEK 1,3,2024-11-15,7
STUDY001,LB,STUDY001-SUBJ0005,30,L00030,ALT,Alanine Aminotransferase,CHEMISTRY,42.07,U/L,7.0,56.0,42.07,42.07,U/L,7.0,56.0,NORMAL,,WEEK 1,3,2024-11-15,7
STUDY001,LB,STUDY001-SUBJ0005,31,L00031,HGB,Hemoglobin,HEMATOLOGY,13.77,g/dL,13.5,17.5,13.77,13.77,g/dL,13.5,17.5,NORMAL,,WEEK 2,4,2024-11-22,14
STUDY001,LB,STUDY001-SUBJ0005,32,L00032,HCT,Hematocrit,HEMATOLOGY,50.12,%,41.0,51.0,50.12,50.12,%,41.0,51.0,NORMAL,,WEEK 2,4,2024-11-22,14
STUDY001,LB,STUDY001-SUBJ0005,33,L00033,WBC,White Blood Cell Count,HEMATOLOGY,8.5,10^9/L,4.5,11.0,8.5,8.5,10^9/L,4.5,11.0,NORMAL,,WEEK 2,4,2024-11-22,14
STUDY001,LB,STUDY001-SUBJ0005,34,L00034,PLT,Platelet Count,HEMATOLOGY,231.57,10^9/L,150.0,450.0,231.57,231.57,10^9/L,150.0,450.0,NORMAL,,WEEK 2,4,2024-11-22,14
STUDY001,LB,STUDY001-SUBJ0005,35,L00035,GLUC,Glucose,CHEMISTRY,73.46,mg/dL,70.0,100.0,73.46,73.46,mg/dL,70.0,100.0,NORMAL,,WEEK 2,4,2024-11-22,14
STUDY001,LB,STUDY001-SUBJ0005,36,L00036,BUN,Blood Urea Nitrogen,CHEMISTRY,12.93,mg/dL,7.0,20.0,12.93,12.93,mg/dL,7.0,20.0,NORMAL,,WEEK 2,4,2024-11-22,14
STUDY001,LB,STUDY001-SUBJ0005,37,L00037,CREAT,Creatinine,CHEMISTRY,0.93,mg/dL,0.6,1.2,0.93,0.93,mg/dL,0.6,1.2,NORMAL,,WEEK 2,4,2024-11-22,14
STUDY001,LB,STUDY001-SUBJ0005,38,L00038,BILI,Total Bilirubin,CHEMISTRY,0.81,mg/dL,0.1,1.2,0.81,0.81,mg/dL,0.1,1.2,NORMAL,,WEEK 2,4,2024-11-22,14
STUDY001,LB,STUDY001-SUBJ0005,39,L00039,ALP,Alkaline Phosphatase,CHEMISTRY,40.48,U/L,44.0,147.0,40.48,40.48,U/L,44.0,147.0,LOW,,WEEK 2,4,2024-11-22,14
STUDY001,LB,STUDY001-SUBJ0005,40,L00040,ALT,Alanine Aminotransferase,CHEMISTRY,39.74,U/L,7.0,56.0,39.74,39.74,U/L,7.0,56.0,NORMAL,,WEEK 2,4,2024-11-22,14
STUDY001,LB,STUDY001-SUBJ0005,41,L00041,HGB,Hemoglobin,HEMATOLOGY,13.79,g/dL,13.5,17.5,13.79,13.79,g/dL,13.5,17.5,NORMAL,,WEEK 4,5,2024-12-06,28
STUDY001,LB,STUDY001-SUBJ0005,42,L00042,HCT,Hematocrit,HEMATOLOGY,50.38,%,41.0,51.0,50.38,50.38,%,41.0,51.0,NORMAL,,WEEK 4,5,2024-12-06,28
STUDY001,LB,STUDY001-SUBJ0005,43,L00043,WBC,White Blood Cell Count,HEMATOLOGY,8.57,10^9/L,4.5,11.0,8.57,8.57,10^9/L,4.5,11.0,NORMAL,,WEEK 4,5,2024-12-06,28
STUDY001,LB,STUDY001-SUBJ0005,44,L00044,PLT,Platelet Count,HEMATOLOGY,231.79,10^9/L,150.0,450.0,231.79,231.79,10^9/L,150.0,450.0,NORMAL,,WEEK 4,5,2024-12-06,28
STUDY001,LB,STUDY001-SUBJ0005,45,L00045,GLUC,Glucose,CHEMISTRY,75.13,mg/dL,70.0,100.0,75.13,75.13,mg/dL,70.0,100.0,NORMAL,,WEEK 4,5,2024-12-06,28
STUDY001,LB,STUDY001-SUBJ0005,46,L00046,BUN,Blood Urea Nitrogen,CHEMISTRY,12.86,mg/dL,7.0,20.0,12.86,12.86,mg/dL,7.0,20.0,NORMAL,,WEEK 4,5,2024-12-06,28
STUDY001,LB,STUDY001-SUBJ0005,47,L00047,CREAT,Creatinine,CHEMISTRY,0.93,mg/dL,0.6,1.2,0.93,0.93,mg/dL,0.6,1.2,NORMAL,,WEEK 4,5,2024-12-06,28
STUDY001,LB,STUDY001-SUBJ0005,48,L00048,BILI,Total Bilirubin,CHEMISTRY,0.79,mg/dL,0.1,1.2,0.79,0.79,mg/dL,0.1,1.2,NORMAL,,WEEK 4,5,2024-12-06,28
STUDY001,LB,STUDY001-SUBJ0005,49,L00049,ALP,Alkaline Phosphatase,CHEMISTRY,41.34,U/L,44.0,147.0,41.34,41.34,U/L,44.0,147.0,LOW,,WEEK 4,5,2024-12-06,28
STUDY001,LB,STUDY001-SUBJ0005,50,L00050,ALT,Alanine Aminotransferase,CHEMISTRY,40.86,U/L,7.0,56.0,40.86,40.86,U/L,7.0,56.0,NORMAL,,WEEK 4,5,2024-12-06,28
STUDY001,LB,STUDY001-SUBJ0005,51,L00051,HGB,Hemoglobin,HEMATOLOGY,13.71,g/dL,13.5,17.5,13.71,13.71,g/dL,13.5,17.5,NORMAL,,WEEK 8,6,2025-01-03,56
STUDY001,LB,STUDY001-SUBJ0005,52,L00052,HCT,Hematocrit,HEMATOLOGY,50.02,%,41.0,51.0,50.02,50.02,%,41.0,51.0,NORMAL,,WEEK 8,6,2025-01-03,56
STUDY001,LB,STUDY001-SUBJ0005,53,L00053,WBC,White Blood Cell Count,HEMATOLOGY,8.31,10^9/L,4.5,11.0,8.31,8.31,10^9/L,4.5,11.0,NORMAL,,WEEK 8,6,2025-01-03,56
STUDY001,LB,STUDY001-SUBJ0005,54,L00054,PLT,Platelet Count,HEMATOLOGY,225.04,10^9/L,150.0,450.0,225.04,225.04,10^9/L,150.0,450.0,NORMAL,,WEEK 8,6,2025-01-03,56
STUDY001,LB,STUDY001-SUBJ0005,55,L00055,GLUC,Glucose,CHEMISTRY,74.42,mg/dL,70.0,100.0,74.42,74.42,mg/dL,70.0,100.0,NORMAL,,WEEK 8,6,2025-01-03,56
STUDY001,LB,STUDY001-SUBJ0005,56,L00056,BUN,Blood Urea Nitrogen,CHEMISTRY,12.56,mg/dL,7.0,20.0,12.56,12.56,mg/dL,7.0,20.0,NORMAL,,WEEK 8,6,2025-01-03,56
STUDY001,LB,STUDY001-SUBJ0005,57,L00057,CREAT,Creatinine,CHEMISTRY,0.93,mg/dL,0.6,1.2,0.93,0.93,mg/dL,0.6,1.2,NORMAL,,WEEK 8,6,2025-01-03,56
STUDY001,LB,STUDY001-SUBJ0005,58,L00058,BILI,Total Bilirubin,CHEMISTRY,0.77,mg/dL,0.1,1.2,0.77,0.77,mg/dL,0.1,1.2,NORMAL,,WEEK 8,6,2025-01-03,56
STUDY001,LB,STUDY001-SUBJ0005,59,L00059,ALP,Alkaline Phosphatase,CHEMISTRY,40.73,U/L,44.0,147.0,40.73,40.73,U/L,44.0,147.0,LOW,,WEEK 8,6,2025-01-03,56
STUDY001,LB,STUDY001-SUBJ0005,60,L00060,ALT,Alanine Aminotransferase,CHEMISTRY,39.65,U/L,7.0,56.0,39.65,39.65,U/L,7.0,56.0,NORMAL,,WEEK 8,6,2025-01-03,56
STUDY001,LB,STUDY001-SUBJ0005,61,L00061,HGB,Hemoglobin,HEMATOLOGY,13.71,g/dL,13.5,17.5,13.71,13.71,g/dL,13.5,17.5,NORMAL,,WEEK 12,7,2025-01-31,84
STUDY001,LB,STUDY001-SUBJ0005,62,L00062,HCT,Hematocrit,HEMATOLOGY,50.45,%,41.0,51.0,50.45,50.45,%,41.0,51.0,NORMAL,,WEEK 12,7,2025-01-31,84
STUDY001,LB,STUDY001-SUBJ0005,63,L00063,WBC,White Blood Cell Count,HEMATOLOGY,8.46,10^9/L,4.5,11.0,8.46,8.46,10^9/L,4.5,11.0,NORMAL,,WEEK 12,7,2025-01-31,84
STUDY001,LB,STUDY001-SUBJ0005,64,L00064,PLT,Platelet Count,HEMATOLOGY,233.69,10^9/L,150.0,450.0,233.69,233.69,10^9/L,150.0,450.0,NORMAL,,WEEK 12,7,2025-01-31,84
STUDY001,LB,STUDY001-SUBJ0005,65,L00065,GLUC,Glucose,CHEMISTRY,74.42,mg/dL,70.0,100.0,74.42,74.42,mg/dL,70.0,100.0,NORMAL,,WEEK 12,7,2025-01-31,84
STUDY001,LB,STUDY001-SUBJ0005,66,L00066,BUN,Blood Urea Nitrogen,CHEMISTRY,12.86,mg/dL,7.0,20.0,12.86,12.86,mg/dL,7.0,20.0,NORMAL,,WEEK 12,7,2025-01-31,84
STUDY001,LB,STUDY001-SUBJ0005,67,L00067,CREAT,Creatinine,CHEMISTRY,0.91,mg/dL,0.6,1.2,0.91,0.91,mg/dL,0.6,1.2,NORMAL,,WEEK 12,7,2025-01-31,84
STUDY001,LB,STUDY001-SUBJ0005,68,L00068,BILI,Total Bilirubin,CHEMISTRY,0.79,mg/dL,0.1,1.2,0.79,0.79,mg/dL,0.1,1.2,NORMAL,,WEEK 12,7,2025-01-31,84
STUDY001,LB,STUDY001-SUBJ0005,69,L00069,ALP,Alkaline Phosphatase,CHEMISTRY,39.06,U/L,44.0,147.0,39.06,39.06,U/L,44.0,147.0,LOW,,WEEK 12,7,2025-01-31,84
STUDY001,LB,STUDY001-SUBJ0005,70,L00070,ALT,Alanine Aminotransferase,CHEMISTRY,39.87,U/L,7.0,56.0,39.87,39.87,U/L,7.0,56.0,NORMAL,,WEEK 12,7,2025-01-31,84
STUDY001,LB,STUDY001-SUBJ0005,71,L00071,HGB,Hemoglobin,HEMATOLOGY,13.77,g/dL,13.5,17.5,13.77,13.77,g/dL,13.5,17.5,NORMAL,,WEEK 16,8,2025-02-28,112
STUDY001,LB,STUDY001-SUBJ0005,72,L00072,HCT,Hematocrit,HEMATOLOGY,50.15,%,41.0,51.0,50.15,50.15,%,41.0,51.0,NORMAL,,WEEK 16,8,2025-02-28,112
STUDY001,LB,STUDY001-SUBJ0005,73,L00073,WBC,White Blood Cell Count,HEMATOLOGY,8.31,10^9/L,4.5,11.0,8.31,8.31,10^9/L,4.5,11.0,NORMAL,,WEEK 16,8,2025-02-28,112
STUDY001,LB,STUDY001-SUBJ0005,74,L00074,PLT,Platelet Count,HEMATOLOGY,224.13,10^9/L,150.0,450.0,224.13,224.13,10^9/L,150.0,450.0,NORMAL,,WEEK 16,8,2025-02-28,112
STUDY001,LB,STUDY001-SUBJ0005,75,L00075,GLUC,Glucose,CHEMISTRY,76.62,mg/dL,70.0,100.0,76.62,76.62,mg/dL,70.0,100.0,NORMAL,,WEEK 16,8,2025-02-28,112
STUDY001,LB,STUDY001-SUBJ0005,76,L00076,BUN,Blood Urea Nitrogen,CHEMISTRY,12.81,mg/dL,7.0,20.0,12.81,12.81,mg/dL,7.0,20.0,NORMAL,,WEEK 16,8,2025-02-28,112
STUDY001,LB,STUDY001-SUBJ0005,77,L00077,CREAT,Creatinine,CHEMISTRY,0.94,mg/dL,0.6,1.2,0.94,0.94,mg/dL,0.6,1.2,NORMAL,,WEEK 16,8,2025-02-28,112
STUDY001,LB,STUDY001-SUBJ0005,78,L00078,BILI,Total Bilirubin,CHEMISTRY,0.8,mg/dL,0.1,1.2,0.8,0.8,mg/dL,0.1,1.2,NORMAL,,WEEK 16,8,2025-02-28,112
STUDY001,LB,STUDY001-SUBJ0005,79,L00079,ALP,Alkaline Phosphatase,CHEMISTRY,37.12,U/L,44.0,147.0,37.12,37.12,U/L,44.0,147.0,LOW,,WEEK 16,8,2025-02-28,112
STUDY001,LB,STUDY001-SUBJ0005,80,L00080,ALT,Alanine Aminotransferase,CHEMISTRY,41.05,U/L,7.0,56.0,41.05,41.05,U/L,7.0,56.0,NORMAL,,WEEK 16,8,2025-02-28,112
STUDY001,LB,STUDY001-SUBJ0005,81,L00081,HGB,Hemoglobin,HEMATOLOGY,13.86,g/dL,13.5,17.5,13.86,13.86,g/dL,13.5,17.5,NORMAL,,END OF TREATMENT,9,2025-03-28,140
STUDY001,LB,STUDY001-SUBJ0005,82,L00082,HCT,Hematocrit,HEMATOLOGY,50.73,%,41.0,51.0,50.73,50.73,%,41.0,51.0,NORMAL,,END OF TREATMENT,9,2025-03-28,140
STUDY001,LB,STUDY001-SUBJ0005,83,L00083,WBC,White Blood Cell Count,HEMATOLOGY,8.04,10^9/L,4.5,11.0,8.04,8.04,10^9/L,4.5,11.0,NORMAL,,END OF TREATMENT,9,2025-03-28,140
STUDY001,LB,STUDY001-SUBJ0005,84,L00084,PLT,Platelet Count,HEMATOLOGY,232.87,10^9/L,150.0,450.0,232.87,232.87,10^9/L,150.0,450.0,NORMAL,,END OF TREATMENT,9,2025-03-28,140
STUDY001,LB,STUDY001-SUBJ0005,85,L00085,GLUC,Glucose,CHEMISTRY,74.48,mg/dL,70.0,100.0,74.48,74.48,mg/dL,70.0,100.0,NORMAL,,END OF TREATMENT,9,2025-03-28,140
STUDY001,LB,STUDY001-SUBJ0005,86,L00086,BUN,Blood Urea Nitrogen,CHEMISTRY,12.84,mg/dL,7.0,20.0,12.84,12.84,mg/dL,7.0,20.0,NORMAL,,END OF TREATMENT,9,2025-03-28,140
STUDY001,LB,STUDY001-SUBJ0005,87,L00087,CREAT,Creatinine,CHEMISTRY,0.93,mg/dL,0.6,1.2,0.93,0.93,mg/dL,0.6,1.2,NORMAL,,END OF TREATMENT,9,2025-03-28,140
STUDY001,LB,STUDY001-SUBJ0005,88,L00088,BILI,Total Bilirubin,CHEMISTRY,0.8,mg/dL,0.1,1.2,0.8,0.8,mg/dL,0.1,1.2,NORMAL,,END OF TREATMENT,9,2025-03-28,140
STUDY001,LB,STUDY001-SUBJ0005,89,L00089,ALP,Alkaline Phosphatase,CHEMISTRY,40.91,U/L,44.0,147.0,40.91,40.91,U/L,44.0,147.0,LOW,,END OF TREATMENT,9,2025-03-28,140
STUDY001,LB,STUDY001-SUBJ0005,90,L00090,ALT,Alanine Aminotransferase,CHEMISTRY,41.4,U/L,7.0,56.0,41.4,41.4,U/L,7.0,56.0,NORMAL,,END OF TREATMENT,9,2025-03-28,140
STUDY001,LB,STUDY001-SUBJ0006,1,L00001,HGB,Hemoglobin,HEMATOLOGY,14.27,g/dL,13.5,17.5,14.27,14.27,g/dL,13.5,17.5,NORMAL,,SCREENING,1,2025-04-30,-14
STUDY001,LB,STUDY001-SUBJ0006,2,L00002,HCT,Hematocrit,HEMATOLOGY,43.72,%,41.0,51.0,43.72,43.72,%,41.0,51.0,NORMAL,,SCREENING,1,2025-04-30,-14
STUDY001,LB,STUDY001-SUBJ0006,3,L00003,WBC,White Blood Cell Count,HEMATOLOGY,8.26,10^9/L,4.5,11.0,8.26,8.26,10^9/L,4.5,11.0,NORMAL,,SCREENING,1,2025-04-30,-14
STUDY001,LB,STUDY001-SUBJ0006,4,L00004,PLT,Platelet Count,HEMATOLOGY,227.03,10^9/L,150.0,450.0,227.03,227.03,10^9/L,150.0,450.0,NORMAL,,SCREENING,1,2025-04-30,-14
STUDY001,LB,STUDY001-SUBJ0006,5,L00005,GLUC,Glucose,CHEMISTRY,72.1,mg/dL,70.0,100.0,72.1,72.1,mg/dL,70.0,100.0,NORMAL,,SCREENING,1,2025-04-30,-14
STUDY001,LB,STUDY001-SUBJ0006,6,L00006,BUN,Blood Urea Nitrogen,CHEMISTRY,17.3,mg/dL,7.0,20.0,17.3,17.3,mg/dL,7.0,20.0,NORMAL,,SCREENING,1,2025-04-30,-14
STUDY001,LB,STUDY001-SUBJ0006,7,L00007,CREAT,Creatinine,CHEMISTRY,0.82,mg/dL,0.6,1.2,0.82,0.82,mg/dL,0.6,1.2,NORMAL,,SCREENING,1,2025-04-30,-14
STUDY001,LB,STUDY001-SUBJ0006,8,L00008,BILI,Total Bilirubin,CHEMISTRY,0.66,mg/dL,0.1,1.2,0.66,0.66,mg/dL,0.1,1.2,NORMAL,,SCREENING,1,2025-04-30,-14
STUDY001,LB,STUDY001-SUBJ0006,9,L00009,ALP,Alkaline Phosphatase,CHEMISTRY,89.06,U/L,44.0,147.0,89.06,89.06,U/L,44.0,147.0,NORMAL,,SCREENING,1,2025-04-30,-14
STUDY001,LB,STUDY001-SUBJ0006,10,L00010,ALT,Alanine Aminotransferase,CHEMISTRY,35.69,U/L,7.0,56.0,35.69,35.69,U/L,7.0,56.0,NORMAL,,SCREENING,1,2025-04-30,-14
STUDY001,LB,STUDY001-SUBJ0006,11,L00011,HGB,Hemoglobin,HEMATOLOGY,14.18,g/dL,13.5,17.5,14.18,14.18,g/dL,13.5,17.5,NORMAL,Y,BASELINE,2,2025-05-14,1
STUDY001,LB,STUDY001-SUBJ0006,12,L00012,HCT,Hematocrit,HEMATOLOGY,43.54,%,41.0,51.0,43.54,43.54,%,41.0,51.0,NORMAL,Y,BASELINE,2,2025-05-14,1
STUDY001,LB,STUDY001-SUBJ0006,13,L00013,WBC,White Blood Cell Count,HEMATOLOGY,7.8,10^9/L,4.5,11.0,7.8,7.8,10^9/L,4.5,11.0,NORMAL,Y,BASELINE,2,2025-05-14,1
STUDY001,LB,STUDY001-SUBJ0006,14,L00014,PLT,Platelet Count,HEMATOLOGY,213.19,10^9/L,150.0,450.0,213.19,213.19,10^9/L,150.0,450.0,NORMAL,Y,BASELINE,2,2025-05-14,1
STUDY001,LB,STUDY001-SUBJ0006,15,L00015,GLUC,Glucose,CHEMISTRY,71.17,mg/dL,70.0,100.0,71.17,71.17,mg/dL,70.0,100.0,NORMAL,Y,BASELINE,2,2025-05-14,1
STUDY001,LB,STUDY001-SUBJ0006,16,L00016,BUN,Blood Urea Nitrogen,CHEMISTRY,17.02,mg/dL,7.0,20.0,17.02,17.02,mg/dL,7.0,20.0,NORMAL,Y,BASELINE,2,2025-05-14,1
STUDY001,LB,STUDY001-SUBJ0006,17,L00017,CREAT,Creatinine,CHEMISTRY,0.83,mg/dL,0.6,1.2,0.83,0.83,mg/dL,0.6,1.2,NORMAL,Y,BASELINE,2,2025-05-14,1
STUDY001,LB,STUDY001-SUBJ0006,18,L00018,BILI,Total Bilirubin,CHEMISTRY,0.63,mg/dL,0.1,1.2,0.63,0.63,mg/dL,0.1,1.2,NORMAL,Y,BASELINE,2,2025-05-14,1
STUDY001,LB,STUDY001-SUBJ0006,19,L00019,ALP,Alkaline Phosphatase,CHEMISTRY,87.95,U/L,44.0,147.0,87.95,87.95,U/L,44.0,147.0,NORMAL,Y,BASELINE,2,2025-05-14,1
STUDY001,LB,STUDY001-SUBJ0006,20,L00020,ALT,Alanine Aminotransferase,CHEMISTRY,37.56,U/L,7.0,56.0,37.56,37.56,U/L,7.0,56.0,NORMAL,Y,BASELINE,2,2025-05-14,1
STUDY001,LB,STUDY001-SUBJ0006,21,L00021,HGB,Hemoglobin,HEMATOLOGY,14.3,g/dL,13.5,17.5,14.3,14.3,g/dL,13.5,17.5,NORMAL,,WEEK 1,3,2025-05-20,7
STUDY001,LB,STUDY001-SUBJ0006,22,L00022,HCT,Hematocrit,HEMATOLOGY,43.75,%,41.0,51.0,43.75,43.75,%,41.0,51.0,NORMAL,,WEEK 1,3,2025-05-20,7
STUDY001,LB,STUDY001-SUBJ0006,23,L00023,WBC,White Blood Cell Count,HEMATOLOGY,8.17,10^9/L,4.5,11.0,8.17,8.17,10^9/L,4.5,11.0,NORMAL,,WEEK 1,3,2025-05-20,7
STUDY001,LB,STUDY001-SUBJ0006,24,L00024,PLT,Platelet Count,HEMATOLOGY,225.13,10^9/L,150.0,450.0,225.13,225.13,10^9/L,150.0,450.0,NORMAL,,WEEK 1,3,2025-05-20,7
STUDY001,LB,STUDY001-SUBJ0006,25,L00025,GLUC,Glucose,CHEMISTRY,72.85,mg/dL,70.0,100.0,72.85,72.85,mg/dL,70.0,100.0,NORMAL,,WEEK 1,3,2025-05-20,7
STUDY001,LB,STUDY001-SUBJ0006,26,L00026,BUN,Blood Urea Nitrogen,CHEMISTRY,17.13,mg/dL,7.0,20.0,17.13,17.13,mg/dL,7.0,20.0,NORMAL,,WEEK 1,3,2025-05-20,7
STUDY001,LB,STUDY001-SUBJ0006,27,L00027,CREAT,Creatinine,CHEMISTRY,0.84,mg/dL,0.6,1.2,0.84,0.84,mg/dL,0.6,1.2,NORMAL,,WEEK 1,3,2025-05-20,7
STUDY001,LB,STUDY001-SUBJ0006,28,L00028,BILI,Total Bilirubin,CHEMISTRY,0.63,mg/dL,0.1,1.2,0.63,0.63,mg/dL,0.1,1.2,NORMAL,,WEEK 1,3,2025-05-20,7
STUDY001,LB,STUDY001-SUBJ0006,29,L00029,ALP,Alkaline Phosphatase,CHEMISTRY,88.06,U/L,44.0,147.0,88.06,88.06,U/L,44.0,147.0,NORMAL,,WEEK 1,3,2025-05-20,7
STUDY001,LB,STUDY001-SUBJ0006,30,L00030,ALT,Alanine Aminotransferase,CHEMISTRY,36.88,U/L,7.0,56.0,36.88,36.88,U/L,7.0,56.0,NORMAL,,WEEK 1,3,2025-05-20,7
STUDY001,LB,STUDY001-SUBJ0006,31,L00031,HGB,Hemoglobin,HEMATOLOGY,14.36,g/dL,13.5,17.5,14.36,14.36,g/dL,13.5,17.5,NORMAL,,WEEK 2,4,2025-05-27,14
STUDY001,LB,STUDY001-SUBJ0006,32,L00032,HCT,Hematocrit,HEMATOLOGY,43.36,%,41.0,51.0,43.36,43.36,%,41.0,51.0,NORMAL,,WEEK 2,4,2025-05-27,14
STUDY001,LB,STUDY001-SUBJ0006,33,L00033,WBC,White Blood Cell Count,HEMATOLOGY,8.08,10^9/L,4.5,11.0,8.08,8.08,10^9/L,4.5,11.0,NORMAL,,WEEK 2,4,2025-05-27,14
STUDY001,LB,STUDY001-SUBJ0006,34,L00034,PLT,Platelet Count,HEMATOLOGY,224.84,10^9/L,150.0,450.0,224.84,224.84,10^9/L,150.0,450.0,NORMAL,,WEEK 2,4,2025-05-27,14
STUDY001,LB,STUDY001-SUBJ0006,35,L00035,GLUC,Glucose,CHEMISTRY,71.37,mg/dL,70.0,100.0,71.37,71.37,mg/dL,70.0,100.0,NORMAL,,WEEK 2,4,2025-05-27,14
STUDY001,LB,STUDY001-SUBJ0006,36,L00036,BUN,Blood Urea Nitrogen,CHEMISTRY,17.76,mg/dL,7.0,20.0,17.76,17.76,mg/dL,7.0,20.0,NORMAL,,WEEK 2,4,2025-05-27,14
STUDY001,LB,STUDY001-SUBJ0006,37,L00037,CREAT,Creatinine,CHEMISTRY,0.83,mg/dL,0.6,1.2,0.83,0.83,mg/dL,0.6,1.2,NORMAL,,WEEK 2,4,2025-05-27,14
STUDY001,LB,STUDY001-SUBJ0006,38,L00038,BILI,Total Bilirubin,CHEMISTRY,0.59,mg/dL,0.1,1.2,0.59,0.59,mg/dL,0.1,1.2,NORMAL,,WEEK 2,4,2025-05-27,14
STUDY001,LB,STUDY001-SUBJ0006,39,L00039,ALP,Alkaline Phosphatase,CHEMISTRY,91.55,U/L,44.0,147.0,91.55,91.55,U/L,44.0,147.0,NORMAL,,WEEK 2,4,2025-05-27,14
STUDY001,LB,STUDY001-SUBJ0006,40,L00040,ALT,Alanine Aminotransferase,CHEMISTRY,35.93,U/L,7.0,56.0,35.93,35.93,U/L,7.0,56.0,NORMAL,,WEEK 2,4,2025-05-27,14
STUDY001,LB,STUDY001-SUBJ0006,41,L00041,HGB,Hemoglobin,HEMATOLOGY,14.37,g/dL,13.5,17.5,14.37,14.37,g/dL,13.5,17.5,NORMAL,,WEEK 4,5,2025-06-10,28
STUDY001,LB,STUDY001-SUBJ0006,42,L00042,HCT,Hematocrit,HEMATOLOGY,43.96,%,41.0,51.0,43.96,43.96,%,41.0,51.0,NORMAL,,WEEK 4,5,2025-06-10,28
STUDY001,LB,STUDY001-SUBJ0006,43,L00043,WBC,White Blood Cell Count,HEMATOLOGY,8.3,10^9/L,4.5,11.0,8.3,8.3,10^9/L,4.5,11.0,NORMAL,,WEEK 4,5,2025-06-10,28
STUDY001,LB,STUDY001-SUBJ0006,44,L00044,PLT,Platelet Count,HEMATOLOGY,219.99,10^9/L,150.0,450.0,219.99,219.99,10^9/L,150.0,450.0,NORMAL,,WEEK 4,5,2025-06-10,28
STUDY001,LB,STUDY001-SUBJ0006,45,L00045,GLUC,Glucose,CHEMISTRY,69.66,mg/dL,70.0,100.0,69.66,69.66,mg/dL,70.0,100.0,LOW,,WEEK 4,5,2025-06-10,28
STUDY001,LB,STUDY001-SUBJ0006,46,L00046,BUN,Blood Urea Nitrogen,CHEMISTRY,16.89,mg/dL,7.0,20.0,16.89,16.89,mg/dL,7.0,20.0,NORMAL,,WEEK 4,5,2025-06-10,28
STUDY001,LB,STUDY001-SUBJ0006,47,L00047,CREAT,Creatinine,CHEMISTRY,0.85,mg/dL,0.6,1.2,0.85,0.85,mg/dL,0.6,1.2,NORMAL,,WEEK 4,5,2025-06-10,28
STUDY001,LB,STUDY001-SUBJ0006,48,L00048,BILI,Total Bilirubin,CHEMISTRY,0.61,mg/dL,0.1,1.2,0.61,0.61,mg/dL,0.1,1.2,NORMAL,,WEEK 4,5,2025-06-10,28
STUDY001,LB,STUDY001-SUBJ0006,49,L00049,ALP,Alkaline Phosphatase,CHEMISTRY,87.47,U/L,44.0,147.0,87.47,87.47,U/L,44.0,147.0,NORMAL,,WEEK 4,5,2025-06-10,28
STUDY001,LB,STUDY001-SUBJ0006,50,L00050,ALT,Alanine Aminotransferase,CHEMISTRY,37.24,U/L,7.0,56.0,37.24,37.24,U/L,7.0,56.0,NORMAL,,WEEK 4,5,2025-06-10,28
STUDY001,LB,STUDY001-SUBJ0006,51,L00051,HGB,Hemoglobin,HEMATOLOGY,14.15,g/dL,13.5,17.5,14.15,14.15,g/dL,13.5,17.5,NORMAL,,WEEK 8,6,2025-07-08,56
STUDY001,LB,STUDY001-SUBJ0006,52,L00052,HCT,Hematocrit,HEMATOLOGY,43.97,%,41.0,51.0,43.97,43.97,%,41.0,51.0,NORMAL,,WEEK 8,6,2025-07-08,56
STUDY001,LB,STUDY001-SUBJ0006,53,L00053,WBC,White Blood Cell Count,HEMATOLOGY,8.09,10^9/L,4.5,11.0,8.09,8.09,10^9/L,4.5,11.0,NORMAL,,WEEK 8,6,2025-07-08,56
STUDY001,LB,STUDY001-SUBJ0006,54,L00054,PLT,Platelet Count,HEMATOLOGY,214.68,10^9/L,150.0,450.0,214.68,214.68,10^9/L,150.0,450.0,NORMAL,,WEEK 8,6,2025-07-08,56
STUDY001,LB,STUDY001-SUBJ0006,55,L00055,GLUC,Glucose,CHEMISTRY,69.82,mg/dL,70.0,100.0,69.82,69.82,mg/dL,70.0,100.0,LOW,,WEEK 8,6,2025-07-08,56
STUDY001,LB,STUDY001-SUBJ0006,56,L00056,BUN,Blood Urea Nitrogen,CHEMISTRY,16.97,mg/dL,7.0,20.0,16.97,16.97,mg/dL,7.0,20.0,NORMAL,,WEEK 8,6,2025-07-08,56
STUDY001,LB,STUDY001-SUBJ0006,57,L00057,CREAT,Creatinine,CHEMISTRY,0.85,mg/dL,0.6,1.2,0.85,0.85,mg/dL,0.6,1.2,NORMAL,,WEEK 8,6,2025-07-08,56
STUDY001,LB,STUDY001-SUBJ0006,58,L00058,BILI,Total Bilirubin,CHEMISTRY,0.65,mg/dL,0.1,1.2,0.65,0.65,mg/dL,0.1,1.2,NORMAL,,WEEK 8,6,2025-07-08,56
STUDY001,LB,STUDY001-SUBJ0006,59,L00059,ALP,Alkaline Phosphatase,CHEMISTRY,87.83,U/L,44.0,147.0,87.83,87.83,U/L,44.0,147.0,NORMAL,,WEEK 8,6,2025-07-08,56
STUDY001,LB,STUDY001-SUBJ0006,60,L00060,ALT,Alanine Aminotransferase,CHEMISTRY,34.92,U/L,7.0,56.0,34.92,34.92,U/L,7.0,56.0,NORMAL,,WEEK 8,6,2025-07-08,56
STUDY001,LB,STUDY001-SUBJ0006,61,L00061,HGB,Hemoglobin,HEMATOLOGY,14.4,g/dL,13.5,17.5,14.4,14.4,g/dL,13.5,17.5,NORMAL,,WEEK 12,7,2025-08-05,84
STUDY001,LB,STUDY001-SUBJ0006,62,L00062,HCT,Hematocrit,HEMATOLOGY,43.7,%,41.0,51.0,43.7,43.7,%,41.0,51.0,NORMAL,,WEEK 12,7,2025-08-05,84
STUDY001,LB,STUDY001-SUBJ0006,63,L00063,WBC,White Blood Cell Count,HEMATOLOGY,8.14,10^9/L,4.5,11.0,8.14,8.14,10^9/L,4.5,11.0,NORMAL,,WEEK 12,7,2025-08-05,84
STUDY001,LB,STUDY001-SUBJ0006,64,L00064,PLT,Platelet Count,HEMATOLOGY,214.81,10^9/L,150.0,450.0,214.81,214.81,10^9/L,150.0,450.0,NORMAL,,WEEK 12,7,2025-08-05,84
STUDY001,LB,STUDY001-SUBJ0006,65,L00065,GLUC,Glucose,CHEMISTRY,72.44,mg/dL,70.0,100.0,72.44,72.44,mg/dL,70.0,100.0,NORMAL,,WEEK 12,7,2025-08-05,84
STUDY001,LB,STUDY001-SUBJ0006,66,L00066,BUN,Blood Urea Nitrogen,CHEMISTRY,17.4,mg/dL,7.0,20.0,17.4,17.4,mg/dL,7.0,20.0,NORMAL,,WEEK 12,7,2025-08-05,84
STUDY001,LB,STUDY001-SUBJ0006,67,L00067,CREAT,Creatinine,CHEMISTRY,0.85,mg/dL,0.6,1.2,0.85,0.85,mg/dL,0.6,1.2,NORMAL,,WEEK 12,7,2025-08-05,84
STUDY001,LB,STUDY001-SUBJ0006,68,L00068,BILI,Total Bilirubin,CHEMISTRY,0.61,mg/dL,0.1,1.2,0.61,0.61,mg/dL,0.1,1.2,NORMAL,,WEEK 12,7,2025-08-05,84
STUDY001,LB,STUDY001-SUBJ0006,69,L00069,ALP,Alkaline Phosphatase,CHEMISTRY,87.74,U/L,44.0,147.0,87.74,87.74,U/L,44.0,147.0,NORMAL,,WEEK 12,7,2025-08-05,84
STUDY001,LB,STUDY001-SUBJ0006,70,L00070,ALT,Alanine Aminotransferase,CHEMISTRY,35.15,U/L,7.0,56.0,35.15,35.15,U/L,7.0,56.0,NORMAL,,WEEK 12,7,2025-08-05,84
STUDY001,LB,STUDY001-SUBJ0006,71,L00071,HGB,Hemoglobin,HEMATOLOGY,14.17,g/dL,13.5,17.5,14.17,14.17,g/dL,13.5,17.5,NORMAL,,WEEK 16,8,2025-09-02,112
STUDY001,LB,STUDY001-SUBJ0006,72,L00072,HCT,Hematocrit,HEMATOLOGY,43.69,%,41.0,51.0,43.69,43.69,%,41.0,51.0,NORMAL,,WEEK 16,8,2025-09-02,112
STUDY001,LB,STUDY001-SUBJ0006,73,L00073,WBC,White Blood Cell Count,HEMATOLOGY,8.06,10^9/L,4.5,11.0,8.06,8.06,10^9/L,4.5,11.0,NORMAL,,WEEK 16,8,2025-09-02,112
STUDY001,LB,STUDY001-SUBJ0006,74,L00074,PLT,Platelet Count,HEMATOLOGY,222.07,10^9/L,150.0,450.0,222.07,222.07,10^9/L,150.0,450.0,NORMAL,,WEEK 16,8,2025-09-02,112
STUDY001,LB,STUDY001-SUBJ0006,75,L00075,GLUC,Glucose,CHEMISTRY,70.89,mg/dL,70.0,100.0,70.89,70.89,mg/dL,70.0,100.0,NORMAL,,WEEK 16,8,2025-09-02,112
STUDY001,LB,STUDY001-SUBJ0006,76,L00076,BUN,Blood Urea Nitrogen,CHEMISTRY,16.96,mg/dL,7.0,20.0,16.96,16.96,mg/dL,7.0,20.0,NORMAL,,WEEK 16,8,2025-09-02,112
STUDY001,LB,STUDY001-SUBJ0006,77,L00077,CREAT,Creatinine,CHEMISTRY,0.85,mg/dL,0.6,1.2,0.85,0.85,mg/dL,0.6,1.2,NORMAL,,WEEK 16,8,2025-09-02,112
STUDY001,LB,STUDY001-SUBJ0006,78,L00078,BILI,Total Bilirubin,CHEMISTRY,0.64,mg/dL,0.1,1.2,0.64,0.64,mg/dL,0.1,1.2,NORMAL,,WEEK 16,8,2025-09-02,112
STUDY001,LB,STUDY001-SUBJ0006,79,L00079,ALP,Alkaline Phosphatase,CHEMISTRY,89.54,U/L,44.0,147.0,89.54,89.54,U/L,44.0,147.0,NORMAL,,WEEK 16,8,2025-09-02,112
STUDY001,LB,STUDY001-SUBJ0006,80,L00080,ALT,Alanine Aminotransferase,CHEMISTRY,37.9,U/L,7.0,56.0,37.9,37.9,U/L,7.0,56.0,NORMAL,,WEEK 16,8,2025-09-02,112
STUDY001,LB,STUDY001-SUBJ0006,81,L00081,HGB,Hemoglobin,HEMATOLOGY,14.33,g/dL,13.5,17.5,14.33,14.33,g/dL,13.5,17.5,NORMAL,,END OF TREATMENT,9,2025-09-30,140
STUDY001,LB,STUDY001-SUBJ0006,82,L00082,HCT,Hematocrit,HEMATOLOGY,43.81,%,41.0,51.0,43.81,43.81,%,41.0,51.0,NORMAL,,END OF TREATMENT,9,2025-09-30,140
STUDY001,LB,STUDY001-SUBJ0006,83,L00083,WBC,White Blood Cell Count,HEMATOLOGY,8.23,10^9/L,4.5,11.0,8.23,8.23,10^9/L,4.5,11.0,NORMAL,,END OF TREATMENT,9,2025-09-30,140
STUDY001,LB,STUDY001-SUBJ0006,84,L00084,PLT,Platelet Count,HEMATOLOGY,227.91,10^9/L,150.0,450.0,227.91,227.91,10^9/L,150.0,450.0,NORMAL,,END OF TREATMENT,9,2025-09-30,140
STUDY001,LB,STUDY001-SUBJ0006,85,L00085,GLUC,Glucose,CHEMISTRY,70.87,mg/dL,70.0,100.0,70.87,70.87,mg/dL,70.0,100.0,NORMAL,,END OF TREATMENT,9,2025-09-30,140
STUDY001,LB,STUDY001-SUBJ0006,86,L00086,BUN,Blood Urea Nitrogen,CHEMISTRY,16.96,mg/dL,7.0,20.0,16.96,16.96,mg/dL,7.0,20.0,NORMAL,,END OF TREATMENT,9,2025-09-30,140
STUDY001,LB,STUDY001-SUBJ0006,87,L00087,CREAT,Creatinine,CHEMISTRY,0.86,mg/dL,0.6,1.2,0.86,0.86,mg/dL,0.6,1.2,NORMAL,,END OF TREATMENT,9,2025-09-30,140
STUDY001,LB,STUDY001-SUBJ0006,88,L00088,BILI,Total Bilirubin,CHEMISTRY,0.6,mg/dL,0.1,1.2,0.6,0.6,mg/dL,0.1,1.2,NORMAL,,END OF TREATMENT,9,2025-09-30,140
STUDY001,LB,STUDY001-SUBJ0006,89,L00089,ALP,Alkaline Phosphatase,CHEMISTRY,90.25,U/L,44.0,147.0,90.25,90.25,U/L,44.0,147.0,NORMAL,,END OF TREATMENT,9,2025-09-30,140
STUDY001,LB,STUDY001-SUBJ0006,90,L00090,ALT,Alanine Aminotransferase,CHEMISTRY,37.03,U/L,7.0,56.0,37.03,37.03,U/L,7.0,56.0,NORMAL,,END OF TREATMENT,9,2025-09-30,140
STUDY001,LB,STUDY001-SUBJ0007,1,L00001,HGB,Hemoglobin,HEMATOLOGY,14.3,g/dL,13.5,17.5,14.3,14.3,g/dL,13.5,17.5,NORMAL,,SCREENING,1,2024-11-11,-14
STUDY001,LB,STUDY001-SUBJ0007,2,L00002,HCT,Hematocrit,HEMATOLOGY,48.14,%,41.0,51.0,48.14,48.14,%,41.0,51.0,NORMAL,,SCREENING,1,2024-11-11,-14
STUDY001,LB,STUDY001-SUBJ0007,3,L00003,WBC,White Blood Cell Count,HEMATOLOGY,8.59,10^9/L,4.5,11.0,8.59,8.59,10^9/L,4.5,11.0,NORMAL,,SCREENING,1,2024-11-11,-14
STUDY001,LB,STUDY001-SUBJ0007,4,L00004,PLT,Platelet Count,HEMATOLOGY,229.5,10^9/L,150.0,450.0,229.5,229.5,10^9/L,150.0,450.0,NORMAL,,SCREENING,1,2024-11-11,-14
STUDY001,LB,STUDY001-SUBJ0007,5,L00005,GLUC,Glucose,CHEMISTRY,95.16,mg/dL,70.0,100.0,95.16,95.16,mg/dL,70.0,100.0,NORMAL,,SCREENING,1,2024-11-11,-14
STUDY001,LB,STUDY001-SUBJ0007,6,L00006,BUN,Blood Urea Nitrogen,CHEMISTRY,12.23,mg/dL,7.0,20.0,12.23,12.23,mg/dL,7.0,20.0,NORMAL,,SCREENING,1,2024-11-11,-14
STUDY001,LB,STUDY001-SUBJ0007,7,L00007,CREAT,Creatinine,CHEMISTRY,0.9,mg/dL,0.6,1.2,0.9,0.9,mg/dL,0.6,1.2,NORMAL,,SCREENING,1,2024-11-11,-14
STUDY001,LB,STUDY001-SUBJ0007,8,L00008,BILI,Total Bilirubin,CHEMISTRY,0.65,mg/dL,0.1,1.2,0.65,0.65,mg/dL,0.1,1.2,NORMAL,,SCREENING,1,2024-11-11,-14
STUDY001,LB,STUDY001-SUBJ0007,9,L00009,ALP,Alkaline Phosphatase,CHEMISTRY,106.43,U/L,44.0,147.0,106.43,106.43,U/L,44.0,147.0,NORMAL,,SCREENING,1,2024-11-11,-14
STUDY001,LB,STUDY001-SUBJ0007,10,L00010,ALT,Alanine Aminotransferase,CHEMISTRY,23.33,U/L,7.0,56.0,23.33,23.33,U/L,7.0,56.0,NORMAL,,SCREENING,1,2024-11-11,-14
STUDY001,LB,STUDY001-SUBJ0007,11,L00011,HGB,Hemoglobin,HEMATOLOGY,14.31,g/dL,13.5,17.5,14.31,14.31,g/dL,13.5,17.5,NORMAL,Y,BASELINE,2,2024-11-25,1
STUDY001,LB,STUDY001-SUBJ0007,12,L00012,HCT,Hematocrit,HEMATOLOGY,48.25,%,41.0,51.0,48.25,48.25,%,41.0,51.0,NORMAL,Y,BASELINE,2,2024-11-25,1
STUDY001,LB,STUDY001-SUBJ0007,13,L00013,WBC,White Blood Cell Count,HEMATOLOGY,8.86,10^9/L,4.5,11.0,8.86,8.86,10^9/L,4.5,11.0,NORMAL,Y,BASELINE,2,2024-11-25,1
STUDY001,LB,STUDY001-SUBJ0007,14,L00014,PLT,Platelet Count,HEMATOLOGY,239.63,10^9/L,150.0,450.0,239.63,239.63,10^9/L,150.0,450.0,NORMAL,Y,BASELINE,2,2024-11-25,1
STUDY001,LB,STUDY001-SUBJ0007,15,L00015,GLUC,Glucose,CHEMISTRY,98.0,mg/dL,70.0,100.0,98.0,98.0,mg/dL,70.0,100.0,NORMAL,Y,BASELINE,2,2024-11-25,1
STUDY001,LB,STUDY001-SUBJ0007,16,L00016,BUN,Blood Urea Nitrogen,CHEMISTRY,12.27,mg/dL,7.0,20.0,12.27,12.27,mg/dL,7.0,20.0,NORMAL,Y,BASELINE,2,2024-11-25,1
STUDY001,LB,STUDY001-SUBJ0007,17,L00017,CREAT,Creatinine,CHEMISTRY,0.88,mg/dL,0.6,1.2,0.88,0.88,mg/dL,0.6,1.2,NORMAL,Y,BASELINE,2,2024-11-25,1
STUDY001,LB,STUDY001-SUBJ0007,18,L00018,BILI,Total Bilirubin,CHEMISTRY,0.64,mg/dL,0.1,1.2,0.64,0.64,mg/dL,0.1,1.2,NORMAL,Y,BASELINE,2,2024-11-25,1
STUDY001,LB,STUDY001-SUBJ0007,19,L00019,ALP,Alkaline Phosphatase,CHEMISTRY,102.19,U/L,44.0,147.0,102.19,102.19,U/L,44.0,147.0,NORMAL,Y,BASELINE,2,2024-11-25,1
STUDY001,LB,STUDY001-SUBJ0007,20,L00020,ALT,Alanine Aminotransferase,CHEMISTRY,22.44,U/L,7.0,56.0,22.44,22.44,U/L,7.0,56.0,NORMAL,Y,BASELINE,2,2024-11-25,1
STUDY001,LB,STUDY001-SUBJ0007,21,L00021,HGB,Hemoglobin,HEMATOLOGY,14.36,g/dL,13.5,17.5,14.36,14.36,g/dL,13.5,17.5,NORMAL,,WEEK 1,3,2024-12-01,7
STUDY001,LB,STUDY001-SUBJ0007,22,L00022,HCT,Hematocrit,HEMATOLOGY,48.41,%,41.0,51.0,48.41,48.41,%,41.0,51.0,NORMAL,,WEEK 1,3,2024-12-01,7
STUDY001,LB,STUDY001-SUBJ0007,23,L00023,WBC,White Blood Cell Count,HEMATOLOGY,8.49,10^9/L,4.5,11.0,8.49,8.49,10^9/L,4.5,11.0,NORMAL,,WEEK 1,3,2024-12-01,7
STUDY001,LB,STUDY001-SUBJ0007,24,L00024,PLT,Platelet Count,HEMATOLOGY,236.68,10^9/L,150.0,450.0,236.68,236.68,10^9/L,150.0,450.0,NORMAL,,WEEK 1,3,2024-12-01,7
STUDY001,LB,STUDY001-SUBJ0007,25,L00025,GLUC,Glucose,CHEMISTRY,97.11,mg/dL,70.0,100.0,97.11,97.11,mg/dL,70.0,100.0,NORMAL,,WEEK 1,3,2024-12-01,7
STUDY001,LB,STUDY001-SUBJ0007,26,L00026,BUN,Blood Urea Nitrogen,CHEMISTRY,11.73,mg/dL,7.0,20.0,11.73,11.73,mg/dL,7.0,20.0,NORMAL,,WEEK 1,3,2024-12-01,7
STUDY001,LB,STUDY001-SUBJ0007,27,L00027,CREAT,Creatinine,CHEMISTRY,0.89,mg/dL,0.6,1.2,0.89,0.89,mg/dL,0.6,1.2,NORMAL,,WEEK 1,3,2024-12-01,7
STUDY001,LB,STUDY001-SUBJ0007,28,L00028,BILI,Total Bilirubin,CHEMISTRY,0.64,mg/dL,0.1,1.2,0.64,0.64,mg/dL,0.1,1.2,NORMAL,,WEEK 1,3,2024-12-01,7
STUDY001,LB,STUDY001-SUBJ0007,29,L00029,ALP,Alkaline Phosphatase,CHEMISTRY,102.77,U/L,44.0,147.0,102.77,102.77,U/L,44.0,147.0,NORMAL,,WEEK 1,3,2024-12-01,7
STUDY001,LB,STUDY001-SUBJ0007,30,L00030,ALT,Alanine Aminotransferase,CHEMISTRY,23.19,U/L,7.0,56.0,23.19,23.19,U/L,7.0,56.0,NORMAL,,WEEK 1,3,2024-12-01,7
STUDY001,LB,STUDY001-SUBJ0007,31,L00031,HGB,Hemoglobin,HEMATOLOGY,14.14,g/dL,13.5,17.5,14.14,14.14,g/dL,13.5,17.5,NORMAL,,WEEK 2,4,2024-12-08,14
STUDY001,LB,STUDY001-SUBJ0007,32,L00032,HCT,Hematocrit,HEMATOLOGY,48.43,%,41.0,51.0,48.43,48.43,%,41.0,51.0,NORMAL,,WEEK 2,4,2024-12-08,14
STUDY001,LB,STUDY001-SUBJ0007,33,L00033,WBC,White Blood Cell Count,HEMATOLOGY,8.83,10^9/L,4.5,11.0,8.83,8.83,10^9/L,4.5,11.0,NORMAL,,WEEK 2,4,2024-12-08,14
STUDY001,LB,STUDY001-SUBJ0007,34,L00034,PLT,Platelet Count,HEMATOLOGY,231.7,10^9/L,150.0,450.0,231.7,231.7,10^9/L,150.0,450.0,NORMAL,,WEEK 2,4,2024-12-08,14
STUDY001,LB,STUDY001-SUBJ0007,35,L00035,GLUC,Glucose,CHEMISTRY,99.41,mg/dL,70.0,100.0,99.41,99.41,mg/dL,70.0,100.0,NORMAL,,WEEK 2,4,2024-12-08,14
STUDY001,LB,STUDY001-SUBJ0007,36,L00036,BUN,Blood Urea Nitrogen,CHEMISTRY,12.09,mg/dL,7.0,20.0,12.09,12.09,mg/dL,7.0,20.0,NORMAL,,WEEK 2,4,2024-12-08,14
STUDY001,LB,STUDY001-SUBJ0007,37,L00037,CREAT,Creatinine,CHEMISTRY,0.91,mg/dL,0.6,1.2,0.91,0.91,mg/dL,0.6,1.2,NORMAL,,WEEK 2,4,2024-12-08,14
STUDY001,LB,STUDY001-SUBJ0007,38,L00038,BILI,Total Bilirubin,CHEMISTRY,0.69,mg/dL,0.1,1.2,0.69,0.69,mg/dL,0.1,1.2,NORMAL,,WEEK 2,4,2024-12-08,14
STUDY001,LB,STUDY001-SUBJ0007,39,L00039,ALP,Alkaline Phosphatase,CHEMISTRY,106.72,U/L,44.0,147.0,106.72,106.72,U/L,44.0,147.0,NORMAL,,WEEK 2,4,2024-12-08,14
STUDY001,LB,STUDY001-SUBJ0007,40,L00040,ALT,Alanine Aminotransferase,CHEMISTRY,22.85,U/L,7.0,56.0,22.85,22.85,U/L,7.0,56.0,NORMAL,,WEEK 2,4,2024-12-08,14
STUDY001,LB,STUDY001-SUBJ0007,41,L00041,HGB,Hemoglobin,HEMATOLOGY,14.07,g/dL,13.5,17.5,14.07,14.07,g/dL,13.5,17.5,NORMAL,,WEEK 4,5,2024-12-22,28
STUDY001,LB,STUDY001-SUBJ0007,42,L00042,HCT,Hematocrit,HEMATOLOGY,47.83,%,41.0,51.0,47.83,47.83,%,41.0,51.0,NORMAL,,WEEK 4,5,2024-12-22,28
STUDY001,LB,STUDY001-SUBJ0007,43,L00043,WBC,White Blood Cell Count,HEMATOLOGY,8.74,10^9/L,4.5,11.0,8.74,8.74,10^9/L,4.5,11.0,NORMAL,,WEEK 4,5,2024-12-22,28
STUDY001,LB,STUDY001-SUBJ0007,44,L00044,PLT,Platelet Count,HEMATOLOGY,233.47,10^9/L,150.0,450.0,233.47,233.47,10^9/L,150.0,450.0,NORMAL,,WEEK 4,5,2024-12-22,28
STUDY001,LB,STUDY001-SUBJ0007,45,L00045,GLUC,Glucose,CHEMISTRY,95.63,mg/dL,70.0,100.0,95.63,95.63,mg/dL,70.0,100.0,NORMAL,,WEEK 4,5,2024-12-22,28
STUDY001,LB,STUDY001-SUBJ0007,46,L00046,BUN,Blood Urea Nitrogen,CHEMISTRY,12.01,mg/dL,7.0,20.0,12.01,12.01,mg/dL,7.0,20.0,NORMAL,,WEEK 4,5,2024-12-22,28
STUDY001,LB,STUDY001-SUBJ0007,47,L00047,CREAT,Creatinine,CHEMISTRY,0.9,mg/dL,0.6,1.2,0.9,0.9,mg/dL,0.6,1.2,NORMAL,,WEEK 4,5,2024-12-22,28
STUDY001,LB,STUDY001-SUBJ0007,48,L00048,BILI,Total Bilirubin,CHEMISTRY,0.67,mg/dL,0.1,1.2,0.67,0.67,mg/dL,0.1,1.2,NORMAL,,WEEK 4,5,2024-12-22,28
STUDY001,LB,STUDY001-SUBJ0007,49,L00049,ALP,Alkaline Phosphatase,CHEMISTRY,105.4,U/L,44.0,147.0,105.4,105.4,U/L,44.0,147.0,NORMAL,,WEEK 4,5,2024-12-22,28
STUDY001,LB,STUDY001-SUBJ0007,50,L00050,ALT,Alanine Aminotransferase,CHEMISTRY,23.02,U/L,7.0,56.0,23.02,23.02,U/L,7.0,56.0,NORMAL,,WEEK 4,5,2024-12-22,28
STUDY001,LB,STUDY001-SUBJ0007,51,L00051,HGB,Hemoglobin,HEMATOLOGY,14.36,g/dL,13.5,17.5,14.36,14.36,g/dL,13.5,17.5,NORMAL,,WEEK 8,6,2025-01-19,56
STUDY001,LB,STUDY001-SUBJ0007,52,L00052,HCT,Hematocrit,HEMATOLOGY,48.03,%,41.0,51.0,48.03,48.03,%,41.0,51.0,NORMAL,,WEEK 8,6,2025-01-19,56
STUDY001,LB,STUDY001-SUBJ0007,53,L00053,WBC,White Blood Cell Count,HEMATOLOGY,8.88,10^9/L,4.5,11.0,8.88,8.88,10^9/L,4.5,11.0,NORMAL,,WEEK 8,6,2025-01-19,56
STUDY001,LB,STUDY001-SUBJ0007,54,L00054,PLT,Platelet Count,HEMATOLOGY,233.07,10^9/L,150.0,450.0,233.07,233.07,10^9/L,150.0,450.0,NORMAL,,WEEK 8,6,2025-01-19,56
STUDY001,LB,STUDY001-SUBJ0007,55,L00055,GLUC,Glucose,CHEMISTRY,95.91,mg/dL,70.0,100.0,95.91,95.91,mg/dL,70.0,100.0,NORMAL,,WEEK 8,6,2025-01-19,56
STUDY001,LB,STUDY001-SUBJ0007,56,L00056,BUN,Blood Urea Nitrogen,CHEMISTRY,11.98,mg/dL,7.0,20.0,11.98,11.98,mg/dL,7.0,20.0,NORMAL,,WEEK 8,6,2025-01-19,56
STUDY001,LB,STUDY001-SUBJ0007,57,L00057,CREAT,Creatinine,CHEMISTRY,0.87,mg/dL,0.6,1.2,0.87,0.87,mg/dL,0.6,1.2,NORMAL,,WEEK 8,6,2025-01-19,56
STUDY001,LB,STUDY001-SUBJ0007,58,L00058,BILI,Total Bilirubin,CHEMISTRY,0.64,mg/dL,0.1,1.2,0.64,0.64,mg/dL,0.1,1.2,NORMAL,,WEEK 8,6,2025-01-19,56
STUDY001,LB,STUDY001-SUBJ0007,59,L00059,ALP,Alkaline Phosphatase,CHEMISTRY,109.07,U/L,44.0,147.0,109.07,109.07,U/L,44.0,147.0,NORMAL,,WEEK 8,6,2025-01-19,56
STUDY001,LB,STUDY001-SUBJ0007,60,L00060,ALT,Alanine Aminotransferase,CHEMISTRY,24.22,U/L,7.0,56.0,24.22,24.22,U/L,7.0,56.0,NORMAL,,WEEK 8,6,2025-01-19,56
STUDY001,LB,STUDY001-SUBJ0007,61,L00061,HGB,Hemoglobin,HEMATOLOGY,14.32,g/dL,13.5,17.5,14.32,14.32,g/dL,13.5,17.5,NORMAL,,WEEK 12,7,2025-02-16,84
STUDY001,LB,STUDY001-SUBJ0007,62,L00062,HCT,Hematocrit,HEMATOLOGY,47.73,%,41.0,51.0,47.73,47.73,%,41.0,51.0,NORMAL,,WEEK 12,7,2025-02-16,84
STUDY001,LB,STUDY001-SUBJ0007,63,L00063,WBC,White Blood Cell Count,HEMATOLOGY,8.5,10^9/L,4.5,11.0,8.5,8.5,10^9/L,4.5,11.0,NORMAL,,WEEK 12,7,2025-02-16,84
STUDY001,LB,STUDY001-SUBJ0007,64,L00064,PLT,Platelet Count,HEMATOLOGY,216.8,10^9/L,150.0,450.0,216.8,216.8,10^9/L,150.0,450.0,NORMAL,,WEEK 12,7,2025-02-16,84
STUDY001,LB,STUDY001-SUBJ0007,65,L00065,GLUC,Glucose,CHEMISTRY,98.02,mg/dL,70.0,100.0,98.02,98.02,mg/dL,70.0,100.0,NORMAL,,WEEK 12,7,2025-02-16,84
STUDY001,LB,STUDY001-SUBJ0007,66,L00066,BUN,Blood Urea Nitrogen,CHEMISTRY,11.66,mg/dL,7.0,20.0,11.66,11.66,mg/dL,7.0,20.0,NORMAL,,WEEK 12,7,2025-02-16,84
STUDY001,LB,STUDY001-SUBJ0007,67,L00067,CREAT,Creatinine,CHEMISTRY,0.87,mg/dL,0.6,1.2,0.87,0.87,mg/dL,0.6,1.2,NORMAL,,WEEK 12,7,2025-02-16,84
STUDY001,LB,STUDY001-SUBJ0007,68,L00068,BILI,Total Bilirubin,CHEMISTRY,0.63,mg/dL,0.1,1.2,0.63,0.63,mg/dL,0.1,1.2,NORMAL,,WEEK 12,7,2025-02-16,84
STUDY001,LB,STUDY001-SUBJ0007,69,L00069,ALP,Alkaline Phosphatase,CHEMISTRY,108.88,U/L,44.0,147.0,108.88,108.88,U/L,44.0,147.0,NORMAL,,WEEK 12,7,2025-02-16,84
STUDY001,LB,STUDY001-SUBJ0007,70,L00070,ALT,Alanine Aminotransferase,CHEMISTRY,22.64,U/L,7.0,56.0,22.64,22.64,U/L,7.0,56.0,NORMAL,,WEEK 12,7,2025-02-16,84
STUDY001,LB,STUDY001-SUBJ0007,71,L00071,HGB,Hemoglobin,HEMATOLOGY,14.27,g/dL,13.5,17.5,14.27,14.27,g/dL,13.5,17.5,NORMAL,,WEEK 16,8,2025-03-16,112
STUDY001,LB,STUDY001-SUBJ0007,72,L00072,HCT,Hematocrit,HEMATOLOGY,47.95,%,41.0,51.0,47.95,47.95,%,41.0,51.0,NORMAL,,WEEK 16,8,2025-03-16,112
STUDY001,LB,STUDY001-SUBJ0007,73,L00073,WBC,White Blood Cell Count,HEMATOLOGY,8.74,10^9/L,4.5,11.0,8.74,8.74,10^9/L,4.5,11.0,NORMAL,,WEEK 16,8,2025-03-16,112
STUDY001,LB,STUDY001-SUBJ0007,74,L00074,PLT,Platelet Count,HEMATOLOGY,226.39,10^9/L,150.0,450.0,226.39,226.39,10^9/L,150.0,450.0,NORMAL,,WEEK 16,8,2025-03-16,112
STUDY001,LB,STUDY001-SUBJ0007,75,L00075,GLUC,Glucose,CHEMISTRY,97.97,mg/dL,70.0,100.0,97.97,97.97,mg/dL,70.0,100.0,NORMAL,,WEEK 16,8,2025-03-16,112
STUDY001,LB,STUDY001-SUBJ0007,76,L00076,BUN,Blood Urea Nitrogen,CHEMISTRY,11.79,mg/dL,7.0,20.0,11.79,11.79,mg/dL,7.0,20.0,NORMAL,,WEEK 16,8,2025-03-16,112
STUDY001,LB,STUDY001-SUBJ0007,77,L00077,CREAT,Creatinine,CHEMISTRY,0.88,mg/dL,0.6,1.2,0.88,0.88,mg/dL,0.6,1.2,NORMAL,,WEEK 16,8,2025-03-16,112
STUDY001,LB,STUDY001-SUBJ0007,78,L00078,BILI,Total Bilirubin,CHEMISTRY,0.64,mg/dL,0.1,1.2,0.64,0.64,mg/dL,0.1,1.2,NORMAL,,WEEK 16,8,2025-03-16,112
STUDY001,LB,STUDY001-SUBJ0007,79,L00079,ALP,Alkaline Phosphatase,CHEMISTRY,104.86,U/L,44.0,147.0,104.86,104.86,U/L,44.0,147.0,NORMAL,,WEEK 16,8,2025-03-16,112
STUDY001,LB,STUDY001-SUBJ0007,80,L00080,ALT,Alanine Aminotransferase,CHEMISTRY,22.78,U/L,7.0,56.0,22.78,22.78,U/L,7.0,56.0,NORMAL,,WEEK 16,8,2025-03-16,112
STUDY001,LB,STUDY001-SUBJ0007,81,L00081,HGB,Hemoglobin,HEMATOLOGY,14.39,g/dL,13.5,17.5,14.39,14.39,g/dL,13.5,17.5,NORMAL,,END OF TREATMENT,9,2025-04-13,140
STUDY001,LB,STUDY001-SUBJ0007,82,L00082,HCT,Hematocrit,HEMATOLOGY,47.52,%,41.0,51.0,47.52,47.52,%,41.0,51.0,NORMAL,,END OF TREATMENT,9,2025-04-13,140
STUDY001,LB,STUDY001-SUBJ0007,83,L00083,WBC,White Blood Cell Count,HEMATOLOGY,8.93,10^9/L,4.5,11.0,8.93,8.93,10^9/L,4.5,11.0,NORMAL,,END OF TREATMENT,9,2025-04-13,140
STUDY001,LB,STUDY001-SUBJ0007,84,L00084,PLT,Platelet Count,HEMATOLOGY,233.62,10^9/L,150.0,450.0,233.62,233.62,10^9/L,150.0,450.0,NORMAL,,END OF TREATMENT,9,2025-04-13,140
STUDY001,LB,STUDY001-SUBJ0007,85,L00085,GLUC,Glucose,CHEMISTRY,95.29,mg/dL,70.0,100.0,95.29,95.29,mg/dL,70.0,100.0,NORMAL,,END OF TREATMENT,9,2025-04-13,140
STUDY001,LB,STUDY001-SUBJ0007,86,L00086,BUN,Blood Urea Nitrogen,CHEMISTRY,11.82,mg/dL,7.0,20.0,11.82,11.82,mg/dL,7.0,20.0,NORMAL,,END OF TREATMENT,9,2025-04-13,140
STUDY001,LB,STUDY001-SUBJ0007,87,L00087,CREAT,Creatinine,CHEMISTRY,0.9,mg/dL,0.6,1.2,0.9,0.9,mg/dL,0.6,1.2,NORMAL,,END OF TREATMENT,9,2025-04-13,140
STUDY001,LB,STUDY001-SUBJ0007,88,L00088,BILI,Total Bilirubin,CHEMISTRY,0.65,mg/dL,0.1,1.2,0.65,0.65,mg/dL,0.1,1.2,NORMAL,,END OF TREATMENT,9,2025-04-13,140
STUDY001,LB,STUDY001-SUBJ0007,89,L00089,ALP,Alkaline Phosphatase,CHEMISTRY,107.11,U/L,44.0,147.0,107.11,107.11,U/L,44.0,147.0,NORMAL,,END OF TREATMENT,9,2025-04-13,140
STUDY001,LB,STUDY001-SUBJ0007,90,L00090,ALT,Alanine Aminotransferase,CHEMISTRY,22.1,U/L,7.0,56.0,22.1,22.1,U/L,7.0,56.0,NORMAL,,END OF TREATMENT,9,2025-04-13,140
STUDY001,LB,STUDY001-SUBJ0008,1,L00001,HGB,Hemoglobin,HEMATOLOGY,15.55,g/dL,13.5,17.5,15.55,15.55,g/dL,13.5,17.5,NORMAL,,SCREENING,1,2024-10-23,-14
STUDY001,LB,STUDY001-SUBJ0008,2,L00002,HCT,Hematocrit,HEMATOLOGY,47.99,%,41.0,51.0,47.99,47.99,%,41.0,51.0,NORMAL,,SCREENING,1,2024-10-23,-14
STUDY001,LB,STUDY001-SUBJ0008,3,L00003,WBC,White Blood Cell Count,HEMATOLOGY,10.46,10^9/L,4.5,11.0,10.46,10.46,10^9/L,4.5,11.0,NORMAL,,SCREENING,1,2024-10-23,-14
STUDY001,LB,STUDY001-SUBJ0008,4,L00004,PLT,Platelet Count,HEMATOLOGY,341.16,10^9/L,150.0,450.0,341.16,341.16,10^9/L,150.0,450.0,NORMAL,,SCREENING,1,2024-10-23,-14
STUDY001,LB,STUDY001-SUBJ0008,5,L00005,GLUC,Glucose,CHEMISTRY,99.68,mg/dL,70.0,100.0,99.68,99.68,mg/dL,70.0,100.0,NORMAL,,SCREENING,1,2024-10-23,-14
STUDY001,LB,STUDY001-SUBJ0008,6,L00006,BUN,Blood Urea Nitrogen,CHEMISTRY,10.62,mg/dL,7.0,20.0,10.62,10.62,mg/dL,7.0,20.0,NORMAL,,SCREENING,1,2024-10-23,-14
STUDY001,LB,STUDY001-SUBJ0008,7,L00007,CREAT,Creatinine,CHEMISTRY,0.98,mg/dL,0.6,1.2,0.98,0.98,mg/dL,0.6,1.2,NORMAL,,SCREENING,1,2024-10-23,-14
STUDY001,LB,STUDY001-SUBJ0008,8,L00008,BILI,Total Bilirubin,CHEMISTRY,0.74,mg/dL,0.1,1.2,0.74,0.74,mg/dL,0.1,1.2,NORMAL,,SCREENING,1,2024-10-23,-14
STUDY001,LB,STUDY001-SUBJ0008,9,L00009,ALP,Alkaline Phosphatase,CHEMISTRY,130.65,U/L,44.0,147.0,130.65,130.65,U/L,44.0,147.0,NORMAL,,SCREENING,1,2024-10-23,-14
STUDY001,LB,STUDY001-SUBJ0008,10,L00010,ALT,Alanine Aminotransferase,CHEMISTRY,30.84,U/L,7.0,56.0,30.84,30.84,U/L,7.0,56.0,NORMAL,,SCREENING,1,2024-10-23,-14
STUDY001,LB,STUDY001-SUBJ0008,11,L00011,HGB,Hemoglobin,HEMATOLOGY,15.25,g/dL,13.5,17.5,15.25,15.25,g/dL,13.5,17.5,NORMAL,Y,BASELINE,2,2024-11-06,1
STUDY001,LB,STUDY001-SUBJ0008,12,L00012,HCT,Hematocrit,HEMATOLOGY,47.81,%,41.0,51.0,47.81,47.81,%,41.0,51.0,NORMAL,Y,BASELINE,2,2024-11-06,1
STUDY001,LB,STUDY001-SUBJ0008,13,L00013,WBC,White Blood Cell Count,HEMATOLOGY,10.85,10^9/L,4.5,11.0,10.85,10.85,10^9/L,4.5,11.0,NORMAL,Y,BASELINE,2,2024-11-06,1
STUDY001,LB,STUDY001-SUBJ0008,14,L00014,PLT,Platelet Count,HEMATOLOGY,350.33,10^9/L,150.0,450.0,350.33,350.33,10^9/L,150.0,450.0,NORMAL,Y,BASELINE,2,2024-11-06,1
STUDY001,LB,STUDY001-SUBJ0008,15,L00015,GLUC,Glucose,CHEMISTRY,97.64,mg/dL,70.0,100.0,97.64,97.64,mg/dL,70.0,100.0,NORMAL,Y,BASELINE,2,2024-11-06,1
STUDY001,LB,STUDY001-SUBJ0008,16,L00016,BUN,Blood Urea Nitrogen,CHEMISTRY,11.31,mg/dL,7.0,20.0,11.31,11.31,mg/dL,7.0,20.0,NORMAL,Y,BASELINE,2,2024-11-06,1
STUDY001,LB,STUDY001-SUBJ0008,17,L00017,CREAT,Creatinine,CHEMISTRY,1.01,mg/dL,0.6,1.2,1.01,1.01,mg/dL,0.6,1.2,NORMAL,Y,BASELINE,2,2024-11-06,1
STUDY001,LB,STUDY001-SUBJ0008,18,L00018,BILI,Total Bilirubin,CHEMISTRY,0.74,mg/dL,0.1,1.2,0.74,0.74,mg/dL,0.1,1.2,NORMAL,Y,BASELINE,2,2024-11-06,1
STUDY001,LB,STUDY001-SUBJ0008,19,L00019,ALP,Alkaline Phosphatase,CHEMISTRY,129.19,U/L,44.0,147.0,129.19,129.19,U/L,44.0,147.0,NORMAL,Y,BASELINE,2,2024-11-06,1
STUDY001,LB,STUDY001-SUBJ0008,20,L00020,ALT,Alanine Aminotransferase,CHEMISTRY,31.61,U/L,7.0,56.0,31.61,31.61,U/L,7.0,56.0,NORMAL,Y,BASELINE,2,2024-11-06,1
STUDY001,LB,STUDY001-SUBJ0008,21,L00021,HGB,Hemoglobin,HEMATOLOGY,15.38,g/dL,13.5,17.5,15.38,15.38,g/dL,13.5,17.5,NORMAL,,WEEK 1,3,2024-11-12,7
STUDY001,LB,STUDY001-SUBJ0008,22,L00022,HCT,Hematocrit,HEMATOLOGY,47.65,%,41.0,51.0,47.65,47.65,%,41.0,51.0,NORMAL,,WEEK 1,3,2024-11-12,7
STUDY001,LB,STUDY001-SUBJ0008,23,L00023,WBC,White Blood Cell Count,HEMATOLOGY,10.55,10^9/L,4.5,11.0,10.55,10.55,10^9/L,4.5,11.0,NORMAL,,WEEK 1,3,2024-11-12,7
STUDY001,LB,STUDY001-SUBJ0008,24,L00024,PLT,Platelet Count,HEMATOLOGY,343.21,10^9/L,150.0,450.0,343.21,343.21,10^9/L,150.0,450.0,NORMAL,,WEEK 1,3,2024-11-12,7
STUDY001,LB,STUDY001-SUBJ0008,25,L00025,GLUC,Glucose,CHEMISTRY,98.74,mg/dL,70.0,100.0,98.74,98.74,mg/dL,70.0,100.0,NORMAL,,WEEK 1,3,2024-11-12,7
STUDY001,LB,STUDY001-SUBJ0008,26,L00026,BUN,Blood Urea Nitrogen,CHEMISTRY,10.71,mg/dL,7.0,20.0,10.71,10.71,mg/dL,7.0,20.0,NORMAL,,WEEK 1,3,2024-11-12,7
STUDY001,LB,STUDY001-SUBJ0008,27,L00027,CREAT,Creatinine,CHEMISTRY,1.0,mg/dL,0.6,1.2,1.0,1.0,mg/dL,0.6,1.2,NORMAL,,WEEK 1,3,2024-11-12,7
STUDY001,LB,STUDY001-SUBJ0008,28,L00028,BILI,Total Bilirubin,CHEMISTRY,0.76,mg/dL,0.1,1.2,0.76,0.76,mg/dL,0.1,1.2,NORMAL,,WEEK 1,3,2024-11-12,7
STUDY001,LB,STUDY001-SUBJ0008,29,L00029,ALP,Alkaline Phosphatase,CHEMISTRY,131.65,U/L,44.0,147.0,131.65,131.65,U/L,44.0,147.0,NORMAL,,WEEK 1,3,2024-11-12,7
STUDY001,LB,STUDY001-SUBJ0008,30,L00030,ALT,Alanine Aminotransferase,CHEMISTRY,30.67,U/L,7.0,56.0,30.67,30.67,U/L,7.0,56.0,NORMAL,,WEEK 1,3,2024-11-12,7
STUDY001,LB,STUDY001-SUBJ0008,31,L00031,HGB,Hemoglobin,HEMATOLOGY,15.49,g/dL,13.5,17.5,15.49,15.49,g/dL,13.5,17.5,NORMAL,,WEEK 2,4,2024-11-19,14
STUDY001,LB,STUDY001-SUBJ0008,32,L00032,HCT,Hematocrit,HEMATOLOGY,47.71,%,41.0,51.0,47.71,47.71,%,41.0,51.0,NORMAL,,WEEK 2,4,2024-11-19,14
STUDY001,LB,STUDY001-SUBJ0008,33,L00033,WBC,White Blood Cell Count,HEMATOLOGY,10.35,10^9/L,4.5,11.0,10.35,10.35,10^9/L,4.5,11.0,NORMAL,,WEEK 2,4,2024-11-19,14
STUDY001,LB,STUDY001-SUBJ0008,34,L00034,PLT,Platelet Count,HEMATOLOGY,349.52,10^9/L,150.0,450.0,349.52,349.52,10^9/L,150.0,450.0,NORMAL,,WEEK 2,4,2024-11-19,14
STUDY001,LB,STUDY001-SUBJ0008,35,L00035,GLUC,Glucose,CHEMISTRY,98.18,mg/dL,70.0,100.0,98.18,98.18,mg/dL,70.0,100.0,NORMAL,,WEEK 2,4,2024-11-19,14
STUDY001,LB,STUDY001-SUBJ0008,36,L00036,BUN,Blood Urea Nitrogen,CHEMISTRY,10.56,mg/dL,7.0,20.0,10.56,10.56,mg/dL,7.0,20.0,NORMAL,,WEEK 2,4,2024-11-19,14
STUDY001,LB,STUDY001-SUBJ0008,37,L00037,CREAT,Creatinine,CHEMISTRY,0.99,mg/dL,0.6,1.2,0.99,0.99,mg/dL,0.6,1.2,NORMAL,,WEEK 2,4,2024-11-19,14
STUDY001,LB,STUDY001-SUBJ0008,38,L00038,BILI,Total Bilirubin,CHEMISTRY,0.73,mg/dL,0.1,1.2,0.73,0.73,mg/dL,0.1,1.2,NORMAL,,WEEK 2,4,2024-11-19,14
STUDY001,LB,STUDY001-SUBJ0008,39,L00039,ALP,Alkaline Phosphatase,CHEMISTRY,130.69,U/L,44.0,147.0,130.69,130.69,U/L,44.0,147.0,NORMAL,,WEEK 2,4,2024-11-19,14
STUDY001,LB,STUDY001-SUBJ0008,40,L00040,ALT,Alanine Aminotransferase,CHEMISTRY,32.27,U/L,7.0,56.0,32.27,32.27,U/L,7.0,56.0,NORMAL,,WEEK 2,4,2024-11-19,14
STUDY001,LB,STUDY001-SUBJ0008,41,L00041,HGB,Hemoglobin,HEMATOLOGY,15.24,g/dL,13.5,17.5,15.24,15.24,g/dL,13.5,17.5,NORMAL,,WEEK 4,5,2024-12-03,28
STUDY001,LB,STUDY001-SUBJ0008,42,L00042,HCT,Hematocrit,HEMATOLOGY,48.05,%,41.0,51.0,48.05,48.05,%,41.0,51.0,NORMAL,,WEEK 4,5,2024-12-03,28
STUDY001,LB,STUDY001-SUBJ0008,43,L00043,WBC,White Blood Cell Count,HEMATOLOGY,10.31,10^9/L,4.5,11.0,10.31,10.31,10^9/L,4.5,11.0,NORMAL,,WEEK 4,5,2024-12-03,28
STUDY001,LB,STUDY001-SUBJ0008,44,L00044,PLT,Platelet Count,HEMATOLOGY,332.78,10^9/L,150.0,450.0,332.78,332.78,10^9/L,150.0,450.0,NORMAL,,WEEK 4,5,2024-12-03,28
STUDY001,LB,STUDY001-SUBJ0008,45,L00045,GLUC,Glucose,CHEMISTRY,99.44,mg/dL,70.0,100.0,99.44,99.44,mg/dL,70.0,100.0,NORMAL,,WEEK 4,5,2024-12-03,28
STUDY001,LB,STUDY001-SUBJ0008,46,L00046,BUN,Blood Urea Nitrogen,CHEMISTRY,10.9,mg/dL,7.0,20.0,10.9,10.9,mg/dL,7.0,20.0,NORMAL,,WEEK 4,5,2024-12-03,28
STUDY001,LB,STUDY001-SUBJ0008,47,L00047,CREAT,Creatinine,CHEMISTRY,1.01,mg/dL,0.6,1.2,1.01,1.01,mg/dL,0.6,1.2,NORMAL,,WEEK 4,5,2024-12-03,28
STUDY001,LB,STUDY001-SUBJ0008,48,L00048,BILI,Total Bilirubin,CHEMISTRY,0.74,mg/dL,0.1,1.2,0.74,0.74,mg/dL,0.1,1.2,NORMAL,,WEEK 4,5,2024-12-03,28
STUDY001,LB,STUDY001-SUBJ0008,49,L00049,ALP,Alkaline Phosphatase,CHEMISTRY,128.34,U/L,44.0,147.0,128.34,128.34,U/L,44.0,147.0,NORMAL,,WEEK 4,5,2024-12-03,28
STUDY001,LB,STUDY001-SUBJ0008,50,L00050,ALT,Alanine Aminotransferase,CHEMISTRY,30.7,U/L,7.0,56.0,30.7,30.7,U/L,7.0,56.0,NORMAL,,WEEK 4,5,2024-12-03,28
STUDY001,LB,STUDY001-SUBJ0008,51,L00051,HGB,Hemoglobin,HEMATOLOGY,15.37,g/dL,13.5,17.5,15.37,15.37,g/dL,13.5,17.5,NORMAL,,WEEK 8,6,2024-12-31,56
STUDY001,LB,STUDY001-SUBJ0008,52,L00052,HCT,Hematocrit,HEMATOLOGY,48.05,%,41.0,51.0,48.05,48.05,%,41.0,51.0,NORMAL,,WEEK 8,6,2024-12-31,56
STUDY001,LB,STUDY001-SUBJ0008,53,L00053,WBC,White Blood Cell Count,HEMATOLOGY,10.87,10^9/L,4.5,11.0,10.87,10.87,10^9/L,4.5,11.0,NORMAL,,WEEK 8,6,2024-12-31,56
STUDY001,LB,STUDY001-SUBJ0008,54,L00054,PLT,Platelet Count,HEMATOLOGY,349.16,10^9/L,150.0,450.0,349.16,349.16,10^9/L,150.0,450.0,NORMAL,,WEEK 8,6,2024-12-31,56
STUDY001,LB,STUDY001-SUBJ0008,55,L00055,GLUC,Glucose,CHEMISTRY,99.47,mg/dL,70.0,100.0,99.47,99.47,mg/dL,70.0,100.0,NORMAL,,WEEK 8,6,2024-12-31,56
STUDY001,LB,STUDY001-SUBJ0008,56,L00056,BUN,Blood Urea Nitrogen,CHEMISTRY,10.98,mg/dL,7.0,20.0,10.98,10.98,mg/dL,7.0,20.0,NORMAL,,WEEK 8,6,2024-12-31,56
STUDY001,LB,STUDY001-SUBJ0008,57,L00057,CREAT,Creatinine,CHEMISTRY,1.0,mg/dL,0.6,1.2,1.0,1.0,mg/dL,0.6,1.2,NORMAL,,WEEK 8,6,2024-12-31,56
STUDY001,LB,STUDY001-SUBJ0008,58,L00058,BILI,Total Bilirubin,CHEMISTRY,0.71,mg/dL,0.1,1.2,0.71,0.71,mg/dL,0.1,1.2,NORMAL,,WEEK 8,6,2024-12-31,56
STUDY001,LB,STUDY001-SUBJ0008,59,L00059,ALP,Alkaline Phosphatase,CHEMISTRY,131.66,U/L,44.0,147.0,131.66,131.66,U/L,44.0,147.0,NORMAL,,WEEK 8,6,2024-12-31,56
STUDY001,LB,STUDY001-SUBJ0008,60,L00060,ALT,Alanine Aminotransferase,CHEMISTRY,32.4,U/L,7.0,56.0,32.4,32.4,U/L,7.0,56.0,NORMAL,,WEEK 8,6,2024-12-31,56
STUDY001,LB,STUDY001-SUBJ0008,61,L00061,HGB,Hemoglobin,HEMATOLOGY,15.43,g/dL,13.5,17.5,15.43,15.43,g/dL,13.5,17.5,NORMAL,,WEEK 12,7,2025-01-28,84
STUDY001,LB,STUDY001-SUBJ0008,62,L00062,HCT,Hematocrit,HEMATOLOGY,48.04,%,41.0,51.0,48.04,48.04,%,41.0,51.0,NORMAL,,WEEK 12,7,2025-01-28,84
STUDY001,LB,STUDY001-SUBJ0008,63,L00063,WBC,White Blood Cell Count,HEMATOLOGY,10.67,10^9/L,4.5,11.0,10.67,10.67,10^9/L,4.5,11.0,NORMAL,,WEEK 12,7,2025-01-28,84
STUDY001,LB,STUDY001-SUBJ0008,64,L00064,PLT,Platelet Count,HEMATOLOGY,348.7,10^9/L,150.0,450.0,348.7,348.7,10^9/L,150.0,450.0,NORMAL,,WEEK 12,7,2025-01-28,84
STUDY001,LB,STUDY001-SUBJ0008,65,L00065,GLUC,Glucose,CHEMISTRY,98.12,mg/dL,70.0,100.0,98.12,98.12,mg/dL,70.0,100.0,NORMAL,,WEEK 12,7,2025-01-28,84
STUDY001,LB,STUDY001-SUBJ0008,66,L00066,BUN,Blood Urea Nitrogen,CHEMISTRY,10.89,mg/dL,7.0,20.0,10.89,10.89,mg/dL,7.0,20.0,NORMAL,,WEEK 12,7,2025-01-28,84
STUDY001,LB,STUDY001-SUBJ0008,67,L00067,CREAT,Creatinine,CHEMISTRY,0.99,mg/dL,0.6,1.2,0.99,0.99,mg/dL,0.6,1.2,NORMAL,,WEEK 12,7,2025-01-28,84
STUDY001,LB,STUDY001-SUBJ0008,68,L00068,BILI,Total Bilirubin,CHEMISTRY,0.71,mg/dL,0.1,1.2,0.71,0.71,mg/dL,0.1,1.2,NORMAL,,WEEK 12,7,2025-01-28,84
STUDY001,LB,STUDY001-SUBJ0008,69,L00069,ALP,Alkaline Phosphatase,CHEMISTRY,133.42,U/L,44.0,147.0,133.42,133.42,U/L,44.0,147.0,NORMAL,,WEEK 12,7,2025-01-28,84
STUDY001,LB,STUDY001-SUBJ0008,70,L00070,ALT,Alanine Aminotransferase,CHEMISTRY,30.01,U/L,7.0,56.0,30.01,30.01,U/L,7.0,56.0,NORMAL,,WEEK 12,7,2025-01-28,84
STUDY001,LB,STUDY001-SUBJ0008,71,L00071,HGB,Hemoglobin,HEMATOLOGY,15.38,g/dL,13.5,17.5,15.38,15.38,g/dL,13.5,17.5,NORMAL,,WEEK 16,8,2025-02-25,112
STUDY001,LB,STUDY001-SUBJ0008,72,L00072,HCT,Hematocrit,HEMATOLOGY,47.95,%,41.0,51.0,47.95,47.95,%,41.0,51.0,NORMAL,,WEEK 16,8,2025-02-25,112
STUDY001,LB,STUDY001-SUBJ0008,73,L00073,WBC,White Blood Cell Count,HEMATOLOGY,10.35,10^9/L,4.5,11.0,10.35,10.35,10^9/L,4.5,11.0,NORMAL,,WEEK 16,8,2025-02-25,112
STUDY001,LB,STUDY001-SUBJ0008,74,L00074,PLT,Platelet Count,HEMATOLOGY,337.05,10^9/L,150.0,450.0,337.05,337.05,10^9/L,150.0,450.0,NORMAL,,WEEK 16,8,2025-02-25,112
STUDY001,LB,STUDY001-SUBJ0008,75,L00075,GLUC,Glucose,CHEMISTRY,98.65,mg/dL,70.0,100.0,98.65,98.65,mg/dL,70.0,100.0,NORMAL,,WEEK 16,8,2025-02-25,112
STUDY001,LB,STUDY001-SUBJ0008,76,L00076,BUN,Blood Urea Nitrogen,CHEMISTRY,10.76,mg/dL,7.0,20.0,10.76,10.76,mg/dL,7.0,20.0,NORMAL,,WEEK 16,8,2025-02-25,112
STUDY001,LB,STUDY001-SUBJ0008,77,L00077,CREAT,Creatinine,CHEMISTRY,1.0,mg/dL,0.6,1.2,1.0,1.0,mg/dL,0.6,1.2,NORMAL,,WEEK 16,8,2025-02-25,112
STUDY001,LB,STUDY001-SUBJ0008,78,L00078,BILI,Total Bilirubin,CHEMISTRY,0.74,mg/dL,0.1,1.2,0.74,0.74,mg/dL,0.1,1.2,NORMAL,,WEEK 16,8,2025-02-25,112
STUDY001,LB,STUDY001-SUBJ0008,79,L00079,ALP,Alkaline Phosphatase,CHEMISTRY,132.53,U/L,44.0,147.0,132.53,132.53,U/L,44.0,147.0,NORMAL,,WEEK 16,8,2025-02-25,112
STUDY001,LB,STUDY001-SUBJ0008,80,L00080,ALT,Alanine Aminotransferase,CHEMISTRY,30.22,U/L,7.0,56.0,30.22,30.22,U/L,7.0,56.0,NORMAL,,WEEK 16,8,2025-02-25,112
STUDY001,LB,STUDY001-SUBJ0008,81,L00081,HGB,Hemoglobin,HEMATOLOGY,15.2,g/dL,13.5,17.5,15.2,15.2,g/dL,13.5,17.5,NORMAL,,END OF TREATMENT,9,2025-03-25,140
STUDY001,LB,STUDY001-SUBJ0008,82,L00082,HCT,Hematocrit,HEMATOLOGY,47.82,%,41.0,51.0,47.82,47.82,%,41.0,51.0,NORMAL,,END OF TREATMENT,9,2025-03-25,140
STUDY001,LB,STUDY001-SUBJ0008,83,L00083,WBC,White Blood Cell Count,HEMATOLOGY,10.52,10^9/L,4.5,11.0,10.52,10.52,10^9/L,4.5,11.0,NORMAL,,END OF TREATMENT,9,2025-03-25,140
STUDY001,LB,STUDY001-SUBJ0008,84,L00084,PLT,Platelet Count,HEMATOLOGY,341.03,10^9/L,150.0,450.0,341.03,341.03,10^9/L,150.0,450.0,NORMAL,,END OF TREATMENT,9,2025-03-25,140
STUDY001,LB,STUDY001-SUBJ0008,85,L00085,GLUC,Glucose,CHEMISTRY,98.54,mg/dL,70.0,100.0,98.54,98.54,mg/dL,70.0,100.0,NORMAL,,END OF TREATMENT,9,2025-03-25,140
STUDY001,LB,STUDY001-SUBJ0008,86,L00086,BUN,Blood Urea Nitrogen,CHEMISTRY,10.82,mg/dL,7.0,20.0,10.82,10.82,mg/dL,7.0,20.0,NORMAL,,END OF TREATMENT,9,2025-03-25,140
STUDY001,LB,STUDY001-SUBJ0008,87,L00087,CREAT,Creatinine,CHEMISTRY,1.01,mg/dL,0.6,1.2,1.01,1.01,mg/dL,0.6,1.2,NORMAL,,END OF TREATMENT,9,2025-03-25,140
STUDY001,LB,STUDY001-SUBJ0008,88,L00088,BILI,Total Bilirubin,CHEMISTRY,0.75,mg/dL,0.1,1.2,0.75,0.75,mg/dL,0.1,1.2,NORMAL,,END OF TREATMENT,9,2025-03-25,140
STUDY001,LB,STUDY001-SUBJ0008,89,L00089,ALP,Alkaline Phosphatase,CHEMISTRY,132.41,U/L,44.0,147.0,132.41,132.41,U/L,44.0,147.0,NORMAL,,END OF TREATMENT,9,2025-03-25,140
STUDY001,LB,STUDY001-SUBJ0008,90,L00090,ALT,Alanine Aminotransferase,CHEMISTRY,29.82,U/L,7.0,56.0,29.82,29.82,U/L,7.0,56.0,NORMAL,,END OF TREATMENT,9,2025-03-25,140
STUDY001,LB,STUDY001-SUBJ0009,1,L00001,HGB,Hemoglobin,HEMATOLOGY,16.13,g/dL,13.5,17.5,16.13,16.13,g/dL,13.5,17.5,NORMAL,,SCREENING,1,2024-12-14,-14
STUDY001,LB,STUDY001-SUBJ0009,2,L00002,HCT,Hematocrit,HEMATOLOGY,44.31,%,41.0,51.0,44.31,44.31,%,41.0,51.0,NORMAL,,SCREENING,1,2024-12-14,-14
STUDY001,LB,STUDY001-SUBJ0009,3,L00003,WBC,White Blood Cell Count,HEMATOLOGY,9.32,10^9/L,4.5,11.0,9.32,9.32,10^9/L,4.5,11.0,NORMAL,,SCREENING,1,2024-12-14,-14
STUDY001,LB,STUDY001-SUBJ0009,4,L00004,PLT,Platelet Count,HEMATOLOGY,266.0,10^9/L,150.0,450.0,266.0,266.0,10^9/L,150.0,450.0,NORMAL,,SCREENING,1,2024-12-14,-14
STUDY001,LB,STUDY001-SUBJ0009,5,L00005,GLUC,Glucose,CHEMISTRY,80.95,mg/dL,70.0,100.0,80.95,80.95,mg/dL,70.0,100.0,NORMAL,,SCREENING,1,2024-12-14,-14
STUDY001,LB,STUDY001-SUBJ0009,6,L00006,BUN,Blood Urea Nitrogen,CHEMISTRY,17.37,mg/dL,7.0,20.0,17.37,17.37,mg/dL,7.0,20.0,NORMAL,,SCREENING,1,2024-12-14,-14
STUDY001,LB,STUDY001-SUBJ0009,7,L00007,CREAT,Creatinine,CHEMISTRY,0.57,mg/dL,0.6,1.2,0.57,0.57,mg/dL,0.6,1.2,LOW,,SCREENING,1,2024-12-14,-14
STUDY001,LB,STUDY001-SUBJ0009,8,L00008,BILI,Total Bilirubin,CHEMISTRY,0.33,mg/dL,0.1,1.2,0.33,0.33,mg/dL,0.1,1.2,NORMAL,,SCREENING,1,2024-12-14,-14
STUDY001,LB,STUDY001-SUBJ0009,9,L00009,ALP,Alkaline Phosphatase,CHEMISTRY,115.92,U/L,44.0,147.0,115.92,115.92,U/L,44.0,147.0,NORMAL,,SCREENING,1,2024-12-14,-14
STUDY001,LB,STUDY001-SUBJ0009,10,L00010,ALT,Alanine Aminotransferase,CHEMISTRY,25.16,U/L,7.0,56.0,25.16,25.16,U/L,7.0,56.0,NORMAL,,SCREENING,1,2024-12-14,-14
STUDY001,LB,STUDY001-SUBJ0009,11,L00011,HGB,Hemoglobin,HEMATOLOGY,16.29,g/dL,13.5,17.5,16.29,16.29,g/dL,13.5,17.5,NORMAL,Y,BASELINE,2,2024-12-28,1
STUDY001,LB,STUDY001-SUBJ0009,12,L00012,HCT,Hematocrit,HEMATOLOGY,44.13,%,41.0,51.0,44.13,44.13,%,41.0,51.0,NORMAL,Y,BASELINE,2,2024-12-28,1
STUDY001,LB,STUDY001-SUBJ0009,13,L00013,WBC,White Blood Cell Count,HEMATOLOGY,9.15,10^9/L,4.5,11.0,9.15,9.15,10^9/L,4.5,11.0,NORMAL,Y,BASELINE,2,2024-12-28,1
STUDY001,LB,STUDY001-SUBJ0009,14,L00014,PLT,Platelet Count,HEMATOLOGY,250.03,10^9/L,150.0,450.0,250.03,250.03,10^9/L,150.0,450.0,NORMAL,Y,BASELINE,2,2024-12-28,1
STUDY001,LB,STUDY001-SUBJ0009,15,L00015,GLUC,Glucose,CHEMISTRY,80.37,mg/dL,70.0,100.0,80.37,80.37,mg/dL,70.0,100.0,NORMAL,Y,BASELINE,2,2024-12-28,1
STUDY001,LB,STUDY001-SUBJ0009,16,L00016,BUN,Blood Urea Nitrogen,CHEMISTRY,16.46,mg/dL,7.0,20.0,16.46,16.46,mg/dL,7.0,20.0,NORMAL,Y,BASELINE,2,2024-12-28,1
STUDY001,LB,STUDY001-SUBJ0009,17,L00017,CREAT,Creatinine,CHEMISTRY,0.56,mg/dL,0.6,1.2,0.56,0.56,mg/dL,0.6,1.2,LOW,Y,BASELINE,2,2024-12-28,1
STUDY001,LB,STUDY001-SUBJ0009,18,L00018,BILI,Total Bilirubin,CHEMISTRY,0.38,mg/dL,0.1,1.2,0.38,0.38,mg/dL,0.1,1.2,NORMAL,Y,BASELINE,2,2024-12-28,1
STUDY001,LB,STUDY001-SUBJ0009,19,L00019,ALP,Alkaline Phosphatase,CHEMISTRY,113.26,U/L,44.0,147.0,113.26,113.26,U/L,44.0,147.0,NORMAL,Y,BASELINE,2,2024-12-28,1
STUDY001,LB,STUDY001-SUBJ0009,20,L00020,ALT,Alanine Aminotransferase,CHEMISTRY,23.07,U/L,7.0,56.0,23.07,23.07,U/L,7.0,56.0,NORMAL,Y,BASELINE,2,2024-12-28,1
STUDY001,LB,STUDY001-SUBJ0009,21,L00021,HGB,Hemoglobin,HEMATOLOGY,16.12,g/dL,13.5,17.5,16.12,16.12,g/dL,13.5,17.5,NORMAL,,WEEK 1,3,2025-01-03,7
STUDY001,LB,STUDY001-SUBJ0009,22,L00022,HCT,Hematocrit,HEMATOLOGY,44.1,%,41.0,51.0,44.1,44.1,%,41.0,51.0,NORMAL,,WEEK 1,3,2025-01-03,7
STUDY001,LB,STUDY001-SUBJ0009,23,L00023,WBC,White Blood Cell Count,HEMATOLOGY,9.08,10^9/L,4.5,11.0,9.08,9.08,10^9/L,4.5,11.0,NORMAL,,WEEK 1,3,2025-01-03,7
STUDY001,LB,STUDY001-SUBJ0009,24,L00024,PLT,Platelet Count,HEMATOLOGY,256.21,10^9/L,150.0,450.0,256.21,256.21,10^9/L,150.0,450.0,NORMAL,,WEEK 1,3,2025-01-03,7
STUDY001,LB,STUDY001-SUBJ0009,25,L00025,GLUC,Glucose,CHEMISTRY,82.3,mg/dL,70.0,100.0,82.3,82.3,mg/dL,70.0,100.0,NORMAL,,WEEK 1,3,2025-01-03,7
STUDY001,LB,STUDY001-SUBJ0009,26,L00026,BUN,Blood Urea Nitrogen,CHEMISTRY,17.28,mg/dL,7.0,20.0,17.28,17.28,mg/dL,7.0,20.0,NORMAL,,WEEK 1,3,2025-01-03,7
STUDY001,LB,STUDY001-SUBJ0009,27,L00027,CREAT,Creatinine,CHEMISTRY,0.57,mg/dL,0.6,1.2,0.57,0.57,mg/dL,0.6,1.2,LOW,,WEEK 1,3,2025-01-03,7
STUDY001,LB,STUDY001-SUBJ0009,28,L00028,BILI,Total Bilirubin,CHEMISTRY,0.33,mg/dL,0.1,1.2,0.33,0.33,mg/dL,0.1,1.2,NORMAL,,WEEK 1,3,2025-01-03,7
STUDY001,LB,STUDY001-SUBJ0009,29,L00029,ALP,Alkaline Phosphatase,CHEMISTRY,112.74,U/L,44.0,147.0,112.74,112.74,U/L,44.0,147.0,NORMAL,,WEEK 1,3,2025-01-03,7
STUDY001,LB,STUDY001-SUBJ0009,30,L00030,ALT,Alanine Aminotransferase,CHEMISTRY,24.12,U/L,7.0,56.0,24.12,24.12,U/L,7.0,56.0,NORMAL,,WEEK 1,3,2025-01-03,7
STUDY001,LB,STUDY001-SUBJ0009,31,L00031,HGB,Hemoglobin,HEMATOLOGY,16.23,g/dL,13.5,17.5,16.23,16.23,g/dL,13.5,17.5,NORMAL,,WEEK 2,4,2025-01-10,14
STUDY001,LB,STUDY001-SUBJ0009,32,L00032,HCT,Hematocrit,HEMATOLOGY,44.12,%,41.0,51.0,44.12,44.12,%,41.0,51.0,NORMAL,,WEEK 2,4,2025-01-10,14
STUDY001,LB,STUDY001-SUBJ0009,33,L00033,WBC,White Blood Cell Count,HEMATOLOGY,9.09,10^9/L,4.5,11.0,9.09,9.09,10^9/L,4.5,11.0,NORMAL,,WEEK 2,4,2025-01-10,14
STUDY001,LB,STUDY001-SUBJ0009,34,L00034,PLT,Platelet Count,HEMATOLOGY,251.93,10^9/L,150.0,450.0,251.93,251.93,10^9/L,150.0,450.0,NORMAL,,WEEK 2,4,2025-01-10,14
STUDY001,LB,STUDY001-SUBJ0009,35,L00035,GLUC,Glucose,CHEMISTRY,79.76,mg/dL,70.0,100.0,79.76,79.76,mg/dL,70.0,100.0,NORMAL,,WEEK 2,4,2025-01-10,14
STUDY001,LB,STUDY001-SUBJ0009,36,L00036,BUN,Blood Urea Nitrogen,CHEMISTRY,17.27,mg/dL,7.0,20.0,17.27,17.27,mg/dL,7.0,20.0,NORMAL,,WEEK 2,4,2025-01-10,14
STUDY001,LB,STUDY001-SUBJ0009,37,L00037,CREAT,Creatinine,CHEMISTRY,0.55,mg/dL,0.6,1.2,0.55,0.55,mg/dL,0.6,1.2,LOW,,WEEK 2,4,2025-01-10,14
STUDY001,LB,STUDY001-SUBJ0009,38,L00038,BILI,Total Bilirubin,CHEMISTRY,0.33,mg/dL,0.1,1.2,0.33,0.33,mg/dL,0.1,1.2,NORMAL,,WEEK 2,4,2025-01-10,14
STUDY001,LB,STUDY001-SUBJ0009,39,L00039,ALP,Alkaline Phosphatase,CHEMISTRY,113.41,U/L,44.0,147.0,113.41,113.41,U/L,44.0,147.0,NORMAL,,WEEK 2,4,2025-01-10,14
STUDY001,LB,STUDY001-SUBJ0009,40,L00040,ALT,Alanine Aminotransferase,CHEMISTRY,23.7,U/L,7.0,56.0,23.7,23.7,U/L,7.0,56.0,NORMAL,,WEEK 2,4,2025-01-10,14
STUDY001,LB,STUDY001-SUBJ0009,41,L00041,HGB,Hemoglobin,HEMATOLOGY,16.16,g/dL,13.5,17.5,16.16,16.16,g/dL,13.5,17.5,NORMAL,,WEEK 4,5,2025-01-24,28
STUDY001,LB,STUDY001-SUBJ0009,42,L00042,HCT,Hematocrit,HEMATOLOGY,43.76,%,41.0,51.0,43.76,43.76,%,41.0,51.0,NORMAL,,WEEK 4,5,2025-01-24,28
STUDY001,LB,STUDY001-SUBJ0009,43,L00043,WBC,White Blood Cell Count,HEMATOLOGY,9.38,10^9/L,4.5,11.0,9.38,9.38,10^9/L,4.5,11.0,NORMAL,,WEEK 4,5,2025-01-24,28
STUDY001,LB,STUDY001-SUBJ0009,44,L00044,PLT,Platelet Count,HEMATOLOGY,255.17,10^9/L,150.0,450.0,255.17,255.17,10^9/L,150.0,450.0,NORMAL,,WEEK 4,5,2025-01-24,28
STUDY001,LB,STUDY001-SUBJ0009,45,L00045,GLUC,Glucose,CHEMISTRY,81.96,mg/dL,70.0,100.0,81.96,81.96,mg/dL,70.0,100.0,NORMAL,,WEEK 4,5,2025-01-24,28
STUDY001,LB,STUDY001-SUBJ0009,46,L00046,BUN,Blood Urea Nitrogen,CHEMISTRY,17.01,mg/dL,7.0,20.0,17.01,17.01,mg/dL,7.0,20.0,NORMAL,,WEEK 4,5,2025-01-24,28
STUDY001,LB,STUDY001-SUBJ0009,47,L00047,CREAT,Creatinine,CHEMISTRY,0.57,mg/dL,0.6,1.2,0.57,0.57,mg/dL,0.6,1.2,LOW,,WEEK 4,5,2025-01-24,28
STUDY001,LB,STUDY001-SUBJ0009,48,L00048,BILI,Total Bilirubin,CHEMISTRY,0.33,mg/dL,0.1,1.2,0.33,0.33,mg/dL,0.1,1.2,NORMAL,,WEEK 4,5,2025-01-24,28
STUDY001,LB,STUDY001-SUBJ0009,49,L00049,ALP,Alkaline Phosphatase,CHEMISTRY,114.91,U/L,44.0,147.0,114.91,114.91,U/L,44.0,147.0,NORMAL,,WEEK 4,5,2025-01-24,28
STUDY001,LB,STUDY001-SUBJ0009,50,L00050,ALT,Alanine Aminotransferase,CHEMISTRY,23.45,U/L,7.0,56.0,23.45,23.45,U/L,7.0,56.0,NORMAL,,WEEK 4,5,2025-01-24,28
STUDY001,LB,STUDY001-SUBJ0009,51,L00051,HGB,Hemoglobin,HEMATOLOGY,16.13,g/dL,13.5,17.5,16.13,16.13,g/dL,13.5,17.5,NORMAL,,WEEK 8,6,2025-02-21,56
STUDY001,LB,STUDY001-SUBJ0009,52,L00052,HCT,Hematocrit,HEMATOLOGY,44.53,%,41.0,51.0,44.53,44.53,%,41.0,51.0,NORMAL,,WEEK 8,6,2025-02-21,56
STUDY001,LB,STUDY001-SUBJ0009,53,L00053,WBC,White Blood Cell Count,HEMATOLOGY,9.2,10^9/L,4.5,11.0,9.2,9.2,10^9/L,4.5,11.0,NORMAL,,WEEK 8,6,2025-02-21,56
STUDY001,LB,STUDY001-SUBJ0009,54,L00054,PLT,Platelet Count,HEMATOLOGY,258.34,10^9/L,150.0,450.0,258.34,258.34,10^9/L,150.0,450.0,NORMAL,,WEEK 8,6,2025-02-21,56
STUDY001,LB,STUDY001-SUBJ0009,55,L00055,GLUC,Glucose,CHEMISTRY,80.37,mg/dL,70.0,100.0,80.37,80.37,mg/dL,70.0,100.0,NORMAL,,WEEK 8,6,2025-02-21,56
STUDY001,LB,STUDY001-SUBJ0009,56,L00056,BUN,Blood Urea Nitrogen,CHEMISTRY,17.22,mg/dL,7.0,20.0,17.22,17.22,mg/dL,7.0,20.0,NORMAL,,WEEK 8,6,2025-02-21,56
STUDY001,LB,STUDY001-SUBJ0009,57,L00057,CREAT,Creatinine,CHEMISTRY,0.55,mg/dL,0.6,1.2,0.55,0.55,mg/dL,0.6,1.2,LOW,,WEEK 8,6,2025-02-21,56
STUDY001,LB,STUDY001-SUBJ0009,58,L00058,BILI,Total Bilirubin,CHEMISTRY,0.32,mg/dL,0.1,1.2,0.32,0.32,mg/dL,0.1,1.2,NORMAL,,WEEK 8,6,2025-02-21,56
STUDY001,LB,STUDY001-SUBJ0009,59,L00059,ALP,Alkaline Phosphatase,CHEMISTRY,112.57,U/L,44.0,147.0,112.57,112.57,U/L,44.0,147.0,NORMAL,,WEEK 8,6,2025-02-21,56
STUDY001,LB,STUDY001-SUBJ0009,60,L00060,ALT,Alanine Aminotransferase,CHEMISTRY,22.76,U/L,7.0,56.0,22.76,22.76,U/L,7.0,56.0,NORMAL,,WEEK 8,6,2025-02-21,56
STUDY001,LB,STUDY001-SUBJ0009,61,L00061,HGB,Hemoglobin,HEMATOLOGY,16.14,g/dL,13.5,17.5,16.14,16.14,g/dL,13.5,17.5,NORMAL,,WEEK 12,7,2025-03-21,84
STUDY001,LB,STUDY001-SUBJ0009,62,L00062,HCT,Hematocrit,HEMATOLOGY,43.64,%,41.0,51.0,43.64,43.64,%,41.0,51.0,NORMAL,,WEEK 12,7,2025-03-21,84
STUDY001,LB,STUDY001-SUBJ0009,63,L00063,WBC,White Blood Cell Count,HEMATOLOGY,9.06,10^9/L,4.5,11.0,9.06,9.06,10^9/L,4.5,11.0,NORMAL,,WEEK 12,7,2025-03-21,84
STUDY001,LB,STUDY001-SUBJ0009,64,L00064,PLT,Platelet Count,HEMATOLOGY,255.63,10^9/L,150.0,450.0,255.63,255.63,10^9/L,150.0,450.0,NORMAL,,WEEK 12,7,2025-03-21,84
STUDY001,LB,STUDY001-SUBJ0009,65,L00065,GLUC,Glucose,CHEMISTRY,80.33,mg/dL,70.0,100.0,80.33,80.33,mg/dL,70.0,100.0,NORMAL,,WEEK 12,7,2025-03-21,84
STUDY001,LB,STUDY001-SUBJ0009,66,L00066,BUN,Blood Urea Nitrogen,CHEMISTRY,17.13,mg/dL,7.0,20.0,17.13,17.13,mg/dL,7.0,20.0,NORMAL,,WEEK 12,7,2025-03-21,84
STUDY001,LB,STUDY001-SUBJ0009,67,L00067,CREAT,Creatinine,CHEMISTRY,0.55,mg/dL,0.6,1.2,0.55,0.55,mg/dL,0.6,1.2,LOW,,WEEK 12,7,2025-03-21,84
STUDY001,LB,STUDY001-SUBJ0009,68,L00068,BILI,Total Bilirubin,CHEMISTRY,0.35,mg/dL,0.1,1.2,0.35,0.35,mg/dL,0.1,1.2,NORMAL,,WEEK 12,7,2025-03-21,84
STUDY001,LB,STUDY001-SUBJ0009,69,L00069,ALP,Alkaline Phosphatase,CHEMISTRY,113.74,U/L,44.0,147.0,113.74,113.74,U/L,44.0,147.0,NORMAL,,WEEK 12,7,2025-03-21,84
STUDY001,LB,STUDY001-SUBJ0009,70,L00070,ALT,Alanine Aminotransferase,CHEMISTRY,23.02,U/L,7.0,56.0,23.02,23.02,U/L,7.0,56.0,NORMAL,,WEEK 12,7,2025-03-21,84
STUDY001,LB,STUDY001-SUBJ0009,71,L00071,HGB,Hemoglobin,HEMATOLOGY,16.14,g/dL,13.5,17.5,16.14,16.14,g/dL,13.5,17.5,NORMAL,,WEEK 16,8,2025-04-18,112
STUDY001,LB,STUDY001-SUBJ0009,72,L00072,HCT,Hematocrit,HEMATOLOGY,44.15,%,41.0,51.0,44.15,44.15,%,41.0,51.0,NORMAL,,WEEK 16,8,2025-04-18,112
STUDY001,LB,STUDY001-SUBJ0009,73,L00073,WBC,White Blood Cell Count,HEMATOLOGY,9.17,10^9/L,4.5,11.0,9.17,9.17,10^9/L,4.5,11.0,NORMAL,,WEEK 16,8,2025-04-18,112
STUDY001,LB,STUDY001-SUBJ0009,74,L00074,PLT,Platelet Count,HEMATOLOGY,264.84,10^9/L,150.0,450.0,264.84,264.84,10^9/L,150.0,450.0,NORMAL,,WEEK 16,8,2025-04-18,112
STUDY001,LB,STUDY001-SUBJ0009,75,L00075,GLUC,Glucose,CHEMISTRY,81.1,mg/dL,70.0,100.0,81.1,81.1,mg/dL,70.0,100.0,NORMAL,,WEEK 16,8,2025-04-18,112
STUDY001,LB,STUDY001-SUBJ0009,76,L00076,BUN,Blood Urea Nitrogen,CHEMISTRY,16.62,mg/dL,7.0,20.0,16.62,16.62,mg/dL,7.0,20.0,NORMAL,,WEEK 16,8,2025-04-18,112
STUDY001,LB,STUDY001-SUBJ0009,77,L00077,CREAT,Creatinine,CHEMISTRY,0.57,mg/dL,0.6,1.2,0.57,0.57,mg/dL,0.6,1.2,LOW,,WEEK 16,8,2025-04-18,112
STUDY001,LB,STUDY001-SUBJ0009,78,L00078,BILI,Total Bilirubin,CHEMISTRY,0.33,mg/dL,0.1,1.2,0.33,0.33,mg/dL,0.1,1.2,NORMAL,,WEEK 16,8,2025-04-18,112
STUDY001,LB,STUDY001-SUBJ0009,79,L00079,ALP,Alkaline Phosphatase,CHEMISTRY,111.18,U/L,44.0,147.0,111.18,111.18,U/L,44.0,147.0,NORMAL,,WEEK 16,8,2025-04-18,112
STUDY001,LB,STUDY001-SUBJ0009,80,L00080,ALT,Alanine Aminotransferase,CHEMISTRY,22.84,U/L,7.0,56.0,22.84,22.84,U/L,7.0,56.0,NORMAL,,WEEK 16,8,2025-04-18,112
STUDY001,LB,STUDY001-SUBJ0009,81,L00081,HGB,Hemoglobin,HEMATOLOGY,16.27,g/dL,13.5,17.5,16.27,16.27,g/dL,13.5,17.5,NORMAL,,END OF TREATMENT,9,2025-05-16,140
STUDY001,LB,STUDY001-SUBJ0009,82,L00082,HCT,Hematocrit,HEMATOLOGY,44.23,%,41.0,51.0,44.23,44.23,%,41.0,51.0,NORMAL,,END OF TREATMENT,9,2025-05-16,140
STUDY001,LB,STUDY001-SUBJ0009,83,L00083,WBC,White Blood Cell Count,HEMATOLOGY,9.06,10^9/L,4.5,11.0,9.06,9.06,10^9/L,4.5,11.0,NORMAL,,END OF TREATMENT,9,2025-05-16,140
STUDY001,LB,STUDY001-SUBJ0009,84,L00084,PLT,Platelet Count,HEMATOLOGY,258.44,10^9/L,150.0,450.0,258.44,258.44,10^9/L,150.0,450.0,NORMAL,,END OF TREATMENT,9,2025-05-16,140
STUDY001,LB,STUDY001-SUBJ0009,85,L00085,GLUC,Glucose,CHEMISTRY,82.29,mg/dL,70.0,100.0,82.29,82.29,mg/dL,70.0,100.0,NORMAL,,END OF TREATMENT,9,2025-05-16,140
STUDY001,LB,STUDY001-SUBJ0009,86,L00086,BUN,Blood Urea Nitrogen,CHEMISTRY,17.13,mg/dL,7.0,20.0,17.13,17.13,mg/dL,7.0,20.0,NORMAL,,END OF TREATMENT,9,2025-05-16,140
STUDY001,LB,STUDY001-SUBJ0009,87,L00087,CREAT,Creatinine,CHEMISTRY,0.55,mg/dL,0.6,1.2,0.55,0.55,mg/dL,0.6,1.2,LOW,,END OF TREATMENT,9,2025-05-16,140
STUDY001,LB,STUDY001-SUBJ0009,88,L00088,BILI,Total Bilirubin,CHEMISTRY,0.32,mg/dL,0.1,1.2,0.32,0.32,mg/dL,0.1,1.2,NORMAL,,END OF TREATMENT,9,2025-05-16,140
STUDY001,LB,STUDY001-SUBJ0009,89,L00089,ALP,Alkaline Phosphatase,CHEMISTRY,116.98,U/L,44.0,147.0,116.98,116.98,U/L,44.0,147.0,NORMAL,,END OF TREATMENT,9,2025-05-16,140
STUDY001,LB,STUDY001-SUBJ0009,90,L00090,ALT,Alanine Aminotransferase,CHEMISTRY,24.25,U/L,7.0,56.0,24.25,24.25,U/L,7.0,56.0,NORMAL,,END OF TREATMENT,9,2025-05-16,140
STUDY001,LB,STUDY001-SUBJ0010,1,L00001,HGB,Hemoglobin,HEMATOLOGY,15.93,g/dL,13.5,17.5,15.93,15.93,g/dL,13.5,17.5,NORMAL,,SCREENING,1,2024-12-06,-14
STUDY001,LB,STUDY001-SUBJ0010,2,L00002,HCT,Hematocrit,HEMATOLOGY,47.07,%,41.0,51.0,47.07,47.07,%,41.0,51.0,NORMAL,,SCREENING,1,2024-12-06,-14
STUDY001,LB,STUDY001-SUBJ0010,3,L00003,WBC,White Blood Cell Count,HEMATOLOGY,5.15,10^9/L,4.5,11.0,5.15,5.15,10^9/L,4.5,11.0,NORMAL,,SCREENING,1,2024-12-06,-14
STUDY001,LB,STUDY001-SUBJ0010,4,L00004,PLT,Platelet Count,HEMATOLOGY,301.8,10^9/L,150.0,450.0,301.8,301.8,10^9/L,150.0,450.0,NORMAL,,SCREENING,1,2024-12-06,-14
STUDY001,LB,STUDY001-SUBJ0010,5,L00005,GLUC,Glucose,CHEMISTRY,75.2,mg/dL,70.0,100.0,75.2,75.2,mg/dL,70.0,100.0,NORMAL,,SCREENING,1,2024-12-06,-14
STUDY001,LB,STUDY001-SUBJ0010,6,L00006,BUN,Blood Urea Nitrogen,CHEMISTRY,14.37,mg/dL,7.0,20.0,14.37,14.37,mg/dL,7.0,20.0,NORMAL,,SCREENING,1,2024-12-06,-14
STUDY001,LB,STUDY001-SUBJ0010,7,L00007,CREAT,Creatinine,CHEMISTRY,1.1,mg/dL,0.6,1.2,1.1,1.1,mg/dL,0.6,1.2,NORMAL,,SCREENING,1,2024-12-06,-14
STUDY001,LB,STUDY001-SUBJ0010,8,L00008,BILI,Total Bilirubin,CHEMISTRY,0.73,mg/dL,0.1,1.2,0.73,0.73,mg/dL,0.1,1.2,NORMAL,,SCREENING,1,2024-12-06,-14
STUDY001,LB,STUDY001-SUBJ0010,9,L00009,ALP,Alkaline Phosphatase,CHEMISTRY,97.84,U/L,44.0,147.0,97.84,97.84,U/L,44.0,147.0,NORMAL,,SCREENING,1,2024-12-06,-14
STUDY001,LB,STUDY001-SUBJ0010,10,L00010,ALT,Alanine Aminotransferase,CHEMISTRY,39.14,U/L,7.0,56.0,39.14,39.14,U/L,7.0,56.0,NORMAL,,SCREENING,1,2024-12-06,-14
STUDY001,LB,STUDY001-SUBJ0010,11,L00011,HGB,Hemoglobin,HEMATOLOGY,16.0,g/dL,13.5,17.5,16.0,16.0,g/dL,13.5,17.5,NORMAL,Y,BASELINE,2,2024-12-20,1
STUDY001,LB,STUDY001-SUBJ0010,12,L00012,HCT,Hematocrit,HEMATOLOGY,46.86,%,41.0,51.0,46.86,46.86,%,41.0,51.0,NORMAL,Y,BASELINE,2,2024-12-20,1
STUDY001,LB,STUDY001-SUBJ0010,13,L00013,WBC,White Blood Cell Count,HEMATOLOGY,5.09,10^9/L,4.5,11.0,5.09,5.09,10^9/L,4.5,11.0,NORMAL,Y,BASELINE,2,2024-12-20,1
STUDY001,LB,STUDY001-SUBJ0010,14,L00014,PLT,Platelet Count,HEMATOLOGY,296.65,10^9/L,150.0,450.0,296.65,296.65,10^9/L,150.0,450.0,NORMAL,Y,BASELINE,2,2024-12-20,1
STUDY001,LB,STUDY001-SUBJ0010,15,L00015,GLUC,Glucose,CHEMISTRY,75.73,mg/dL,70.0,100.0,75.73,75.73,mg/dL,70.0,100.0,NORMAL,Y,BASELINE,2,2024-12-20,1
STUDY001,LB,STUDY001-SUBJ0010,16,L00016,BUN,Blood Urea Nitrogen,CHEMISTRY,15.12,mg/dL,7.0,20.0,15.12,15.12,mg/dL,7.0,20.0,NORMAL,Y,BASELINE,2,2024-12-20,1
STUDY001,LB,STUDY001-SUBJ0010,17,L00017,CREAT,Creatinine,CHEMISTRY,1.07,mg/dL,0.6,1.2,1.07,1.07,mg/dL,0.6,1.2,NORMAL,Y,BASELINE,2,2024-12-20,1
STUDY001,LB,STUDY001-SUBJ0010,18,L00018,BILI,Total Bilirubin,CHEMISTRY,0.73,mg/dL,0.1,1.2,0.73,0.73,mg/dL,0.1,1.2,NORMAL,Y,BASELINE,2,2024-12-20,1
STUDY001,LB,STUDY001-SUBJ0010,19,L00019,ALP,Alkaline Phosphatase,CHEMISTRY,101.84,U/L,44.0,147.0,101.84,101.84,U/L,44.0,147.0,NORMAL,Y,BASELINE,2,2024-12-20,1
STUDY001,LB,STUDY001-SUBJ0010,20,L00020,ALT,Alanine Aminotransferase,CHEMISTRY,38.17,U/L,7.0,56.0,38.17,38.17,U/L,7.0,56.0,NORMAL,Y,BASELINE,2,2024-12-20,1
STUDY001,LB,STUDY001-SUBJ0010,21,L00021,HGB,Hemoglobin,HEMATOLOGY,16.0,g/dL,13.5,17.5,16.0,16.0,g/dL,13.5,17.5,NORMAL,,WEEK 1,3,2024-12-26,7
STUDY001,LB,STUDY001-SUBJ0010,22,L00022,HCT,Hematocrit,HEMATOLOGY,47.11,%,41.0,51.0,47.11,47.11,%,41.0,51.0,NORMAL,,WEEK 1,3,2024-12-26,7
STUDY001,LB,STUDY001-SUBJ0010,23,L00023,WBC,White Blood Cell Count,HEMATOLOGY,5.21,10^9/L,4.5,11.0,5.21,5.21,10^9/L,4.5,11.0,NORMAL,,WEEK 1,3,2024-12-26,7
STUDY001,LB,STUDY001-SUBJ0010,24,L00024,PLT,Platelet Count,HEMATOLOGY,292.78,10^9/L,150.0,450.0,292.78,292.78,10^9/L,150.0,450.0,NORMAL,,WEEK 1,3,2024-12-26,7
STUDY001,LB,STUDY001-SUBJ0010,25,L00025,GLUC,Glucose,CHEMISTRY,74.26,mg/dL,70.0,100.0,74.26,74.26,mg/dL,70.0,100.0,NORMAL,,WEEK 1,3,2024-12-26,7
STUDY001,LB,STUDY001-SUBJ0010,26,L00026,BUN,Blood Urea Nitrogen,CHEMISTRY,14.5,mg/dL,7.0,20.0,14.5,14.5,mg/dL,7.0,20.0,NORMAL,,WEEK 1,3,2024-12-26,7
STUDY001,LB,STUDY001-SUBJ0010,27,L00027,CREAT,Creatinine,CHEMISTRY,1.08,mg/dL,0.6,1.2,1.08,1.08,mg/dL,0.6,1.2,NORMAL,,WEEK 1,3,2024-12-26,7
STUDY001,LB,STUDY001-SUBJ0010,28,L00028,BILI,Total Bilirubin,CHEMISTRY,0.71,mg/dL,0.1,1.2,0.71,0.71,mg/dL,0.1,1.2,NORMAL,,WEEK 1,3,2024-12-26,7
STUDY001,LB,STUDY001-SUBJ0010,29,L00029,ALP,Alkaline Phosphatase,CHEMISTRY,101.43,U/L,44.0,147.0,101.43,101.43,U/L,44.0,147.0,NORMAL,,WEEK 1,3,2024-12-26,7
STUDY001,LB,STUDY001-SUBJ0010,30,L00030,ALT,Alanine Aminotransferase,CHEMISTRY,38.01,U/L,7.0,56.0,38.01,38.01,U/L,7.0,56.0,NORMAL,,WEEK 1,3,2024-12-26,7
STUDY001,LB,STUDY001-SUBJ0010,31,L00031,HGB,Hemoglobin,HEMATOLOGY,16.04,g/dL,13.5,17.5,16.04,16.04,g/dL,13.5,17.5,NORMAL,,WEEK 2,4,2025-01-02,14
STUDY001,LB,STUDY001-SUBJ0010,32,L00032,HCT,Hematocrit,HEMATOLOGY,46.85,%,41.0,51.0,46.85,46.85,%,41.0,51.0,NORMAL,,WEEK 2,4,2025-01-02,14
STUDY001,LB,STUDY001-SUBJ0010,33,L00033,WBC,White Blood Cell Count,HEMATOLOGY,5.25,10^9/L,4.5,11.0,5.25,5.25,10^9/L,4.5,11.0,NORMAL,,WEEK 2,4,2025-01-02,14
STUDY001,LB,STUDY001-SUBJ0010,34,L00034,PLT,Platelet Count,HEMATOLOGY,301.24,10^9/L,150.0,450.0,301.24,301.24,10^9/L,150.0,450.0,NORMAL,,WEEK 2,4,2025-01-02,14
STUDY001,LB,STUDY001-SUBJ0010,35,L00035,GLUC,Glucose,CHEMISTRY,76.09,mg/dL,70.0,100.0,76.09,76.09,mg/dL,70.0,100.0,NORMAL,,WEEK 2,4,2025-01-02,14
STUDY001,LB,STUDY001-SUBJ0010,36,L00036,BUN,Blood Urea Nitrogen,CHEMISTRY,14.49,mg/dL,7.0,20.0,14.49,14.49,mg/dL,7.0,20.0,NORMAL,,WEEK 2,4,2025-01-02,14
STUDY001,LB,STUDY001-SUBJ0010,37,L00037,CREAT,Creatinine,CHEMISTRY,1.06,mg/dL,0.6,1.2,1.06,1.06,mg/dL,0.6,1.2,NORMAL,,WEEK 2,4,2025-01-02,14
STUDY001,LB,STUDY001-SUBJ0010,38,L00038,BILI,Total Bilirubin,CHEMISTRY,0.72,mg/dL,0.1,1.2,0.72,0.72,mg/dL,0.1,1.2,NORMAL,,WEEK 2,4,2025-01-02,14
STUDY001,LB,STUDY001-SUBJ0010,39,L00039,ALP,Alkaline Phosphatase,CHEMISTRY,101.53,U/L,44.0,147.0,101.53,101.53,U/L,44.0,147.0,NORMAL,,WEEK 2,4,2025-01-02,14
STUDY001,LB,STUDY001-SUBJ0010,40,L00040,ALT,Alanine Aminotransferase,CHEMISTRY,37.69,U/L,7.0,56.0,37.69,37.69,U/L,7.0,56.0,NORMAL,,WEEK 2,4,2025-01-02,14
STUDY001,LB,STUDY001-SUBJ0010,41,L00041,HGB,Hemoglobin,HEMATOLOGY,16.14,g/dL,13.5,17.5,16.14,16.14,g/dL,13.5,17.5,NORMAL,,WEEK 4,5,2025-01-16,28
STUDY001,LB,STUDY001-SUBJ0010,42,L00042,HCT,Hematocrit,HEMATOLOGY,46.87,%,41.0,51.0,46.87,46.87,%,41.0,51.0,NORMAL,,WEEK 4,5,2025-01-16,28
STUDY001,LB,STUDY001-SUBJ0010,43,L00043,WBC,White Blood Cell Count,HEMATOLOGY,5.03,10^9/L,4.5,11.0,5.03,5.03,10^9/L,4.5,11.0,NORMAL,,WEEK 4,5,2025-01-16,28
STUDY001,LB,STUDY001-SUBJ0010,44,L00044,PLT,Platelet Count,HEMATOLOGY,291.38,10^9/L,150.0,450.0,291.38,291.38,10^9/L,150.0,450.0,NORMAL,,WEEK 4,5,2025-01-16,28
STUDY001,LB,STUDY001-SUBJ0010,45,L00045,GLUC,Glucose,CHEMISTRY,76.45,mg/dL,70.0,100.0,76.45,76.45,mg/dL,70.0,100.0,NORMAL,,WEEK 4,5,2025-01-16,28
STUDY001,LB,STUDY001-SUBJ0010,46,L00046,BUN,Blood Urea Nitrogen,CHEMISTRY,13.96,mg/dL,7.0,20.0,13.96,13.96,mg/dL,7.0,20.0,NORMAL,,WEEK 4,5,2025-01-16,28
STUDY001,LB,STUDY001-SUBJ0010,47,L00047,CREAT,Creatinine,CHEMISTRY,1.06,mg/dL,0.6,1.2,1.06,1.06,mg/dL,0.6,1.2,NORMAL,,WEEK 4,5,2025-01-16,28
STUDY001,LB,STUDY001-SUBJ0010,48,L00048,BILI,Total Bilirubin,CHEMISTRY,0.71,mg/dL,0.1,1.2,0.71,0.71,mg/dL,0.1,1.2,NORMAL,,WEEK 4,5,2025-01-16,28
STUDY001,LB,STUDY001-SUBJ0010,49,L00049,ALP,Alkaline Phosphatase,CHEMISTRY,102.29,U/L,44.0,147.0,102.29,102.29,U/L,44.0,147.0,NORMAL,,WEEK 4,5,2025-01-16,28
STUDY001,LB,STUDY001-SUBJ0010,50,L00050,ALT,Alanine Aminotransferase,CHEMISTRY,39.29,U/L,7.0,56.0,39.29,39.29,U/L,7.0,56.0,NORMAL,,WEEK 4,5,2025-01-16,28
STUDY001,LB,STUDY001-SUBJ0010,51,L00051,HGB,Hemoglobin,HEMATOLOGY,16.12,g/dL,13.5,17.5,16.12,16.12,g/dL,13.5,17.5,NORMAL,,WEEK 8,6,2025-02-13,56
STUDY001,LB,STUDY001-SUBJ0010,52,L00052,HCT,Hematocrit,HEMATOLOGY,46.93,%,41.0,51.0,46.93,46.93,%,41.0,51.0,NORMAL,,WEEK 8,6,2025-02-13,56
STUDY001,LB,STUDY001-SUBJ0010,53,L00053,WBC,White Blood Cell Count,HEMATOLOGY,5.1,10^9/L,4.5,11.0,5.1,5.1,10^9/L,4.5,11.0,NORMAL,,WEEK 8,6,2025-02-13,56
STUDY001,LB,STUDY001-SUBJ0010,54,L00054,PLT,Platelet Count,HEMATOLOGY,284.79,10^9/L,150.0,450.0,284.79,284.79,10^9/L,150.0,450.0,NORMAL,,WEEK 8,6,2025-02-13,56
STUDY001,LB,STUDY001-SUBJ0010,55,L00055,GLUC,Glucose,CHEMISTRY,75.46,mg/dL,70.0,100.0,75.46,75.46,mg/dL,70.0,100.0,NORMAL,,WEEK 8,6,2025-02-13,56
STUDY001,LB,STUDY001-SUBJ0010,56,L00056,BUN,Blood Urea Nitrogen,CHEMISTRY,13.72,mg/dL,7.0,20.0,13.72,13.72,mg/dL,7.0,20.0,NORMAL,,WEEK 8,6,2025-02-13,56
STUDY001,LB,STUDY001-SUBJ0010,57,L00057,CREAT,Creatinine,CHEMISTRY,1.06,mg/dL,0.6,1.2,1.06,1.06,mg/dL,0.6,1.2,NORMAL,,WEEK 8,6,2025-02-13,56
STUDY001,LB,STUDY001-SUBJ0010,58,L00058,BILI,Total Bilirubin,CHEMISTRY,0.76,mg/dL,0.1,1.2,0.76,0.76,mg/dL,0.1,1.2,NORMAL,,WEEK 8,6,2025-02-13,56
STUDY001,LB,STUDY001-SUBJ0010,59,L00059,ALP,Alkaline Phosphatase,CHEMISTRY,100.54,U/L,44.0,147.0,100.54,100.54,U/L,44.0,147.0,NORMAL,,WEEK 8,6,2025-02-13,56
STUDY001,LB,STUDY001-SUBJ0010,60,L00060,ALT,Alanine Aminotransferase,CHEMISTRY,38.07,U/L,7.0,56.0,38.07,38.07,U/L,7.0,56.0,NORMAL,,WEEK 8,6,2025-02-13,56
STUDY001,LB,STUDY001-SUBJ0010,61,L00061,HGB,Hemoglobin,HEMATOLOGY,16.19,g/dL,13.5,17.5,16.19,16.19,g/dL,13.5,17.5,NORMAL,,WEEK 12,7,2025-03-13,84
STUDY001,LB,STUDY001-SUBJ0010,62,L00062,HCT,Hematocrit,HEMATOLOGY,46.76,%,41.0,51.0,46.76,46.76,%,41.0,51.0,NORMAL,,WEEK 12,7,2025-03-13,84
STUDY001,LB,STUDY001-SUBJ0010,63,L00063,WBC,White Blood Cell Count,HEMATOLOGY,5.39,10^9/L,4.5,11.0,5.39,5.39,10^9/L,4.5,11.0,NORMAL,,WEEK 12,7,2025-03-13,84
STUDY001,LB,STUDY001-SUBJ0010,64,L00064,PLT,Platelet Count,HEMATOLOGY,294.91,10^9/L,150.0,450.0,294.91,294.91,10^9/L,150.0,450.0,NORMAL,,WEEK 12,7,2025-03-13,84
STUDY001,LB,STUDY001-SUBJ0010,65,L00065,GLUC,Glucose,CHEMISTRY,76.41,mg/dL,70.0,100.0,76.41,76.41,mg/dL,70.0,100.0,NORMAL,,WEEK 12,7,2025-03-13,84
STUDY001,LB,STUDY001-SUBJ0010,66,L00066,BUN,Blood Urea Nitrogen,CHEMISTRY,14.3,mg/dL,7.0,20.0,14.3,14.3,mg/dL,7.0,20.0,NORMAL,,WEEK 12,7,2025-03-13,84
STUDY001,LB,STUDY001-SUBJ0010,67,L00067,CREAT,Creatinine,CHEMISTRY,1.09,mg/dL,0.6,1.2,1.09,1.09,mg/dL,0.6,1.2,NORMAL,,WEEK 12,7,2025-03-13,84
STUDY001,LB,STUDY001-SUBJ0010,68,L00068,BILI,Total Bilirubin,CHEMISTRY,0.7,mg/dL,0.1,1.2,0.7,0.7,mg/dL,0.1,1.2,NORMAL,,WEEK 12,7,2025-03-13,84
STUDY001,LB,STUDY001-SUBJ0010,69,L00069,ALP,Alkaline Phosphatase,CHEMISTRY,105.69,U/L,44.0,147.0,105.69,105.69,U/L,44.0,147.0,NORMAL,,WEEK 12,7,2025-03-13,84
STUDY001,LB,STUDY001-SUBJ0010,70,L00070,ALT,Alanine Aminotransferase,CHEMISTRY,37.26,U/L,7.0,56.0,37.26,37.26,U/L,7.0,56.0,NORMAL,,WEEK 12,7,2025-03-13,84
STUDY001,LB,STUDY001-SUBJ0010,71,L00071,HGB,Hemoglobin,HEMATOLOGY,16.09,g/dL,13.5,17.5,16.09,16.09,g/dL,13.5,17.5,NORMAL,,WEEK 16,8,2025-04-10,112
STUDY001,LB,STUDY001-SUBJ0010,72,L00072,HCT,Hematocrit,HEMATOLOGY,46.74,%,41.0,51.0,46.74,46.74,%,41.0,51.0,NORMAL,,WEEK 16,8,2025-04-10,112
STUDY001,LB,STUDY001-SUBJ0010,73,L00073,WBC,White Blood Cell Count,HEMATOLOGY,4.93,10^9/L,4.5,11.0,4.93,4.93,10^9/L,4.5,11.0,NORMAL,,WEEK 16,8,2025-04-10,112
STUDY001,LB,STUDY001-SUBJ0010,74,L00074,PLT,Platelet Count,HEMATOLOGY,295.46,10^9/L,150.0,450.0,295.46,295.46,10^9/L,150.0,450.0,NORMAL,,WEEK 16,8,2025-04-10,112
STUDY001,LB,STUDY001-SUBJ0010,75,L00075,GLUC,Glucose,CHEMISTRY,76.7,mg/dL,70.0,100.0,76.7,76.7,mg/dL,70.0,100.0,NORMAL,,WEEK 16,8,2025-04-10,112
STUDY001,LB,STUDY001-SUBJ0010,76,L00076,BUN,Blood Urea Nitrogen,CHEMISTRY,14.1,mg/dL,7.0,20.0,14.1,14.1,mg/dL,7.0,20.0,NORMAL,,WEEK 16,8,2025-04-10,112
STUDY001,LB,STUDY001-SUBJ0010,77,L00077,CREAT,Creatinine,CHEMISTRY,1.08,mg/dL,0.6,1.2,1.08,1.08,mg/dL,0.6,1.2,NORMAL,,WEEK 16,8,2025-04-10,112
STUDY001,LB,STUDY001-SUBJ0010,78,L00078,BILI,Total Bilirubin,CHEMISTRY,0.73,mg/dL,0.1,1.2,0.73,0.73,mg/dL,0.1,1.2,NORMAL,,WEEK 16,8,2025-04-10,112
STUDY001,LB,STUDY001-SUBJ0010,79,L00079,ALP,Alkaline Phosphatase,CHEMISTRY,100.77,U/L,44.0,147.0,100.77,100.77,U/L,44.0,147.0,NORMAL,,WEEK 16,8,2025-04-10,112
STUDY001,LB,STUDY001-SUBJ0010,80,L00080,ALT,Alanine Aminotransferase,CHEMISTRY,39.18,U/L,7.0,56.0,39.18,39.18,U/L,7.0,56.0,NORMAL,,WEEK 16,8,2025-04-10,112
STUDY001,LB,STUDY001-SUBJ0010,81,L00081,HGB,Hemoglobin,HEMATOLOGY,15.99,g/dL,13.5,17.5,15.99,15.99,g/dL,13.5,17.5,NORMAL,,END OF TREATMENT,9,2025-05-08,140
STUDY001,LB,STUDY001-SUBJ0010,82,L00082,HCT,Hematocrit,HEMATOLOGY,46.45,%,41.0,51.0,46.45,46.45,%,41.0,51.0,NORMAL,,END OF TREATMENT,9,2025-05-08,140
STUDY001,LB,STUDY001-SUBJ0010,83,L00083,WBC,White Blood Cell Count,HEMATOLOGY,5.17,10^9/L,4.5,11.0,5.17,5.17,10^9/L,4.5,11.0,NORMAL,,END OF TREATMENT,9,2025-05-08,140
STUDY001,LB,STUDY001-SUBJ0010,84,L00084,PLT,Platelet Count,HEMATOLOGY,298.21,10^9/L,150.0,450.0,298.21,298.21,10^9/L,150.0,450.0,NORMAL,,END OF TREATMENT,9,2025-05-08,140
STUDY001,LB,STUDY001-SUBJ0010,85,L00085,GLUC,Glucose,CHEMISTRY,74.7,mg/dL,70.0,100.0,74.7,74.7,mg/dL,70.0,100.0,NORMAL,,END OF TREATMENT,9,2025-05-08,140
STUDY001,LB,STUDY001-SUBJ0010,86,L00086,BUN,Blood Urea Nitrogen,CHEMISTRY,14.39,mg/dL,7.0,20.0,14.39,14.39,mg/dL,7.0,20.0,NORMAL,,END OF TREATMENT,9,2025-05-08,140
STUDY001,LB,STUDY001-SUBJ0010,87,L00087,CREAT,Creatinine,CHEMISTRY,1.07,mg/dL,0.6,1.2,1.07,1.07,mg/dL,0.6,1.2,NORMAL,,END OF TREATMENT,9,2025-05-08,140
STUDY001,LB,STUDY001-SUBJ0010,88,L00088,BILI,Total Bilirubin,CHEMISTRY,0.75,mg/dL,0.1,1.2,0.75,0.75,mg/dL,0.1,1.2,NORMAL,,END OF TREATMENT,9,2025-05-08,140
STUDY001,LB,STUDY001-SUBJ0010,89,L00089,ALP,Alkaline Phosphatase,CHEMISTRY,102.66,U/L,44.0,147.0,102.66,102.66,U/L,44.0,147.0,NORMAL,,END OF TREATMENT,9,2025-05-08,140
STUDY001,LB,STUDY001-SUBJ0010,90,L00090,ALT,Alanine Aminotransferase,CHEMISTRY,39.19,U/L,7.0,56.0,39.19,39.19,U/L,7.0,56.0,NORMAL,,END OF TREATMENT,9,2025-05-08,140
