STUDYID,DOMAIN,USUBJID,SUBJID,RFSTDTC,RFENDTC,RFXSTDTC,RFXENDTC,RFICDTC,RFPENDTC,DTHDTC,DTHFL,SITEID,AGE,AGEU,SEX,RACE,ETHNIC,ARMCD,ARM,ACTARMCD,ACTARM,COUNTRY,DMDTC,DMDY
STUDY001,DM,STUDY001-SUBJ0001,SUBJ0001,2025-02-08,2025-08-01,2025-07-16,2025-07-26,2025-07-20,2025-08-01,,,48,74,YEARS,M,AMERICAN INDIAN OR ALASKA NATIVE,HISPANIC OR LATINO,ARM1,Treatment 2,ARM1,Treatment 2,GN,2025-04-11,29
STUDY001,DM,STUDY001-SUBJ0002,SUBJ0002,2024-10-08,2025-08-20,2025-06-17,2025-08-05,2025-03-30,2025-08-20,,,20,57,YEARS,M,AMERICAN INDIAN OR ALASKA NATIVE,NOT HISPANIC OR LATINO,ARM2,Treatment 1,ARM2,Treatment 1,VC,2024-10-06,29
STUDY001,DM,STUDY001-SUBJ0003,SUBJ0003,2025-07-02,2025-08-02,2025-05-11,2025-07-24,2025-03-25,2025-08-02,,,12,51,YEARS,F,WHITE,HISPANIC OR LATINO,ARM3,Treatment 1,ARM3,Treatment 1,CR,2025-05-27,8
STUDY001,DM,STUDY001-SUBJ0004,SUBJ0004,2025-06-09,2025-08-07,2024-10-11,2025-07-24,2025-02-09,2025-08-07,,,46,30,YEARS,F,WHITE,NOT HISPANIC OR LATINO,ARM1,Treatment 2,ARM1,Treatment 2,SD,2024-12-28,1
STUDY001,DM,STUDY001-SUBJ0005,SUBJ0005,2024-10-20,2025-07-27,2025-02-03,2025-07-24,2024-11-04,2025-07-27,,,46,24,YEARS,F,AMERICAN INDIAN OR ALASKA NATIVE,HISPANIC OR LATINO,ARM2,Treatment 1,ARM2,Treatment 1,PK,2025-03-10,1
STUDY001,DM,STUDY001-SUBJ0006,SUBJ0006,2025-04-15,2025-08-15,2024-08-26,2025-07-28,2025-04-26,2025-08-15,,,34,74,YEARS,M,ASIAN,HISPANIC OR LATINO,ARM3,Treatment 1,ARM3,Treatment 1,ZM,2025-01-28,20
STUDY001,DM,STUDY001-SUBJ0007,SUBJ0007,2025-03-17,2025-07-31,2025-04-10,2025-08-10,2025-03-04,2025-07-31,,,40,46,YEARS,F,ASIAN,HISPANIC OR LATINO,ARM1,Treatment 3,ARM1,Treatment 3,BJ,2025-04-19,7
STUDY001,DM,STUDY001-SUBJ0008,SUBJ0008,2024-11-12,2025-07-25,2024-09-03,2025-08-03,2024-09-19,2025-07-25,,,26,50,YEARS,M,AMERICAN INDIAN OR ALASKA NATIVE,NOT HISPANIC OR LATINO,ARM2,Treatment 3,ARM2,Treatment 3,IT,2025-06-09,6
STUDY001,DM,STUDY001-SUBJ0009,SUBJ0009,2024-10-13,2025-08-18,2025-01-02,2025-07-30,2025-05-10,2025-08-18,,,38,60,YEARS,M,ASIAN,HISPANIC OR LATINO,ARM3,Treatment 2,ARM3,Treatment 2,DJ,2025-04-14,3
STUDY001,DM,STUDY001-SUBJ0010,SUBJ0010,2025-01-29,2025-07-29,2025-07-22,2025-08-17,2024-10-04,2025-07-29,,,2,39,YEARS,M,BLACK OR AFRICAN AMERICAN,HISPANIC OR LATINO,ARM1,Treatment 3,ARM1,Treatment 3,ID,2024-11-09,3
