STUDYID,DOMAIN,USUBJID,SUBJID,RFSTDTC,RFENDTC,RFXSTDTC,RFXENDTC,RFICDTC,RFPENDTC,DTHDTC,DTHFL,SITEID,AGE,AGEU,SEX,RACE,ETHNIC,ARMCD,ARM,ACTARMCD,ACTARM,COUNTRY,DMDTC,DMDY
STUDY001,DM,STUDY001-SUBJ0001,SUBJ0001,2024-08-25,2025-08-11,2025-05-24,2025-08-19,2024-09-21,2025-08-11,,,41,78,YEARS,F,BLACK OR AFRICAN AMERICAN,NOT HISPANIC OR LATINO,ARM1,Treatment 2,ARM1,Treatment 2,GY,2024-10-13,28
STUDY001,DM,STUDY001-SUBJ0002,SUBJ0002,2025-06-20,2025-08-05,2024-12-01,2025-08-10,2024-11-23,2025-08-05,,,15,60,YEARS,M,ASIAN,NOT HISPANIC OR LATINO,ARM2,Treatment 1,ARM2,Treatment 1,BD,2025-04-25,2
STUDY001,DM,STUDY001-SUBJ0003,SUBJ0003,2025-01-18,2025-08-16,2025-05-04,2025-08-13,2024-09-29,2025-08-16,,,18,28,YEARS,F,BLACK OR AFRICAN AMERICAN,HISPANIC OR LATINO,ARM3,Treatment 3,ARM3,Treatment 3,DM,2025-03-27,16
STUDY001,DM,STUDY001-SUBJ0004,SUBJ0004,2025-05-17,2025-08-04,2025-05-07,2025-07-28,2025-06-27,2025-08-04,,,20,32,YEARS,M,WHITE,HISPANIC OR LATINO,ARM1,Treatment 3,ARM1,Treatment 3,LT,2024-08-30,12
STUDY001,DM,STUDY001-SUBJ0005,SUBJ0005,2025-04-26,2025-08-04,2025-07-02,2025-08-03,2024-09-02,2025-08-04,,,46,59,YEARS,M,BLACK OR AFRICAN AMERICAN,NOT HISPANIC OR LATINO,ARM2,Treatment 1,ARM2,Treatment 1,LA,2025-01-24,22
STUDY001,DM,STUDY001-SUBJ0006,SUBJ0006,2024-09-21,2025-08-18,2025-01-14,2025-08-09,2025-05-26,2025-08-18,,,21,20,YEARS,F,WHITE,HISPANIC OR LATINO,ARM3,Treatment 2,ARM3,Treatment 2,SK,2025-07-22,22
STUDY001,DM,STUDY001-SUBJ0007,SUBJ0007,2025-04-22,2025-08-18,2025-01-01,2025-07-26,2025-03-31,2025-08-18,,,50,71,YEARS,M,BLACK OR AFRICAN AMERICAN,NOT HISPANIC OR LATINO,ARM1,Treatment 3,ARM1,Treatment 3,SA,2025-04-13,3
STUDY001,DM,STUDY001-SUBJ0008,SUBJ0008,2025-01-26,2025-08-11,2025-03-09,2025-08-19,2025-04-06,2025-08-11,,,37,31,YEARS,F,ASIAN,HISPANIC OR LATINO,ARM2,Treatment 2,ARM2,Treatment 2,IQ,2025-01-14,26
STUDY001,DM,STUDY001-SUBJ0009,SUBJ0009,2024-09-07,2025-08-14,2025-01-01,2025-08-22,2025-02-11,2025-08-14,,,33,43,YEARS,M,ASIAN,HISPANIC OR LATINO,ARM3,Treatment 1,ARM3,Treatment 1,ES,2025-03-03,7
STUDY001,DM,STUDY001-SUBJ0010,SUBJ0010,2024-10-31,2025-08-07,2025-06-21,2025-07-25,2025-05-20,2025-08-07,,,23,77,YEARS,M,OTHER,HISPANIC OR LATINO,ARM1,Treatment 1,ARM1,Treatment 1,MZ,2025-02-11,15
