STUDYID,DOMAIN,USUBJID,SUBJID,RFSTDTC,RFENDTC,RFXSTDTC,RFXENDTC,RFICDTC,RFPENDTC,DTHDTC,DTHFL,SITEID,AGE,AGEU,SEX,RACE,ETHNIC,ARMCD,ARM,ACTARMCD,ACTARM,COUNTRY,DMDTC,DMDY
STUDY001,DM,STUDY001-SUBJ0001,SUBJ0001,2024-08-24,2025-08-16,2024-11-08,2025-07-25,2025-01-31,2025-08-16,,,17,56,YEARS,M,AMERICAN INDIAN OR ALASKA NATIVE,NOT HISPANIC OR LATINO,ARM1,Treatment 1,ARM1,Treatment 1,YE,2025-06-13,1
STUDY001,DM,STUDY001-SUBJ0002,SUBJ0002,2025-01-12,2025-08-21,2025-01-04,2025-08-18,2025-01-14,2025-08-21,,,9,36,YEARS,F,AMERICAN INDIAN OR ALASKA NATIVE,HISPANIC OR LATINO,ARM2,Treatment 2,ARM2,Treatment 2,PH,2025-04-12,8
STUDY001,DM,STUDY001-SUBJ0003,SUBJ0003,2025-07-18,2025-07-26,2024-12-13,2025-07-30,2024-08-22,2025-07-26,,,7,32,YEARS,F,AMERICAN INDIAN OR ALASKA NATIVE,NOT HISPANIC OR LATINO,ARM3,Treatment 3,ARM3,Treatment 3,GW,2025-02-06,21
STUDY001,DM,STUDY001-SUBJ0004,SUBJ0004,2024-10-14,2025-07-26,2024-12-15,2025-08-18,2024-11-21,2025-07-26,,,9,27,YEARS,F,OTHER,NOT HISPANIC OR LATINO,ARM1,Treatment 2,ARM1,Treatment 2,ML,2024-08-31,9
STUDY001,DM,STUDY001-SUBJ0005,SUBJ0005,2025-04-09,2025-08-14,2025-01-14,2025-08-11,2025-07-03,2025-08-14,,,20,35,YEARS,M,AMERICAN INDIAN OR ALASKA NATIVE,NOT HISPANIC OR LATINO,ARM2,Treatment 1,ARM2,Treatment 1,GT,2025-05-28,18
STUDY001,DM,STUDY001-SUBJ0006,SUBJ0006,2024-10-08,2025-07-25,2024-10-31,2025-07-27,2024-10-07,2025-07-25,,,49,45,YEARS,M,OTHER,HISPANIC OR LATINO,ARM3,Treatment 3,ARM3,Treatment 3,LT,2025-03-30,29
STUDY001,DM,STUDY001-SUBJ0007,SUBJ0007,2025-03-12,2025-08-03,2025-07-06,2025-07-25,2024-12-23,2025-08-03,,,1,46,YEARS,M,WHITE,NOT HISPANIC OR LATINO,ARM1,Treatment 3,ARM1,Treatment 3,BH,2025-05-23,11
STUDY001,DM,STUDY001-SUBJ0008,SUBJ0008,2025-04-24,2025-08-21,2025-06-29,2025-07-26,2025-07-19,2025-08-21,,,32,58,YEARS,M,WHITE,NOT HISPANIC OR LATINO,ARM2,Treatment 1,ARM2,Treatment 1,SN,2024-09-17,27
STUDY001,DM,STUDY001-SUBJ0009,SUBJ0009,2024-12-09,2025-08-02,2025-06-20,2025-08-09,2025-07-12,2025-08-02,,,9,73,YEARS,F,BLACK OR AFRICAN AMERICAN,HISPANIC OR LATINO,ARM3,Treatment 2,ARM3,Treatment 2,BI,2024-11-02,22
STUDY001,DM,STUDY001-SUBJ0010,SUBJ0010,2025-01-31,2025-08-14,2025-05-19,2025-08-18,2024-10-20,2025-08-14,,,40,27,YEARS,F,WHITE,HISPANIC OR LATINO,ARM1,Treatment 2,ARM1,Treatment 2,GR,2024-11-18,26
