STUDYID,DOMAIN,USUBJID,LBSEQ,LBREFID,LBTESTCD,LBTEST,LBCAT,LBORRES,LBORRESU,LBORNRLO,LBORNRHI,LBSTRESC,LBSTRESN,LBSTRESU,LBSTNRLO,LBSTNRHI,LBNRIND,LBBLFL,VISIT,VISITNUM,LBDTC,LBDY
STUDY001,LB,STUDY001-SUBJ0001,1,L00001,HGB,Hemoglobin,HEMATOLOGY,16.08,g/dL,13.5,17.5,16.08,16.08,g/dL,13.5,17.5,NORMAL,,SCREENING,1,2025-03-09,-14
STUDY001,LB,STUDY001-SUBJ0001,2,L00002,HCT,Hematocrit,HEMATOLOGY,47.13,%,41.0,51.0,47.13,47.13,%,41.0,51.0,NORMAL,,SCREENING,1,2025-03-09,-14
STUDY001,LB,STUDY001-SUBJ0001,3,L00003,WBC,White Blood Cell Count,HEMATOLOGY,4.56,10^9/L,4.5,11.0,4.56,4.56,10^9/L,4.5,11.0,NORMAL,,SCREENING,1,2025-03-09,-14
STUDY001,LB,STUDY001-SUBJ0001,4,L00004,PLT,Platelet Count,HEMATOLOGY,351.01,10^9/L,150.0,450.0,351.01,351.01,10^9/L,150.0,450.0,NORMAL,,SCREENING,1,2025-03-09,-14
STUDY001,LB,STUDY001-SUBJ0001,5,L00005,GLUC,Glucose,CHEMISTRY,77.04,mg/dL,70.0,100.0,77.04,77.04,mg/dL,70.0,100.0,NORMAL,,SCREENING,1,2025-03-09,-14
STUDY001,LB,STUDY001-SUBJ0001,6,L00006,BUN,Blood Urea Nitrogen,CHEMISTRY,16.73,mg/dL,7.0,20.0,16.73,16.73,mg/dL,7.0,20.0,NORMAL,,SCREENING,1,2025-03-09,-14
STUDY001,LB,STUDY001-SUBJ0001,7,L00007,CREAT,Creatinine,CHEMISTRY,0.78,mg/dL,0.6,1.2,0.78,0.78,mg/dL,0.6,1.2,NORMAL,,SCREENING,1,2025-03-09,-14
STUDY001,LB,STUDY001-SUBJ0001,8,L00008,BILI,Total Bilirubin,CHEMISTRY,0.92,mg/dL,0.1,1.2,0.92,0.92,mg/dL,0.1,1.2,NORMAL,,SCREENING,1,2025-03-09,-14
STUDY001,LB,STUDY001-SUBJ0001,9,L00009,ALP,Alkaline Phosphatase,CHEMISTRY,142.18,U/L,44.0,147.0,142.18,142.18,U/L,44.0,147.0,NORMAL,,SCREENING,1,2025-03-09,-14
STUDY001,LB,STUDY001-SUBJ0001,10,L00010,ALT,Alanine Aminotransferase,CHEMISTRY,34.61,U/L,7.0,56.0,34.61,34.61,U/L,7.0,56.0,NORMAL,,SCREENING,1,2025-03-09,-14
STUDY001,LB,STUDY001-SUBJ0001,11,L00011,HGB,Hemoglobin,HEMATOLOGY,16.45,g/dL,13.5,17.5,16.45,16.45,g/dL,13.5,17.5,NORMAL,Y,BASELINE,2,2025-03-23,1
STUDY001,LB,STUDY001-SUBJ0001,12,L00012,HCT,Hematocrit,HEMATOLOGY,47.86,%,41.0,51.0,47.86,47.86,%,41.0,51.0,NORMAL,Y,BASELINE,2,2025-03-23,1
STUDY001,LB,STUDY001-SUBJ0001,13,L00013,WBC,White Blood Cell Count,HEMATOLOGY,4.52,10^9/L,4.5,11.0,4.52,4.52,10^9/L,4.5,11.0,NORMAL,Y,BASELINE,2,2025-03-23,1
STUDY001,LB,STUDY001-SUBJ0001,14,L00014,PLT,Platelet Count,HEMATOLOGY,346.9,10^9/L,150.0,450.0,346.9,346.9,10^9/L,150.0,450.0,NORMAL,Y,BASELINE,2,2025-03-23,1
STUDY001,LB,STUDY001-SUBJ0001,15,L00015,GLUC,Glucose,CHEMISTRY,76.68,mg/dL,70.0,100.0,76.68,76.68,mg/dL,70.0,100.0,NORMAL,Y,BASELINE,2,2025-03-23,1
STUDY001,LB,STUDY001-SUBJ0001,16,L00016,BUN,Blood Urea Nitrogen,CHEMISTRY,16.06,mg/dL,7.0,20.0,16.06,16.06,mg/dL,7.0,20.0,NORMAL,Y,BASELINE,2,2025-03-23,1
STUDY001,LB,STUDY001-SUBJ0001,17,L00017,CREAT,Creatinine,CHEMISTRY,0.76,mg/dL,0.6,1.2,0.76,0.76,mg/dL,0.6,1.2,NORMAL,Y,BASELINE,2,2025-03-23,1
STUDY001,LB,STUDY001-SUBJ0001,18,L00018,BILI,Total Bilirubin,CHEMISTRY,0.89,mg/dL,0.1,1.2,0.89,0.89,mg/dL,0.1,1.2,NORMAL,Y,BASELINE,2,2025-03-23,1
STUDY001,LB,STUDY001-SUBJ0001,19,L00019,ALP,Alkaline Phosphatase,CHEMISTRY,138.72,U/L,44.0,147.0,138.72,138.72,U/L,44.0,147.0,NORMAL,Y,BASELINE,2,2025-03-23,1
STUDY001,LB,STUDY001-SUBJ0001,20,L00020,ALT,Alanine Aminotransferase,CHEMISTRY,35.28,U/L,7.0,56.0,35.28,35.28,U/L,7.0,56.0,NORMAL,Y,BASELINE,2,2025-03-23,1
STUDY001,LB,STUDY001-SUBJ0001,21,L00021,HGB,Hemoglobin,HEMATOLOGY,15.9,g/dL,13.5,17.5,15.9,15.9,g/dL,13.5,17.5,NORMAL,,WEEK 1,3,2025-03-29,7
STUDY001,LB,STUDY001-SUBJ0001,22,L00022,HCT,Hematocrit,HEMATOLOGY,47.44,%,41.0,51.0,47.44,47.44,%,41.0,51.0,NORMAL,,WEEK 1,3,2025-03-29,7
STUDY001,LB,STUDY001-SUBJ0001,23,L00023,WBC,White Blood Cell Count,HEMATOLOGY,4.24,10^9/L,4.5,11.0,4.24,4.24,10^9/L,4.5,11.0,LOW,,WEEK 1,3,2025-03-29,7
STUDY001,LB,STUDY001-SUBJ0001,24,L00024,PLT,Platelet Count,HEMATOLOGY,346.92,10^9/L,150.0,450.0,346.92,346.92,10^9/L,150.0,450.0,NORMAL,,WEEK 1,3,2025-03-29,7
STUDY001,LB,STUDY001-SUBJ0001,25,L00025,GLUC,Glucose,CHEMISTRY,75.72,mg/dL,70.0,100.0,75.72,75.72,mg/dL,70.0,100.0,NORMAL,,WEEK 1,3,2025-03-29,7
STUDY001,LB,STUDY001-SUBJ0001,26,L00026,BUN,Blood Urea Nitrogen,CHEMISTRY,16.92,mg/dL,7.0,20.0,16.92,16.92,mg/dL,7.0,20.0,NORMAL,,WEEK 1,3,2025-03-29,7
STUDY001,LB,STUDY001-SUBJ0001,27,L00027,CREAT,Creatinine,CHEMISTRY,0.75,mg/dL,0.6,1.2,0.75,0.75,mg/dL,0.6,1.2,NORMAL,,WEEK 1,3,2025-03-29,7
STUDY001,LB,STUDY001-SUBJ0001,28,L00028,BILI,Total Bilirubin,CHEMISTRY,0.86,mg/dL,0.1,1.2,0.86,0.86,mg/dL,0.1,1.2,NORMAL,,WEEK 1,3,2025-03-29,7
STUDY001,LB,STUDY001-SUBJ0001,29,L00029,ALP,Alkaline Phosphatase,CHEMISTRY,141.25,U/L,44.0,147.0,141.25,141.25,U/L,44.0,147.0,NORMAL,,WEEK 1,3,2025-03-29,7
STUDY001,LB,STUDY001-SUBJ0001,30,L00030,ALT,Alanine Aminotransferase,CHEMISTRY,32.25,U/L,7.0,56.0,32.25,32.25,U/L,7.0,56.0,NORMAL,,WEEK 1,3,2025-03-29,7
STUDY001,LB,STUDY001-SUBJ0001,31,L00031,HGB,Hemoglobin,HEMATOLOGY,16.38,g/dL,13.5,17.5,16.38,16.38,g/dL,13.5,17.5,NORMAL,,WEEK 2,4,2025-04-05,14
STUDY001,LB,STUDY001-SUBJ0001,32,L00032,HCT,Hematocrit,HEMATOLOGY,47.21,%,41.0,51.0,47.21,47.21,%,41.0,51.0,NORMAL,,WEEK 2,4,2025-04-05,14
STUDY001,LB,STUDY001-SUBJ0001,33,L00033,WBC,White Blood Cell Count,HEMATOLOGY,4.32,10^9/L,4.5,11.0,4.32,4.32,10^9/L,4.5,11.0,LOW,,WEEK 2,4,2025-04-05,14
STUDY001,LB,STUDY001-SUBJ0001,34,L00034,PLT,Platelet Count,HEMATOLOGY,343.35,10^9/L,150.0,450.0,343.35,343.35,10^9/L,150.0,450.0,NORMAL,,WEEK 2,4,2025-04-05,14
STUDY001,LB,STUDY001-SUBJ0001,35,L00035,GLUC,Glucose,CHEMISTRY,76.36,mg/dL,70.0,100.0,76.36,76.36,mg/dL,70.0,100.0,NORMAL,,WEEK 2,4,2025-04-05,14
STUDY001,LB,STUDY001-SUBJ0001,36,L00036,BUN,Blood Urea Nitrogen,CHEMISTRY,15.84,mg/dL,7.0,20.0,15.84,15.84,mg/dL,7.0,20.0,NORMAL,,WEEK 2,4,2025-04-05,14
STUDY001,LB,STUDY001-SUBJ0001,37,L00037,CREAT,Creatinine,CHEMISTRY,0.76,mg/dL,0.6,1.2,0.76,0.76,mg/dL,0.6,1.2,NORMAL,,WEEK 2,4,2025-04-05,14
STUDY001,LB,STUDY001-SUBJ0001,38,L00038,BILI,Total Bilirubin,CHEMISTRY,0.91,mg/dL,0.1,1.2,0.91,0.91,mg/dL,0.1,1.2,NORMAL,,WEEK 2,4,2025-04-05,14
STUDY001,LB,STUDY001-SUBJ0001,39,L00039,ALP,Alkaline Phosphatase,CHEMISTRY,142.46,U/L,44.0,147.0,142.46,142.46,U/L,44.0,147.0,NORMAL,,WEEK 2,4,2025-04-05,14
STUDY001,LB,STUDY001-SUBJ0001,40,L00040,ALT,Alanine Aminotransferase,CHEMISTRY,34.9,U/L,7.0,56.0,34.9,34.9,U/L,7.0,56.0,NORMAL,,WEEK 2,4,2025-04-05,14
STUDY001,LB,STUDY001-SUBJ0001,41,L00041,HGB,Hemoglobin,HEMATOLOGY,16.33,g/dL,13.5,17.5,16.33,16.33,g/dL,13.5,17.5,NORMAL,,WEEK 4,5,2025-04-19,28
STUDY001,LB,STUDY001-SUBJ0001,42,L00042,HCT,Hematocrit,HEMATOLOGY,47.01,%,41.0,51.0,47.01,47.01,%,41.0,51.0,NORMAL,,WEEK 4,5,2025-04-19,28
STUDY001,LB,STUDY001-SUBJ0001,43,L00043,WBC,White Blood Cell Count,HEMATOLOGY,4.3,10^9/L,4.5,11.0,4.3,4.3,10^9/L,4.5,11.0,LOW,,WEEK 4,5,2025-04-19,28
STUDY001,LB,STUDY001-SUBJ0001,44,L00044,PLT,Platelet Count,HEMATOLOGY,340.12,10^9/L,150.0,450.0,340.12,340.12,10^9/L,150.0,450.0,NORMAL,,WEEK 4,5,2025-04-19,28
STUDY001,LB,STUDY001-SUBJ0001,45,L00045,GLUC,Glucose,CHEMISTRY,75.76,mg/dL,70.0,100.0,75.76,75.76,mg/dL,70.0,100.0,NORMAL,,WEEK 4,5,2025-04-19,28
STUDY001,LB,STUDY001-SUBJ0001,46,L00046,BUN,Blood Urea Nitrogen,CHEMISTRY,16.55,mg/dL,7.0,20.0,16.55,16.55,mg/dL,7.0,20.0,NORMAL,,WEEK 4,5,2025-04-19,28
STUDY001,LB,STUDY001-SUBJ0001,47,L00047,CREAT,Creatinine,CHEMISTRY,0.73,mg/dL,0.6,1.2,0.73,0.73,mg/dL,0.6,1.2,NORMAL,,WEEK 4,5,2025-04-19,28
STUDY001,LB,STUDY001-SUBJ0001,48,L00048,BILI,Total Bilirubin,CHEMISTRY,0.87,mg/dL,0.1,1.2,0.87,0.87,mg/dL,0.1,1.2,NORMAL,,WEEK 4,5,2025-04-19,28
STUDY001,LB,STUDY001-SUBJ0001,49,L00049,ALP,Alkaline Phosphatase,CHEMISTRY,136.11,U/L,44.0,147.0,136.11,136.11,U/L,44.0,147.0,NORMAL,,WEEK 4,5,2025-04-19,28
STUDY001,LB,STUDY001-SUBJ0001,50,L00050,ALT,Alanine Aminotransferase,CHEMISTRY,33.27,U/L,7.0,56.0,33.27,33.27,U/L,7.0,56.0,NORMAL,,WEEK 4,5,2025-04-19,28
STUDY001,LB,STUDY001-SUBJ0001,51,L00051,HGB,Hemoglobin,HEMATOLOGY,16.14,g/dL,13.5,17.5,16.14,16.14,g/dL,13.5,17.5,NORMAL,,WEEK 8,6,2025-05-17,56
STUDY001,LB,STUDY001-SUBJ0001,52,L00052,HCT,Hematocrit,HEMATOLOGY,47.46,%,41.0,51.0,47.46,47.46,%,41.0,51.0,NORMAL,,WEEK 8,6,2025-05-17,56
STUDY001,LB,STUDY001-SUBJ0001,53,L00053,WBC,White Blood Cell Count,HEMATOLOGY,4.62,10^9/L,4.5,11.0,4.62,4.62,10^9/L,4.5,11.0,NORMAL,,WEEK 8,6,2025-05-17,56
STUDY001,LB,STUDY001-SUBJ0001,54,L00054,PLT,Platelet Count,HEMATOLOGY,349.28,10^9/L,150.0,450.0,349.28,349.28,10^9/L,150.0,450.0,NORMAL,,WEEK 8,6,2025-05-17,56
STUDY001,LB,STUDY001-SUBJ0001,55,L00055,GLUC,Glucose,CHEMISTRY,77.41,mg/dL,70.0,100.0,77.41,77.41,mg/dL,70.0,100.0,NORMAL,,WEEK 8,6,2025-05-17,56
STUDY001,LB,STUDY001-SUBJ0001,56,L00056,BUN,Blood Urea Nitrogen,CHEMISTRY,16.82,mg/dL,7.0,20.0,16.82,16.82,mg/dL,7.0,20.0,NORMAL,,WEEK 8,6,2025-05-17,56
STUDY001,LB,STUDY001-SUBJ0001,57,L00057,CREAT,Creatinine,CHEMISTRY,0.76,mg/dL,0.6,1.2,0.76,0.76,mg/dL,0.6,1.2,NORMAL,,WEEK 8,6,2025-05-17,56
STUDY001,LB,STUDY001-SUBJ0001,58,L00058,BILI,Total Bilirubin,CHEMISTRY,0.89,mg/dL,0.1,1.2,0.89,0.89,mg/dL,0.1,1.2,NORMAL,,WEEK 8,6,2025-05-17,56
STUDY001,LB,STUDY001-SUBJ0001,59,L00059,ALP,Alkaline Phosphatase,CHEMISTRY,142.37,U/L,44.0,147.0,142.37,142.37,U/L,44.0,147.0,NORMAL,,WEEK 8,6,2025-05-17,56
STUDY001,LB,STUDY001-SUBJ0001,60,L00060,ALT,Alanine Aminotransferase,CHEMISTRY,31.48,U/L,7.0,56.0,31.48,31.48,U/L,7.0,56.0,NORMAL,,WEEK 8,6,2025-05-17,56
STUDY001,LB,STUDY001-SUBJ0001,61,L00061,HGB,Hemoglobin,HEMATOLOGY,16.19,g/dL,13.5,17.5,16.19,16.19,g/dL,13.5,17.5,NORMAL,,WEEK 12,7,2025-06-14,84
STUDY001,LB,STUDY001-SUBJ0001,62,L00062,HCT,Hematocrit,HEMATOLOGY,46.9,%,41.0,51.0,46.9,46.9,%,41.0,51.0,NORMAL,,WEEK 12,7,2025-06-14,84
STUDY001,LB,STUDY001-SUBJ0001,63,L00063,WBC,White Blood Cell Count,HEMATOLOGY,4.48,10^9/L,4.5,11.0,4.48,4.48,10^9/L,4.5,11.0,LOW,,WEEK 12,7,2025-06-14,84
STUDY001,LB,STUDY001-SUBJ0001,64,L00064,PLT,Platelet Count,HEMATOLOGY,340.97,10^9/L,150.0,450.0,340.97,340.97,10^9/L,150.0,450.0,NORMAL,,WEEK 12,7,2025-06-14,84
STUDY001,LB,STUDY001-SUBJ0001,65,L00065,GLUC,Glucose,CHEMISTRY,76.3,mg/dL,70.0,100.0,76.3,76.3,mg/dL,70.0,100.0,NORMAL,,WEEK 12,7,2025-06-14,84
STUDY001,LB,STUDY001-SUBJ0001,66,L00066,BUN,Blood Urea Nitrogen,CHEMISTRY,16.2,mg/dL,7.0,20.0,16.2,16.2,mg/dL,7.0,20.0,NORMAL,,WEEK 12,7,2025-06-14,84
STUDY001,LB,STUDY001-SUBJ0001,67,L00067,CREAT,Creatinine,CHEMISTRY,0.76,mg/dL,0.6,1.2,0.76,0.76,mg/dL,0.6,1.2,NORMAL,,WEEK 12,7,2025-06-14,84
STUDY001,LB,STUDY001-SUBJ0001,68,L00068,BILI,Total Bilirubin,CHEMISTRY,0.91,mg/dL,0.1,1.2,0.91,0.91,mg/dL,0.1,1.2,NORMAL,,WEEK 12,7,2025-06-14,84
STUDY001,LB,STUDY001-SUBJ0001,69,L00069,ALP,Alkaline Phosphatase,CHEMISTRY,140.19,U/L,44.0,147.0,140.19,140.19,U/L,44.0,147.0,NORMAL,,WEEK 12,7,2025-06-14,84
STUDY001,LB,STUDY001-SUBJ0001,70,L00070,ALT,Alanine Aminotransferase,CHEMISTRY,31.58,U/L,7.0,56.0,31.58,31.58,U/L,7.0,56.0,NORMAL,,WEEK 12,7,2025-06-14,84
STUDY001,LB,STUDY001-SUBJ0001,71,L00071,HGB,Hemoglobin,HEMATOLOGY,16.21,g/dL,13.5,17.5,16.21,16.21,g/dL,13.5,17.5,NORMAL,,WEEK 16,8,2025-07-12,112
STUDY001,LB,STUDY001-SUBJ0001,72,L00072,HCT,Hematocrit,HEMATOLOGY,46.84,%,41.0,51.0,46.84,46.84,%,41.0,51.0,NORMAL,,WEEK 16,8,2025-07-12,112
STUDY001,LB,STUDY001-SUBJ0001,73,L00073,WBC,White Blood Cell Count,HEMATOLOGY,4.46,10^9/L,4.5,11.0,4.46,4.46,10^9/L,4.5,11.0,LOW,,WEEK 16,8,2025-07-12,112
STUDY001,LB,STUDY001-SUBJ0001,74,L00074,PLT,Platelet Count,HEMATOLOGY,351.07,10^9/L,150.0,450.0,351.07,351.07,10^9/L,150.0,450.0,NORMAL,,WEEK 16,8,2025-07-12,112
STUDY001,LB,STUDY001-SUBJ0001,75,L00075,GLUC,Glucose,CHEMISTRY,75.55,mg/dL,70.0,100.0,75.55,75.55,mg/dL,70.0,100.0,NORMAL,,WEEK 16,8,2025-07-12,112
STUDY001,LB,STUDY001-SUBJ0001,76,L00076,BUN,Blood Urea Nitrogen,CHEMISTRY,16.17,mg/dL,7.0,20.0,16.17,16.17,mg/dL,7.0,20.0,NORMAL,,WEEK 16,8,2025-07-12,112
STUDY001,LB,STUDY001-SUBJ0001,77,L00077,CREAT,Creatinine,CHEMISTRY,0.78,mg/dL,0.6,1.2,0.78,0.78,mg/dL,0.6,1.2,NORMAL,,WEEK 16,8,2025-07-12,112
STUDY001,LB,STUDY001-SUBJ0001,78,L00078,BILI,Total Bilirubin,CHEMISTRY,0.88,mg/dL,0.1,1.2,0.88,0.88,mg/dL,0.1,1.2,NORMAL,,WEEK 16,8,2025-07-12,112
STUDY001,LB,STUDY001-SUBJ0001,79,L00079,ALP,Alkaline Phosphatase,CHEMISTRY,138.07,U/L,44.0,147.0,138.07,138.07,U/L,44.0,147.0,NORMAL,,WEEK 16,8,2025-07-12,112
STUDY001,LB,STUDY001-SUBJ0001,80,L00080,ALT,Alanine Aminotransferase,CHEMISTRY,33.3,U/L,7.0,56.0,33.3,33.3,U/L,7.0,56.0,NORMAL,,WEEK 16,8,2025-07-12,112
STUDY001,LB,STUDY001-SUBJ0001,81,L00081,HGB,Hemoglobin,HEMATOLOGY,16.18,g/dL,13.5,17.5,16.18,16.18,g/dL,13.5,17.5,NORMAL,,END OF TREATMENT,9,2025-08-09,140
STUDY001,LB,STUDY001-SUBJ0001,82,L00082,HCT,Hematocrit,HEMATOLOGY,47.48,%,41.0,51.0,47.48,47.48,%,41.0,51.0,NORMAL,,END OF TREATMENT,9,2025-08-09,140
STUDY001,LB,STUDY001-SUBJ0001,83,L00083,WBC,White Blood Cell Count,HEMATOLOGY,4.52,10^9/L,4.5,11.0,4.52,4.52,10^9/L,4.5,11.0,NORMAL,,END OF TREATMENT,9,2025-08-09,140
STUDY001,LB,STUDY001-SUBJ0001,84,L00084,PLT,Platelet Count,HEMATOLOGY,338.23,10^9/L,150.0,450.0,338.23,338.23,10^9/L,150.0,450.0,NORMAL,,END OF TREATMENT,9,2025-08-09,140
STUDY001,LB,STUDY001-SUBJ0001,85,L00085,GLUC,Glucose,CHEMISTRY,78.01,mg/dL,70.0,100.0,78.01,78.01,mg/dL,70.0,100.0,NORMAL,,END OF TREATMENT,9,2025-08-09,140
STUDY001,LB,STUDY001-SUBJ0001,86,L00086,BUN,Blood Urea Nitrogen,CHEMISTRY,17.06,mg/dL,7.0,20.0,17.06,17.06,mg/dL,7.0,20.0,NORMAL,,END OF TREATMENT,9,2025-08-09,140
STUDY001,LB,STUDY001-SUBJ0001,87,L00087,CREAT,Creatinine,CHEMISTRY,0.78,mg/dL,0.6,1.2,0.78,0.78,mg/dL,0.6,1.2,NORMAL,,END OF TREATMENT,9,2025-08-09,140
STUDY001,LB,STUDY001-SUBJ0001,88,L00088,BILI,Total Bilirubin,CHEMISTRY,0.92,mg/dL,0.1,1.2,0.92,0.92,mg/dL,0.1,1.2,NORMAL,,END OF TREATMENT,9,2025-08-09,140
STUDY001,LB,STUDY001-SUBJ0001,89,L00089,ALP,Alkaline Phosphatase,CHEMISTRY,138.72,U/L,44.0,147.0,138.72,138.72,U/L,44.0,147.0,NORMAL,,END OF TREATMENT,9,2025-08-09,140
STUDY001,LB,STUDY001-SUBJ0001,90,L00090,ALT,Alanine Aminotransferase,CHEMISTRY,33.61,U/L,7.0,56.0,33.61,33.61,U/L,7.0,56.0,NORMAL,,END OF TREATMENT,9,2025-08-09,140
STUDY001,LB,STUDY001-SUBJ0002,1,L00001,HGB,Hemoglobin,HEMATOLOGY,15.44,g/dL,13.5,17.5,15.44,15.44,g/dL,13.5,17.5,NORMAL,,SCREENING,1,2025-03-04,-14
STUDY001,LB,STUDY001-SUBJ0002,2,L00002,HCT,Hematocrit,HEMATOLOGY,43.1,%,41.0,51.0,43.1,43.1,%,41.0,51.0,NORMAL,,SCREENING,1,2025-03-04,-14
STUDY001,LB,STUDY001-SUBJ0002,3,L00003,WBC,White Blood Cell Count,HEMATOLOGY,4.89,10^9/L,4.5,11.0,4.89,4.89,10^9/L,4.5,11.0,NORMAL,,SCREENING,1,2025-03-04,-14
STUDY001,LB,STUDY001-SUBJ0002,4,L00004,PLT,Platelet Count,HEMATOLOGY,221.95,10^9/L,150.0,450.0,221.95,221.95,10^9/L,150.0,450.0,NORMAL,,SCREENING,1,2025-03-04,-14
STUDY001,LB,STUDY001-SUBJ0002,5,L00005,GLUC,Glucose,CHEMISTRY,84.77,mg/dL,70.0,100.0,84.77,84.77,mg/dL,70.0,100.0,NORMAL,,SCREENING,1,2025-03-04,-14
STUDY001,LB,STUDY001-SUBJ0002,6,L00006,BUN,Blood Urea Nitrogen,CHEMISTRY,9.14,mg/dL,7.0,20.0,9.14,9.14,mg/dL,7.0,20.0,NORMAL,,SCREENING,1,2025-03-04,-14
STUDY001,LB,STUDY001-SUBJ0002,7,L00007,CREAT,Creatinine,CHEMISTRY,0.9,mg/dL,0.6,1.2,0.9,0.9,mg/dL,0.6,1.2,NORMAL,,SCREENING,1,2025-03-04,-14
STUDY001,LB,STUDY001-SUBJ0002,8,L00008,BILI,Total Bilirubin,CHEMISTRY,0.93,mg/dL,0.1,1.2,0.93,0.93,mg/dL,0.1,1.2,NORMAL,,SCREENING,1,2025-03-04,-14
STUDY001,LB,STUDY001-SUBJ0002,9,L00009,ALP,Alkaline Phosphatase,CHEMISTRY,113.29,U/L,44.0,147.0,113.29,113.29,U/L,44.0,147.0,NORMAL,,SCREENING,1,2025-03-04,-14
STUDY001,LB,STUDY001-SUBJ0002,10,L00010,ALT,Alanine Aminotransferase,CHEMISTRY,24.93,U/L,7.0,56.0,24.93,24.93,U/L,7.0,56.0,NORMAL,,SCREENING,1,2025-03-04,-14
STUDY001,LB,STUDY001-SUBJ0002,11,L00011,HGB,Hemoglobin,HEMATOLOGY,15.4,g/dL,13.5,17.5,15.4,15.4,g/dL,13.5,17.5,NORMAL,Y,BASELINE,2,2025-03-18,1
STUDY001,LB,STUDY001-SUBJ0002,12,L00012,HCT,Hematocrit,HEMATOLOGY,43.01,%,41.0,51.0,43.01,43.01,%,41.0,51.0,NORMAL,Y,BASELINE,2,2025-03-18,1
STUDY001,LB,STUDY001-SUBJ0002,13,L00013,WBC,White Blood Cell Count,HEMATOLOGY,4.71,10^9/L,4.5,11.0,4.71,4.71,10^9/L,4.5,11.0,NORMAL,Y,BASELINE,2,2025-03-18,1
STUDY001,LB,STUDY001-SUBJ0002,14,L00014,PLT,Platelet Count,HEMATOLOGY,219.87,10^9/L,150.0,450.0,219.87,219.87,10^9/L,150.0,450.0,NORMAL,Y,BASELINE,2,2025-03-18,1
STUDY001,LB,STUDY001-SUBJ0002,15,L00015,GLUC,Glucose,CHEMISTRY,86.48,mg/dL,70.0,100.0,86.48,86.48,mg/dL,70.0,100.0,NORMAL,Y,BASELINE,2,2025-03-18,1
STUDY001,LB,STUDY001-SUBJ0002,16,L00016,BUN,Blood Urea Nitrogen,CHEMISTRY,9.17,mg/dL,7.0,20.0,9.17,9.17,mg/dL,7.0,20.0,NORMAL,Y,BASELINE,2,2025-03-18,1
STUDY001,LB,STUDY001-SUBJ0002,17,L00017,CREAT,Creatinine,CHEMISTRY,0.91,mg/dL,0.6,1.2,0.91,0.91,mg/dL,0.6,1.2,NORMAL,Y,BASELINE,2,2025-03-18,1
STUDY001,LB,STUDY001-SUBJ0002,18,L00018,BILI,Total Bilirubin,CHEMISTRY,0.99,mg/dL,0.1,1.2,0.99,0.99,mg/dL,0.1,1.2,NORMAL,Y,BASELINE,2,2025-03-18,1
STUDY001,LB,STUDY001-SUBJ0002,19,L00019,ALP,Alkaline Phosphatase,CHEMISTRY,116.23,U/L,44.0,147.0,116.23,116.23,U/L,44.0,147.0,NORMAL,Y,BASELINE,2,2025-03-18,1
STUDY001,LB,STUDY001-SUBJ0002,20,L00020,ALT,Alanine Aminotransferase,CHEMISTRY,25.08,U/L,7.0,56.0,25.08,25.08,U/L,7.0,56.0,NORMAL,Y,BASELINE,2,2025-03-18,1
STUDY001,LB,STUDY001-SUBJ0002,21,L00021,HGB,Hemoglobin,HEMATOLOGY,15.45,g/dL,13.5,17.5,15.45,15.45,g/dL,13.5,17.5,NORMAL,,WEEK 1,3,2025-03-24,7
STUDY001,LB,STUDY001-SUBJ0002,22,L00022,HCT,Hematocrit,HEMATOLOGY,43.12,%,41.0,51.0,43.12,43.12,%,41.0,51.0,NORMAL,,WEEK 1,3,2025-03-24,7
STUDY001,LB,STUDY001-SUBJ0002,23,L00023,WBC,White Blood Cell Count,HEMATOLOGY,4.42,10^9/L,4.5,11.0,4.42,4.42,10^9/L,4.5,11.0,LOW,,WEEK 1,3,2025-03-24,7
STUDY001,LB,STUDY001-SUBJ0002,24,L00024,PLT,Platelet Count,HEMATOLOGY,224.48,10^9/L,150.0,450.0,224.48,224.48,10^9/L,150.0,450.0,NORMAL,,WEEK 1,3,2025-03-24,7
STUDY001,LB,STUDY001-SUBJ0002,25,L00025,GLUC,Glucose,CHEMISTRY,83.86,mg/dL,70.0,100.0,83.86,83.86,mg/dL,70.0,100.0,NORMAL,,WEEK 1,3,2025-03-24,7
STUDY001,LB,STUDY001-SUBJ0002,26,L00026,BUN,Blood Urea Nitrogen,CHEMISTRY,9.3,mg/dL,7.0,20.0,9.3,9.3,mg/dL,7.0,20.0,NORMAL,,WEEK 1,3,2025-03-24,7
STUDY001,LB,STUDY001-SUBJ0002,27,L00027,CREAT,Creatinine,CHEMISTRY,0.9,mg/dL,0.6,1.2,0.9,0.9,mg/dL,0.6,1.2,NORMAL,,WEEK 1,3,2025-03-24,7
STUDY001,LB,STUDY001-SUBJ0002,28,L00028,BILI,Total Bilirubin,CHEMISTRY,0.94,mg/dL,0.1,1.2,0.94,0.94,mg/dL,0.1,1.2,NORMAL,,WEEK 1,3,2025-03-24,7
STUDY001,LB,STUDY001-SUBJ0002,29,L00029,ALP,Alkaline Phosphatase,CHEMISTRY,116.25,U/L,44.0,147.0,116.25,116.25,U/L,44.0,147.0,NORMAL,,WEEK 1,3,2025-03-24,7
STUDY001,LB,STUDY001-SUBJ0002,30,L00030,ALT,Alanine Aminotransferase,CHEMISTRY,27.29,U/L,7.0,56.0,27.29,27.29,U/L,7.0,56.0,NORMAL,,WEEK 1,3,2025-03-24,7
STUDY001,LB,STUDY001-SUBJ0002,31,L00031,HGB,Hemoglobin,HEMATOLOGY,15.65,g/dL,13.5,17.5,15.65,15.65,g/dL,13.5,17.5,NORMAL,,WEEK 2,4,2025-03-31,14
STUDY001,LB,STUDY001-SUBJ0002,32,L00032,HCT,Hematocrit,HEMATOLOGY,43.24,%,41.0,51.0,43.24,43.24,%,41.0,51.0,NORMAL,,WEEK 2,4,2025-03-31,14
STUDY001,LB,STUDY001-SUBJ0002,33,L00033,WBC,White Blood Cell Count,HEMATOLOGY,4.57,10^9/L,4.5,11.0,4.57,4.57,10^9/L,4.5,11.0,NORMAL,,WEEK 2,4,2025-03-31,14
STUDY001,LB,STUDY001-SUBJ0002,34,L00034,PLT,Platelet Count,HEMATOLOGY,222.47,10^9/L,150.0,450.0,222.47,222.47,10^9/L,150.0,450.0,NORMAL,,WEEK 2,4,2025-03-31,14
STUDY001,LB,STUDY001-SUBJ0002,35,L00035,GLUC,Glucose,CHEMISTRY,86.46,mg/dL,70.0,100.0,86.46,86.46,mg/dL,70.0,100.0,NORMAL,,WEEK 2,4,2025-03-31,14
STUDY001,LB,STUDY001-SUBJ0002,36,L00036,BUN,Blood Urea Nitrogen,CHEMISTRY,9.68,mg/dL,7.0,20.0,9.68,9.68,mg/dL,7.0,20.0,NORMAL,,WEEK 2,4,2025-03-31,14
STUDY001,LB,STUDY001-SUBJ0002,37,L00037,CREAT,Creatinine,CHEMISTRY,0.9,mg/dL,0.6,1.2,0.9,0.9,mg/dL,0.6,1.2,NORMAL,,WEEK 2,4,2025-03-31,14
STUDY001,LB,STUDY001-SUBJ0002,38,L00038,BILI,Total Bilirubin,CHEMISTRY,0.96,mg/dL,0.1,1.2,0.96,0.96,mg/dL,0.1,1.2,NORMAL,,WEEK 2,4,2025-03-31,14
STUDY001,LB,STUDY001-SUBJ0002,39,L00039,ALP,Alkaline Phosphatase,CHEMISTRY,113.31,U/L,44.0,147.0,113.31,113.31,U/L,44.0,147.0,NORMAL,,WEEK 2,4,2025-03-31,14
STUDY001,LB,STUDY001-SUBJ0002,40,L00040,ALT,Alanine Aminotransferase,CHEMISTRY,26.94,U/L,7.0,56.0,26.94,26.94,U/L,7.0,56.0,NORMAL,,WEEK 2,4,2025-03-31,14
STUDY001,LB,STUDY001-SUBJ0002,41,L00041,HGB,Hemoglobin,HEMATOLOGY,15.42,g/dL,13.5,17.5,15.42,15.42,g/dL,13.5,17.5,NORMAL,,WEEK 4,5,2025-04-14,28
STUDY001,LB,STUDY001-SUBJ0002,42,L00042,HCT,Hematocrit,HEMATOLOGY,42.99,%,41.0,51.0,42.99,42.99,%,41.0,51.0,NORMAL,,WEEK 4,5,2025-04-14,28
STUDY001,LB,STUDY001-SUBJ0002,43,L00043,WBC,White Blood Cell Count,HEMATOLOGY,4.55,10^9/L,4.5,11.0,4.55,4.55,10^9/L,4.5,11.0,NORMAL,,WEEK 4,5,2025-04-14,28
STUDY001,LB,STUDY001-SUBJ0002,44,L00044,PLT,Platelet Count,HEMATOLOGY,218.09,10^9/L,150.0,450.0,218.09,218.09,10^9/L,150.0,450.0,NORMAL,,WEEK 4,5,2025-04-14,28
STUDY001,LB,STUDY001-SUBJ0002,45,L00045,GLUC,Glucose,CHEMISTRY,84.11,mg/dL,70.0,100.0,84.11,84.11,mg/dL,70.0,100.0,NORMAL,,WEEK 4,5,2025-04-14,28
STUDY001,LB,STUDY001-SUBJ0002,46,L00046,BUN,Blood Urea Nitrogen,CHEMISTRY,9.98,mg/dL,7.0,20.0,9.98,9.98,mg/dL,7.0,20.0,NORMAL,,WEEK 4,5,2025-04-14,28
STUDY001,LB,STUDY001-SUBJ0002,47,L00047,CREAT,Creatinine,CHEMISTRY,0.9,mg/dL,0.6,1.2,0.9,0.9,mg/dL,0.6,1.2,NORMAL,,WEEK 4,5,2025-04-14,28
STUDY001,LB,STUDY001-SUBJ0002,48,L00048,BILI,Total Bilirubin,CHEMISTRY,0.96,mg/dL,0.1,1.2,0.96,0.96,mg/dL,0.1,1.2,NORMAL,,WEEK 4,5,2025-04-14,28
STUDY001,LB,STUDY001-SUBJ0002,49,L00049,ALP,Alkaline Phosphatase,CHEMISTRY,110.82,U/L,44.0,147.0,110.82,110.82,U/L,44.0,147.0,NORMAL,,WEEK 4,5,2025-04-14,28
STUDY001,LB,STUDY001-SUBJ0002,50,L00050,ALT,Alanine Aminotransferase,CHEMISTRY,26.97,U/L,7.0,56.0,26.97,26.97,U/L,7.0,56.0,NORMAL,,WEEK 4,5,2025-04-14,28
STUDY001,LB,STUDY001-SUBJ0002,51,L00051,HGB,Hemoglobin,HEMATOLOGY,15.49,g/dL,13.5,17.5,15.49,15.49,g/dL,13.5,17.5,NORMAL,,WEEK 8,6,2025-05-12,56
STUDY001,LB,STUDY001-SUBJ0002,52,L00052,HCT,Hematocrit,HEMATOLOGY,43.27,%,41.0,51.0,43.27,43.27,%,41.0,51.0,NORMAL,,WEEK 8,6,2025-05-12,56
STUDY001,LB,STUDY001-SUBJ0002,53,L00053,WBC,White Blood Cell Count,HEMATOLOGY,4.66,10^9/L,4.5,11.0,4.66,4.66,10^9/L,4.5,11.0,NORMAL,,WEEK 8,6,2025-05-12,56
STUDY001,LB,STUDY001-SUBJ0002,54,L00054,PLT,Platelet Count,HEMATOLOGY,218.92,10^9/L,150.0,450.0,218.92,218.92,10^9/L,150.0,450.0,NORMAL,,WEEK 8,6,2025-05-12,56
STUDY001,LB,STUDY001-SUBJ0002,55,L00055,GLUC,Glucose,CHEMISTRY,85.96,mg/dL,70.0,100.0,85.96,85.96,mg/dL,70.0,100.0,NORMAL,,WEEK 8,6,2025-05-12,56
STUDY001,LB,STUDY001-SUBJ0002,56,L00056,BUN,Blood Urea Nitrogen,CHEMISTRY,9.42,mg/dL,7.0,20.0,9.42,9.42,mg/dL,7.0,20.0,NORMAL,,WEEK 8,6,2025-05-12,56
STUDY001,LB,STUDY001-SUBJ0002,57,L00057,CREAT,Creatinine,CHEMISTRY,0.9,mg/dL,0.6,1.2,0.9,0.9,mg/dL,0.6,1.2,NORMAL,,WEEK 8,6,2025-05-12,56
STUDY001,LB,STUDY001-SUBJ0002,58,L00058,BILI,Total Bilirubin,CHEMISTRY,0.98,mg/dL,0.1,1.2,0.98,0.98,mg/dL,0.1,1.2,NORMAL,,WEEK 8,6,2025-05-12,56
STUDY001,LB,STUDY001-SUBJ0002,59,L00059,ALP,Alkaline Phosphatase,CHEMISTRY,114.58,U/L,44.0,147.0,114.58,114.58,U/L,44.0,147.0,NORMAL,,WEEK 8,6,2025-05-12,56
STUDY001,LB,STUDY001-SUBJ0002,60,L00060,ALT,Alanine Aminotransferase,CHEMISTRY,26.81,U/L,7.0,56.0,26.81,26.81,U/L,7.0,56.0,NORMAL,,WEEK 8,6,2025-05-12,56
STUDY001,LB,STUDY001-SUBJ0002,61,L00061,HGB,Hemoglobin,HEMATOLOGY,15.41,g/dL,13.5,17.5,15.41,15.41,g/dL,13.5,17.5,NORMAL,,WEEK 12,7,2025-06-09,84
STUDY001,LB,STUDY001-SUBJ0002,62,L00062,HCT,Hematocrit,HEMATOLOGY,42.98,%,41.0,51.0,42.98,42.98,%,41.0,51.0,NORMAL,,WEEK 12,7,2025-06-09,84
STUDY001,LB,STUDY001-SUBJ0002,63,L00063,WBC,White Blood Cell Count,HEMATOLOGY,4.61,10^9/L,4.5,11.0,4.61,4.61,10^9/L,4.5,11.0,NORMAL,,WEEK 12,7,2025-06-09,84
STUDY001,LB,STUDY001-SUBJ0002,64,L00064,PLT,Platelet Count,HEMATOLOGY,219.45,10^9/L,150.0,450.0,219.45,219.45,10^9/L,150.0,450.0,NORMAL,,WEEK 12,7,2025-06-09,84
STUDY001,LB,STUDY001-SUBJ0002,65,L00065,GLUC,Glucose,CHEMISTRY,84.24,mg/dL,70.0,100.0,84.24,84.24,mg/dL,70.0,100.0,NORMAL,,WEEK 12,7,2025-06-09,84
STUDY001,LB,STUDY001-SUBJ0002,66,L00066,BUN,Blood Urea Nitrogen,CHEMISTRY,9.41,mg/dL,7.0,20.0,9.41,9.41,mg/dL,7.0,20.0,NORMAL,,WEEK 12,7,2025-06-09,84
STUDY001,LB,STUDY001-SUBJ0002,67,L00067,CREAT,Creatinine,CHEMISTRY,0.92,mg/dL,0.6,1.2,0.92,0.92,mg/dL,0.6,1.2,NORMAL,,WEEK 12,7,2025-06-09,84
STUDY001,LB,STUDY001-SUBJ0002,68,L00068,BILI,Total Bilirubin,CHEMISTRY,0.94,mg/dL,0.1,1.2,0.94,0.94,mg/dL,0.1,1.2,NORMAL,,WEEK 12,7,2025-06-09,84
STUDY001,LB,STUDY001-SUBJ0002,69,L00069,ALP,Alkaline Phosphatase,CHEMISTRY,114.86,U/L,44.0,147.0,114.86,114.86,U/L,44.0,147.0,NORMAL,,WEEK 12,7,2025-06-09,84
STUDY001,LB,STUDY001-SUBJ0002,70,L00070,ALT,Alanine Aminotransferase,CHEMISTRY,26.3,U/L,7.0,56.0,26.3,26.3,U/L,7.0,56.0,NORMAL,,WEEK 12,7,2025-06-09,84
STUDY001,LB,STUDY001-SUBJ0002,71,L00071,HGB,Hemoglobin,HEMATOLOGY,15.46,g/dL,13.5,17.5,15.46,15.46,g/dL,13.5,17.5,NORMAL,,WEEK 16,8,2025-07-07,112
STUDY001,LB,STUDY001-SUBJ0002,72,L00072,HCT,Hematocrit,HEMATOLOGY,43.27,%,41.0,51.0,43.27,43.27,%,41.0,51.0,NORMAL,,WEEK 16,8,2025-07-07,112
STUDY001,LB,STUDY001-SUBJ0002,73,L00073,WBC,White Blood Cell Count,HEMATOLOGY,4.73,10^9/L,4.5,11.0,4.73,4.73,10^9/L,4.5,11.0,NORMAL,,WEEK 16,8,2025-07-07,112
STUDY001,LB,STUDY001-SUBJ0002,74,L00074,PLT,Platelet Count,HEMATOLOGY,221.4,10^9/L,150.0,450.0,221.4,221.4,10^9/L,150.0,450.0,NORMAL,,WEEK 16,8,2025-07-07,112
STUDY001,LB,STUDY001-SUBJ0002,75,L00075,GLUC,Glucose,CHEMISTRY,85.14,mg/dL,70.0,100.0,85.14,85.14,mg/dL,70.0,100.0,NORMAL,,WEEK 16,8,2025-07-07,112
STUDY001,LB,STUDY001-SUBJ0002,76,L00076,BUN,Blood Urea Nitrogen,CHEMISTRY,9.92,mg/dL,7.0,20.0,9.92,9.92,mg/dL,7.0,20.0,NORMAL,,WEEK 16,8,2025-07-07,112
STUDY001,LB,STUDY001-SUBJ0002,77,L00077,CREAT,Creatinine,CHEMISTRY,0.9,mg/dL,0.6,1.2,0.9,0.9,mg/dL,0.6,1.2,NORMAL,,WEEK 16,8,2025-07-07,112
STUDY001,LB,STUDY001-SUBJ0002,78,L00078,BILI,Total Bilirubin,CHEMISTRY,1.0,mg/dL,0.1,1.2,1.0,1.0,mg/dL,0.1,1.2,NORMAL,,WEEK 16,8,2025-07-07,112
STUDY001,LB,STUDY001-SUBJ0002,79,L00079,ALP,Alkaline Phosphatase,CHEMISTRY,113.3,U/L,44.0,147.0,113.3,113.3,U/L,44.0,147.0,NORMAL,,WEEK 16,8,2025-07-07,112
STUDY001,LB,STUDY001-SUBJ0002,80,L00080,ALT,Alanine Aminotransferase,CHEMISTRY,25.63,U/L,7.0,56.0,25.63,25.63,U/L,7.0,56.0,NORMAL,,WEEK 16,8,2025-07-07,112
STUDY001,LB,STUDY001-SUBJ0002,81,L00081,HGB,Hemoglobin,HEMATOLOGY,15.42,g/dL,13.5,17.5,15.42,15.42,g/dL,13.5,17.5,NORMAL,,END OF TREATMENT,9,2025-08-04,140
STUDY001,LB,STUDY001-SUBJ0002,82,L00082,HCT,Hematocrit,HEMATOLOGY,43.04,%,41.0,51.0,43.04,43.04,%,41.0,51.0,NORMAL,,END OF TREATMENT,9,2025-08-04,140
STUDY001,LB,STUDY001-SUBJ0002,83,L00083,WBC,White Blood Cell Count,HEMATOLOGY,4.43,10^9/L,4.5,11.0,4.43,4.43,10^9/L,4.5,11.0,LOW,,END OF TREATMENT,9,2025-08-04,140
STUDY001,LB,STUDY001-SUBJ0002,84,L00084,PLT,Platelet Count,HEMATOLOGY,221.1,10^9/L,150.0,450.0,221.1,221.1,10^9/L,150.0,450.0,NORMAL,,END OF TREATMENT,9,2025-08-04,140
STUDY001,LB,STUDY001-SUBJ0002,85,L00085,GLUC,Glucose,CHEMISTRY,85.06,mg/dL,70.0,100.0,85.06,85.06,mg/dL,70.0,100.0,NORMAL,,END OF TREATMENT,9,2025-08-04,140
STUDY001,LB,STUDY001-SUBJ0002,86,L00086,BUN,Blood Urea Nitrogen,CHEMISTRY,9.65,mg/dL,7.0,20.0,9.65,9.65,mg/dL,7.0,20.0,NORMAL,,END OF TREATMENT,9,2025-08-04,140
STUDY001,LB,STUDY001-SUBJ0002,87,L00087,CREAT,Creatinine,CHEMISTRY,0.9,mg/dL,0.6,1.2,0.9,0.9,mg/dL,0.6,1.2,NORMAL,,END OF TREATMENT,9,2025-08-04,140
STUDY001,LB,STUDY001-SUBJ0002,88,L00088,BILI,Total Bilirubin,CHEMISTRY,0.94,mg/dL,0.1,1.2,0.94,0.94,mg/dL,0.1,1.2,NORMAL,,END OF TREATMENT,9,2025-08-04,140
STUDY001,LB,STUDY001-SUBJ0002,89,L00089,ALP,Alkaline Phosphatase,CHEMISTRY,115.67,U/L,44.0,147.0,115.67,115.67,U/L,44.0,147.0,NORMAL,,END OF TREATMENT,9,2025-08-04,140
STUDY001,LB,STUDY001-SUBJ0002,90,L00090,ALT,Alanine Aminotransferase,CHEMISTRY,27.08,U/L,7.0,56.0,27.08,27.08,U/L,7.0,56.0,NORMAL,,END OF TREATMENT,9,2025-08-04,140
STUDY001,LB,STUDY001-SUBJ0003,1,L00001,HGB,Hemoglobin,HEMATOLOGY,14.2,g/dL,13.5,17.5,14.2,14.2,g/dL,13.5,17.5,NORMAL,,SCREENING,1,2025-05-07,-14
STUDY001,LB,STUDY001-SUBJ0003,2,L00002,HCT,Hematocrit,HEMATOLOGY,45.2,%,41.0,51.0,45.2,45.2,%,41.0,51.0,NORMAL,,SCREENING,1,2025-05-07,-14
STUDY001,LB,STUDY001-SUBJ0003,3,L00003,WBC,White Blood Cell Count,HEMATOLOGY,6.31,10^9/L,4.5,11.0,6.31,6.31,10^9/L,4.5,11.0,NORMAL,,SCREENING,1,2025-05-07,-14
STUDY001,LB,STUDY001-SUBJ0003,4,L00004,PLT,Platelet Count,HEMATOLOGY,320.33,10^9/L,150.0,450.0,320.33,320.33,10^9/L,150.0,450.0,NORMAL,,SCREENING,1,2025-05-07,-14
STUDY001,LB,STUDY001-SUBJ0003,5,L00005,GLUC,Glucose,CHEMISTRY,87.87,mg/dL,70.0,100.0,87.87,87.87,mg/dL,70.0,100.0,NORMAL,,SCREENING,1,2025-05-07,-14
STUDY001,LB,STUDY001-SUBJ0003,6,L00006,BUN,Blood Urea Nitrogen,CHEMISTRY,14.16,mg/dL,7.0,20.0,14.16,14.16,mg/dL,7.0,20.0,NORMAL,,SCREENING,1,2025-05-07,-14
STUDY001,LB,STUDY001-SUBJ0003,7,L00007,CREAT,Creatinine,CHEMISTRY,0.96,mg/dL,0.6,1.2,0.96,0.96,mg/dL,0.6,1.2,NORMAL,,SCREENING,1,2025-05-07,-14
STUDY001,LB,STUDY001-SUBJ0003,8,L00008,BILI,Total Bilirubin,CHEMISTRY,0.35,mg/dL,0.1,1.2,0.35,0.35,mg/dL,0.1,1.2,NORMAL,,SCREENING,1,2025-05-07,-14
STUDY001,LB,STUDY001-SUBJ0003,9,L00009,ALP,Alkaline Phosphatase,CHEMISTRY,127.35,U/L,44.0,147.0,127.35,127.35,U/L,44.0,147.0,NORMAL,,SCREENING,1,2025-05-07,-14
STUDY001,LB,STUDY001-SUBJ0003,10,L00010,ALT,Alanine Aminotransferase,CHEMISTRY,17.58,U/L,7.0,56.0,17.58,17.58,U/L,7.0,56.0,NORMAL,,SCREENING,1,2025-05-07,-14
STUDY001,LB,STUDY001-SUBJ0003,11,L00011,HGB,Hemoglobin,HEMATOLOGY,14.26,g/dL,13.5,17.5,14.26,14.26,g/dL,13.5,17.5,NORMAL,Y,BASELINE,2,2025-05-21,1
STUDY001,LB,STUDY001-SUBJ0003,12,L00012,HCT,Hematocrit,HEMATOLOGY,45.39,%,41.0,51.0,45.39,45.39,%,41.0,51.0,NORMAL,Y,BASELINE,2,2025-05-21,1
STUDY001,LB,STUDY001-SUBJ0003,13,L00013,WBC,White Blood Cell Count,HEMATOLOGY,6.78,10^9/L,4.5,11.0,6.78,6.78,10^9/L,4.5,11.0,NORMAL,Y,BASELINE,2,2025-05-21,1
STUDY001,LB,STUDY001-SUBJ0003,14,L00014,PLT,Platelet Count,HEMATOLOGY,306.46,10^9/L,150.0,450.0,306.46,306.46,10^9/L,150.0,450.0,NORMAL,Y,BASELINE,2,2025-05-21,1
STUDY001,LB,STUDY001-SUBJ0003,15,L00015,GLUC,Glucose,CHEMISTRY,84.97,mg/dL,70.0,100.0,84.97,84.97,mg/dL,70.0,100.0,NORMAL,Y,BASELINE,2,2025-05-21,1
STUDY001,LB,STUDY001-SUBJ0003,16,L00016,BUN,Blood Urea Nitrogen,CHEMISTRY,13.66,mg/dL,7.0,20.0,13.66,13.66,mg/dL,7.0,20.0,NORMAL,Y,BASELINE,2,2025-05-21,1
STUDY001,LB,STUDY001-SUBJ0003,17,L00017,CREAT,Creatinine,CHEMISTRY,1.02,mg/dL,0.6,1.2,1.02,1.02,mg/dL,0.6,1.2,NORMAL,Y,BASELINE,2,2025-05-21,1
STUDY001,LB,STUDY001-SUBJ0003,18,L00018,BILI,Total Bilirubin,CHEMISTRY,0.35,mg/dL,0.1,1.2,0.35,0.35,mg/dL,0.1,1.2,NORMAL,Y,BASELINE,2,2025-05-21,1
STUDY001,LB,STUDY001-SUBJ0003,19,L00019,ALP,Alkaline Phosphatase,CHEMISTRY,133.04,U/L,44.0,147.0,133.04,133.04,U/L,44.0,147.0,NORMAL,Y,BASELINE,2,2025-05-21,1
STUDY001,LB,STUDY001-SUBJ0003,20,L00020,ALT,Alanine Aminotransferase,CHEMISTRY,15.33,U/L,7.0,56.0,15.33,15.33,U/L,7.0,56.0,NORMAL,Y,BASELINE,2,2025-05-21,1
STUDY001,LB,STUDY001-SUBJ0003,21,L00021,HGB,Hemoglobin,HEMATOLOGY,14.41,g/dL,13.5,17.5,14.41,14.41,g/dL,13.5,17.5,NORMAL,,WEEK 1,3,2025-05-27,7
STUDY001,LB,STUDY001-SUBJ0003,22,L00022,HCT,Hematocrit,HEMATOLOGY,44.85,%,41.0,51.0,44.85,44.85,%,41.0,51.0,NORMAL,,WEEK 1,3,2025-05-27,7
STUDY001,LB,STUDY001-SUBJ0003,23,L00023,WBC,White Blood Cell Count,HEMATOLOGY,6.7,10^9/L,4.5,11.0,6.7,6.7,10^9/L,4.5,11.0,NORMAL,,WEEK 1,3,2025-05-27,7
STUDY001,LB,STUDY001-SUBJ0003,24,L00024,PLT,Platelet Count,HEMATOLOGY,311.7,10^9/L,150.0,450.0,311.7,311.7,10^9/L,150.0,450.0,NORMAL,,WEEK 1,3,2025-05-27,7
STUDY001,LB,STUDY001-SUBJ0003,25,L00025,GLUC,Glucose,CHEMISTRY,86.65,mg/dL,70.0,100.0,86.65,86.65,mg/dL,70.0,100.0,NORMAL,,WEEK 1,3,2025-05-27,7
STUDY001,LB,STUDY001-SUBJ0003,26,L00026,BUN,Blood Urea Nitrogen,CHEMISTRY,13.72,mg/dL,7.0,20.0,13.72,13.72,mg/dL,7.0,20.0,NORMAL,,WEEK 1,3,2025-05-27,7
STUDY001,LB,STUDY001-SUBJ0003,27,L00027,CREAT,Creatinine,CHEMISTRY,0.99,mg/dL,0.6,1.2,0.99,0.99,mg/dL,0.6,1.2,NORMAL,,WEEK 1,3,2025-05-27,7
STUDY001,LB,STUDY001-SUBJ0003,28,L00028,BILI,Total Bilirubin,CHEMISTRY,0.39,mg/dL,0.1,1.2,0.39,0.39,mg/dL,0.1,1.2,NORMAL,,WEEK 1,3,2025-05-27,7
STUDY001,LB,STUDY001-SUBJ0003,29,L00029,ALP,Alkaline Phosphatase,CHEMISTRY,124.6,U/L,44.0,147.0,124.6,124.6,U/L,44.0,147.0,NORMAL,,WEEK 1,3,2025-05-27,7
STUDY001,LB,STUDY001-SUBJ0003,30,L00030,ALT,Alanine Aminotransferase,CHEMISTRY,14.21,U/L,7.0,56.0,14.21,14.21,U/L,7.0,56.0,NORMAL,,WEEK 1,3,2025-05-27,7
STUDY001,LB,STUDY001-SUBJ0003,31,L00031,HGB,Hemoglobin,HEMATOLOGY,14.09,g/dL,13.5,17.5,14.09,14.09,g/dL,13.5,17.5,NORMAL,,WEEK 2,4,2025-06-03,14
STUDY001,LB,STUDY001-SUBJ0003,32,L00032,HCT,Hematocrit,HEMATOLOGY,45.5,%,41.0,51.0,45.5,45.5,%,41.0,51.0,NORMAL,,WEEK 2,4,2025-06-03,14
STUDY001,LB,STUDY001-SUBJ0003,33,L00033,WBC,White Blood Cell Count,HEMATOLOGY,6.68,10^9/L,4.5,11.0,6.68,6.68,10^9/L,4.5,11.0,NORMAL,,WEEK 2,4,2025-06-03,14
STUDY001,LB,STUDY001-SUBJ0003,34,L00034,PLT,Platelet Count,HEMATOLOGY,319.02,10^9/L,150.0,450.0,319.02,319.02,10^9/L,150.0,450.0,NORMAL,,WEEK 2,4,2025-06-03,14
STUDY001,LB,STUDY001-SUBJ0003,35,L00035,GLUC,Glucose,CHEMISTRY,86.94,mg/dL,70.0,100.0,86.94,86.94,mg/dL,70.0,100.0,NORMAL,,WEEK 2,4,2025-06-03,14
STUDY001,LB,STUDY001-SUBJ0003,36,L00036,BUN,Blood Urea Nitrogen,CHEMISTRY,14.36,mg/dL,7.0,20.0,14.36,14.36,mg/dL,7.0,20.0,NORMAL,,WEEK 2,4,2025-06-03,14
STUDY001,LB,STUDY001-SUBJ0003,37,L00037,CREAT,Creatinine,CHEMISTRY,0.96,mg/dL,0.6,1.2,0.96,0.96,mg/dL,0.6,1.2,NORMAL,,WEEK 2,4,2025-06-03,14
STUDY001,LB,STUDY001-SUBJ0003,38,L00038,BILI,Total Bilirubin,CHEMISTRY,0.38,mg/dL,0.1,1.2,0.38,0.38,mg/dL,0.1,1.2,NORMAL,,WEEK 2,4,2025-06-03,14
STUDY001,LB,STUDY001-SUBJ0003,39,L00039,ALP,Alkaline Phosphatase,CHEMISTRY,125.99,U/L,44.0,147.0,125.99,125.99,U/L,44.0,147.0,NORMAL,,WEEK 2,4,2025-06-03,14
STUDY001,LB,STUDY001-SUBJ0003,40,L00040,ALT,Alanine Aminotransferase,CHEMISTRY,16.03,U/L,7.0,56.0,16.03,16.03,U/L,7.0,56.0,NORMAL,,WEEK 2,4,2025-06-03,14
STUDY001,LB,STUDY001-SUBJ0003,41,L00041,HGB,Hemoglobin,HEMATOLOGY,14.29,g/dL,13.5,17.5,14.29,14.29,g/dL,13.5,17.5,NORMAL,,WEEK 4,5,2025-06-17,28
STUDY001,LB,STUDY001-SUBJ0003,42,L00042,HCT,Hematocrit,HEMATOLOGY,45.58,%,41.0,51.0,45.58,45.58,%,41.0,51.0,NORMAL,,WEEK 4,5,2025-06-17,28
STUDY001,LB,STUDY001-SUBJ0003,43,L00043,WBC,White Blood Cell Count,HEMATOLOGY,6.89,10^9/L,4.5,11.0,6.89,6.89,10^9/L,4.5,11.0,NORMAL,,WEEK 4,5,2025-06-17,28
STUDY001,LB,STUDY001-SUBJ0003,44,L00044,PLT,Platelet Count,HEMATOLOGY,316.35,10^9/L,150.0,450.0,316.35,316.35,10^9/L,150.0,450.0,NORMAL,,WEEK 4,5,2025-06-17,28
STUDY001,LB,STUDY001-SUBJ0003,45,L00045,GLUC,Glucose,CHEMISTRY,86.0,mg/dL,70.0,100.0,86.0,86.0,mg/dL,70.0,100.0,NORMAL,,WEEK 4,5,2025-06-17,28
STUDY001,LB,STUDY001-SUBJ0003,46,L00046,BUN,Blood Urea Nitrogen,CHEMISTRY,14.11,mg/dL,7.0,20.0,14.11,14.11,mg/dL,7.0,20.0,NORMAL,,WEEK 4,5,2025-06-17,28
STUDY001,LB,STUDY001-SUBJ0003,47,L00047,CREAT,Creatinine,CHEMISTRY,0.97,mg/dL,0.6,1.2,0.97,0.97,mg/dL,0.6,1.2,NORMAL,,WEEK 4,5,2025-06-17,28
STUDY001,LB,STUDY001-SUBJ0003,48,L00048,BILI,Total Bilirubin,CHEMISTRY,0.36,mg/dL,0.1,1.2,0.36,0.36,mg/dL,0.1,1.2,NORMAL,,WEEK 4,5,2025-06-17,28
STUDY001,LB,STUDY001-SUBJ0003,49,L00049,ALP,Alkaline Phosphatase,CHEMISTRY,129.02,U/L,44.0,147.0,129.02,129.02,U/L,44.0,147.0,NORMAL,,WEEK 4,5,2025-06-17,28
STUDY001,LB,STUDY001-SUBJ0003,50,L00050,ALT,Alanine Aminotransferase,CHEMISTRY,13.76,U/L,7.0,56.0,13.76,13.76,U/L,7.0,56.0,NORMAL,,WEEK 4,5,2025-06-17,28
STUDY001,LB,STUDY001-SUBJ0003,51,L00051,HGB,Hemoglobin,HEMATOLOGY,14.12,g/dL,13.5,17.5,14.12,14.12,g/dL,13.5,17.5,NORMAL,,WEEK 8,6,2025-07-15,56
STUDY001,LB,STUDY001-SUBJ0003,52,L00052,HCT,Hematocrit,HEMATOLOGY,45.1,%,41.0,51.0,45.1,45.1,%,41.0,51.0,NORMAL,,WEEK 8,6,2025-07-15,56
STUDY001,LB,STUDY001-SUBJ0003,53,L00053,WBC,White Blood Cell Count,HEMATOLOGY,6.83,10^9/L,4.5,11.0,6.83,6.83,10^9/L,4.5,11.0,NORMAL,,WEEK 8,6,2025-07-15,56
STUDY001,LB,STUDY001-SUBJ0003,54,L00054,PLT,Platelet Count,HEMATOLOGY,317.1,10^9/L,150.0,450.0,317.1,317.1,10^9/L,150.0,450.0,NORMAL,,WEEK 8,6,2025-07-15,56
STUDY001,LB,STUDY001-SUBJ0003,55,L00055,GLUC,Glucose,CHEMISTRY,85.35,mg/dL,70.0,100.0,85.35,85.35,mg/dL,70.0,100.0,NORMAL,,WEEK 8,6,2025-07-15,56
STUDY001,LB,STUDY001-SUBJ0003,56,L00056,BUN,Blood Urea Nitrogen,CHEMISTRY,14.5,mg/dL,7.0,20.0,14.5,14.5,mg/dL,7.0,20.0,NORMAL,,WEEK 8,6,2025-07-15,56
STUDY001,LB,STUDY001-SUBJ0003,57,L00057,CREAT,Creatinine,CHEMISTRY,0.97,mg/dL,0.6,1.2,0.97,0.97,mg/dL,0.6,1.2,NORMAL,,WEEK 8,6,2025-07-15,56
STUDY001,LB,STUDY001-SUBJ0003,58,L00058,BILI,Total Bilirubin,CHEMISTRY,0.37,mg/dL,0.1,1.2,0.37,0.37,mg/dL,0.1,1.2,NORMAL,,WEEK 8,6,2025-07-15,56
STUDY001,LB,STUDY001-SUBJ0003,59,L00059,ALP,Alkaline Phosphatase,CHEMISTRY,126.89,U/L,44.0,147.0,126.89,126.89,U/L,44.0,147.0,NORMAL,,WEEK 8,6,2025-07-15,56
STUDY001,LB,STUDY001-SUBJ0003,60,L00060,ALT,Alanine Aminotransferase,CHEMISTRY,16.0,U/L,7.0,56.0,16.0,16.0,U/L,7.0,56.0,NORMAL,,WEEK 8,6,2025-07-15,56
STUDY001,LB,STUDY001-SUBJ0003,61,L00061,HGB,Hemoglobin,HEMATOLOGY,14.27,g/dL,13.5,17.5,14.27,14.27,g/dL,13.5,17.5,NORMAL,,WEEK 12,7,2025-08-12,84
STUDY001,LB,STUDY001-SUBJ0003,62,L00062,HCT,Hematocrit,HEMATOLOGY,45.5,%,41.0,51.0,45.5,45.5,%,41.0,51.0,NORMAL,,WEEK 12,7,2025-08-12,84
STUDY001,LB,STUDY001-SUBJ0003,63,L00063,WBC,White Blood Cell Count,HEMATOLOGY,6.52,10^9/L,4.5,11.0,6.52,6.52,10^9/L,4.5,11.0,NORMAL,,WEEK 12,7,2025-08-12,84
STUDY001,LB,STUDY001-SUBJ0003,64,L00064,PLT,Platelet Count,HEMATOLOGY,316.51,10^9/L,150.0,450.0,316.51,316.51,10^9/L,150.0,450.0,NORMAL,,WEEK 12,7,2025-08-12,84
STUDY001,LB,STUDY001-SUBJ0003,65,L00065,GLUC,Glucose,CHEMISTRY,85.83,mg/dL,70.0,100.0,85.83,85.83,mg/dL,70.0,100.0,NORMAL,,WEEK 12,7,2025-08-12,84
STUDY001,LB,STUDY001-SUBJ0003,66,L00066,BUN,Blood Urea Nitrogen,CHEMISTRY,14.25,mg/dL,7.0,20.0,14.25,14.25,mg/dL,7.0,20.0,NORMAL,,WEEK 12,7,2025-08-12,84
STUDY001,LB,STUDY001-SUBJ0003,67,L00067,CREAT,Creatinine,CHEMISTRY,0.97,mg/dL,0.6,1.2,0.97,0.97,mg/dL,0.6,1.2,NORMAL,,WEEK 12,7,2025-08-12,84
STUDY001,LB,STUDY001-SUBJ0003,68,L00068,BILI,Total Bilirubin,CHEMISTRY,0.4,mg/dL,0.1,1.2,0.4,0.4,mg/dL,0.1,1.2,NORMAL,,WEEK 12,7,2025-08-12,84
STUDY001,LB,STUDY001-SUBJ0003,69,L00069,ALP,Alkaline Phosphatase,CHEMISTRY,128.52,U/L,44.0,147.0,128.52,128.52,U/L,44.0,147.0,NORMAL,,WEEK 12,7,2025-08-12,84
STUDY001,LB,STUDY001-SUBJ0003,70,L00070,ALT,Alanine Aminotransferase,CHEMISTRY,17.41,U/L,7.0,56.0,17.41,17.41,U/L,7.0,56.0,NORMAL,,WEEK 12,7,2025-08-12,84
STUDY001,LB,STUDY001-SUBJ0003,71,L00071,HGB,Hemoglobin,HEMATOLOGY,14.33,g/dL,13.5,17.5,14.33,14.33,g/dL,13.5,17.5,NORMAL,,WEEK 16,8,2025-09-09,112
STUDY001,LB,STUDY001-SUBJ0003,72,L00072,HCT,Hematocrit,HEMATOLOGY,45.54,%,41.0,51.0,45.54,45.54,%,41.0,51.0,NORMAL,,WEEK 16,8,2025-09-09,112
STUDY001,LB,STUDY001-SUBJ0003,73,L00073,WBC,White Blood Cell Count,HEMATOLOGY,6.67,10^9/L,4.5,11.0,6.67,6.67,10^9/L,4.5,11.0,NORMAL,,WEEK 16,8,2025-09-09,112
STUDY001,LB,STUDY001-SUBJ0003,74,L00074,PLT,Platelet Count,HEMATOLOGY,317.11,10^9/L,150.0,450.0,317.11,317.11,10^9/L,150.0,450.0,NORMAL,,WEEK 16,8,2025-09-09,112
STUDY001,LB,STUDY001-SUBJ0003,75,L00075,GLUC,Glucose,CHEMISTRY,85.77,mg/dL,70.0,100.0,85.77,85.77,mg/dL,70.0,100.0,NORMAL,,WEEK 16,8,2025-09-09,112
STUDY001,LB,STUDY001-SUBJ0003,76,L00076,BUN,Blood Urea Nitrogen,CHEMISTRY,14.2,mg/dL,7.0,20.0,14.2,14.2,mg/dL,7.0,20.0,NORMAL,,WEEK 16,8,2025-09-09,112
STUDY001,LB,STUDY001-SUBJ0003,77,L00077,CREAT,Creatinine,CHEMISTRY,0.98,mg/dL,0.6,1.2,0.98,0.98,mg/dL,0.6,1.2,NORMAL,,WEEK 16,8,2025-09-09,112
STUDY001,LB,STUDY001-SUBJ0003,78,L00078,BILI,Total Bilirubin,CHEMISTRY,0.36,mg/dL,0.1,1.2,0.36,0.36,mg/dL,0.1,1.2,NORMAL,,WEEK 16,8,2025-09-09,112
STUDY001,LB,STUDY001-SUBJ0003,79,L00079,ALP,Alkaline Phosphatase,CHEMISTRY,127.14,U/L,44.0,147.0,127.14,127.14,U/L,44.0,147.0,NORMAL,,WEEK 16,8,2025-09-09,112
STUDY001,LB,STUDY001-SUBJ0003,80,L00080,ALT,Alanine Aminotransferase,CHEMISTRY,15.56,U/L,7.0,56.0,15.56,15.56,U/L,7.0,56.0,NORMAL,,WEEK 16,8,2025-09-09,112
STUDY001,LB,STUDY001-SUBJ0003,81,L00081,HGB,Hemoglobin,HEMATOLOGY,14.44,g/dL,13.5,17.5,14.44,14.44,g/dL,13.5,17.5,NORMAL,,END OF TREATMENT,9,2025-10-07,140
STUDY001,LB,STUDY001-SUBJ0003,82,L00082,HCT,Hematocrit,HEMATOLOGY,45.53,%,41.0,51.0,45.53,45.53,%,41.0,51.0,NORMAL,,END OF TREATMENT,9,2025-10-07,140
STUDY001,LB,STUDY001-SUBJ0003,83,L00083,WBC,White Blood Cell Count,HEMATOLOGY,6.39,10^9/L,4.5,11.0,6.39,6.39,10^9/L,4.5,11.0,NORMAL,,END OF TREATMENT,9,2025-10-07,140
STUDY001,LB,STUDY001-SUBJ0003,84,L00084,PLT,Platelet Count,HEMATOLOGY,307.02,10^9/L,150.0,450.0,307.02,307.02,10^9/L,150.0,450.0,NORMAL,,END OF TREATMENT,9,2025-10-07,140
STUDY001,LB,STUDY001-SUBJ0003,85,L00085,GLUC,Glucose,CHEMISTRY,85.43,mg/dL,70.0,100.0,85.43,85.43,mg/dL,70.0,100.0,NORMAL,,END OF TREATMENT,9,2025-10-07,140
STUDY001,LB,STUDY001-SUBJ0003,86,L00086,BUN,Blood Urea Nitrogen,CHEMISTRY,13.97,mg/dL,7.0,20.0,13.97,13.97,mg/dL,7.0,20.0,NORMAL,,END OF TREATMENT,9,2025-10-07,140
STUDY001,LB,STUDY001-SUBJ0003,87,L00087,CREAT,Creatinine,CHEMISTRY,1.0,mg/dL,0.6,1.2,1.0,1.0,mg/dL,0.6,1.2,NORMAL,,END OF TREATMENT,9,2025-10-07,140
STUDY001,LB,STUDY001-SUBJ0003,88,L00088,BILI,Total Bilirubin,CHEMISTRY,0.37,mg/dL,0.1,1.2,0.37,0.37,mg/dL,0.1,1.2,NORMAL,,END OF TREATMENT,9,2025-10-07,140
STUDY001,LB,STUDY001-SUBJ0003,89,L00089,ALP,Alkaline Phosphatase,CHEMISTRY,129.94,U/L,44.0,147.0,129.94,129.94,U/L,44.0,147.0,NORMAL,,END OF TREATMENT,9,2025-10-07,140
STUDY001,LB,STUDY001-SUBJ0003,90,L00090,ALT,Alanine Aminotransferase,CHEMISTRY,13.55,U/L,7.0,56.0,13.55,13.55,U/L,7.0,56.0,NORMAL,,END OF TREATMENT,9,2025-10-07,140
STUDY001,LB,STUDY001-SUBJ0004,1,L00001,HGB,Hemoglobin,HEMATOLOGY,12.77,g/dL,13.5,17.5,12.77,12.77,g/dL,13.5,17.5,LOW,,SCREENING,1,2025-04-28,-14
STUDY001,LB,STUDY001-SUBJ0004,2,L00002,HCT,Hematocrit,HEMATOLOGY,49.74,%,41.0,51.0,49.74,49.74,%,41.0,51.0,NORMAL,,SCREENING,1,2025-04-28,-14
STUDY001,LB,STUDY001-SUBJ0004,3,L00003,WBC,White Blood Cell Count,HEMATOLOGY,4.36,10^9/L,4.5,11.0,4.36,4.36,10^9/L,4.5,11.0,LOW,,SCREENING,1,2025-04-28,-14
STUDY001,LB,STUDY001-SUBJ0004,4,L00004,PLT,Platelet Count,HEMATOLOGY,151.32,10^9/L,150.0,450.0,151.32,151.32,10^9/L,150.0,450.0,NORMAL,,SCREENING,1,2025-04-28,-14
STUDY001,LB,STUDY001-SUBJ0004,5,L00005,GLUC,Glucose,CHEMISTRY,84.77,mg/dL,70.0,100.0,84.77,84.77,mg/dL,70.0,100.0,NORMAL,,SCREENING,1,2025-04-28,-14
STUDY001,LB,STUDY001-SUBJ0004,6,L00006,BUN,Blood Urea Nitrogen,CHEMISTRY,14.16,mg/dL,7.0,20.0,14.16,14.16,mg/dL,7.0,20.0,NORMAL,,SCREENING,1,2025-04-28,-14
STUDY001,LB,STUDY001-SUBJ0004,7,L00007,CREAT,Creatinine,CHEMISTRY,0.78,mg/dL,0.6,1.2,0.78,0.78,mg/dL,0.6,1.2,NORMAL,,SCREENING,1,2025-04-28,-14
STUDY001,LB,STUDY001-SUBJ0004,8,L00008,BILI,Total Bilirubin,CHEMISTRY,0.73,mg/dL,0.1,1.2,0.73,0.73,mg/dL,0.1,1.2,NORMAL,,SCREENING,1,2025-04-28,-14
STUDY001,LB,STUDY001-SUBJ0004,9,L00009,ALP,Alkaline Phosphatase,CHEMISTRY,107.88,U/L,44.0,147.0,107.88,107.88,U/L,44.0,147.0,NORMAL,,SCREENING,1,2025-04-28,-14
STUDY001,LB,STUDY001-SUBJ0004,10,L00010,ALT,Alanine Aminotransferase,CHEMISTRY,30.85,U/L,7.0,56.0,30.85,30.85,U/L,7.0,56.0,NORMAL,,SCREENING,1,2025-04-28,-14
STUDY001,LB,STUDY001-SUBJ0004,11,L00011,HGB,Hemoglobin,HEMATOLOGY,12.82,g/dL,13.5,17.5,12.82,12.82,g/dL,13.5,17.5,LOW,Y,BASELINE,2,2025-05-12,1
STUDY001,LB,STUDY001-SUBJ0004,12,L00012,HCT,Hematocrit,HEMATOLOGY,49.52,%,41.0,51.0,49.52,49.52,%,41.0,51.0,NORMAL,Y,BASELINE,2,2025-05-12,1
STUDY001,LB,STUDY001-SUBJ0004,13,L00013,WBC,White Blood Cell Count,HEMATOLOGY,4.53,10^9/L,4.5,11.0,4.53,4.53,10^9/L,4.5,11.0,NORMAL,Y,BASELINE,2,2025-05-12,1
STUDY001,LB,STUDY001-SUBJ0004,14,L00014,PLT,Platelet Count,HEMATOLOGY,156.61,10^9/L,150.0,450.0,156.61,156.61,10^9/L,150.0,450.0,NORMAL,Y,BASELINE,2,2025-05-12,1
STUDY001,LB,STUDY001-SUBJ0004,15,L00015,GLUC,Glucose,CHEMISTRY,84.0,mg/dL,70.0,100.0,84.0,84.0,mg/dL,70.0,100.0,NORMAL,Y,BASELINE,2,2025-05-12,1
STUDY001,LB,STUDY001-SUBJ0004,16,L00016,BUN,Blood Urea Nitrogen,CHEMISTRY,14.37,mg/dL,7.0,20.0,14.37,14.37,mg/dL,7.0,20.0,NORMAL,Y,BASELINE,2,2025-05-12,1
STUDY001,LB,STUDY001-SUBJ0004,17,L00017,CREAT,Creatinine,CHEMISTRY,0.82,mg/dL,0.6,1.2,0.82,0.82,mg/dL,0.6,1.2,NORMAL,Y,BASELINE,2,2025-05-12,1
STUDY001,LB,STUDY001-SUBJ0004,18,L00018,BILI,Total Bilirubin,CHEMISTRY,0.74,mg/dL,0.1,1.2,0.74,0.74,mg/dL,0.1,1.2,NORMAL,Y,BASELINE,2,2025-05-12,1
STUDY001,LB,STUDY001-SUBJ0004,19,L00019,ALP,Alkaline Phosphatase,CHEMISTRY,105.99,U/L,44.0,147.0,105.99,105.99,U/L,44.0,147.0,NORMAL,Y,BASELINE,2,2025-05-12,1
STUDY001,LB,STUDY001-SUBJ0004,20,L00020,ALT,Alanine Aminotransferase,CHEMISTRY,31.03,U/L,7.0,56.0,31.03,31.03,U/L,7.0,56.0,NORMAL,Y,BASELINE,2,2025-05-12,1
STUDY001,LB,STUDY001-SUBJ0004,21,L00021,HGB,Hemoglobin,HEMATOLOGY,12.95,g/dL,13.5,17.5,12.95,12.95,g/dL,13.5,17.5,LOW,,WEEK 1,3,2025-05-18,7
STUDY001,LB,STUDY001-SUBJ0004,22,L00022,HCT,Hematocrit,HEMATOLOGY,49.77,%,41.0,51.0,49.77,49.77,%,41.0,51.0,NORMAL,,WEEK 1,3,2025-05-18,7
STUDY001,LB,STUDY001-SUBJ0004,23,L00023,WBC,White Blood Cell Count,HEMATOLOGY,4.32,10^9/L,4.5,11.0,4.32,4.32,10^9/L,4.5,11.0,LOW,,WEEK 1,3,2025-05-18,7
STUDY001,LB,STUDY001-SUBJ0004,24,L00024,PLT,Platelet Count,HEMATOLOGY,151.32,10^9/L,150.0,450.0,151.32,151.32,10^9/L,150.0,450.0,NORMAL,,WEEK 1,3,2025-05-18,7
STUDY001,LB,STUDY001-SUBJ0004,25,L00025,GLUC,Glucose,CHEMISTRY,85.13,mg/dL,70.0,100.0,85.13,85.13,mg/dL,70.0,100.0,NORMAL,,WEEK 1,3,2025-05-18,7
STUDY001,LB,STUDY001-SUBJ0004,26,L00026,BUN,Blood Urea Nitrogen,CHEMISTRY,14.16,mg/dL,7.0,20.0,14.16,14.16,mg/dL,7.0,20.0,NORMAL,,WEEK 1,3,2025-05-18,7
STUDY001,LB,STUDY001-SUBJ0004,27,L00027,CREAT,Creatinine,CHEMISTRY,0.81,mg/dL,0.6,1.2,0.81,0.81,mg/dL,0.6,1.2,NORMAL,,WEEK 1,3,2025-05-18,7
STUDY001,LB,STUDY001-SUBJ0004,28,L00028,BILI,Total Bilirubin,CHEMISTRY,0.76,mg/dL,0.1,1.2,0.76,0.76,mg/dL,0.1,1.2,NORMAL,,WEEK 1,3,2025-05-18,7
STUDY001,LB,STUDY001-SUBJ0004,29,L00029,ALP,Alkaline Phosphatase,CHEMISTRY,108.82,U/L,44.0,147.0,108.82,108.82,U/L,44.0,147.0,NORMAL,,WEEK 1,3,2025-05-18,7
STUDY001,LB,STUDY001-SUBJ0004,30,L00030,ALT,Alanine Aminotransferase,CHEMISTRY,32.68,U/L,7.0,56.0,32.68,32.68,U/L,7.0,56.0,NORMAL,,WEEK 1,3,2025-05-18,7
STUDY001,LB,STUDY001-SUBJ0004,31,L00031,HGB,Hemoglobin,HEMATOLOGY,12.74,g/dL,13.5,17.5,12.74,12.74,g/dL,13.5,17.5,LOW,,WEEK 2,4,2025-05-25,14
STUDY001,LB,STUDY001-SUBJ0004,32,L00032,HCT,Hematocrit,HEMATOLOGY,49.45,%,41.0,51.0,49.45,49.45,%,41.0,51.0,NORMAL,,WEEK 2,4,2025-05-25,14
STUDY001,LB,STUDY001-SUBJ0004,33,L00033,WBC,White Blood Cell Count,HEMATOLOGY,4.44,10^9/L,4.5,11.0,4.44,4.44,10^9/L,4.5,11.0,LOW,,WEEK 2,4,2025-05-25,14
STUDY001,LB,STUDY001-SUBJ0004,34,L00034,PLT,Platelet Count,HEMATOLOGY,158.58,10^9/L,150.0,450.0,158.58,158.58,10^9/L,150.0,450.0,NORMAL,,WEEK 2,4,2025-05-25,14
STUDY001,LB,STUDY001-SUBJ0004,35,L00035,GLUC,Glucose,CHEMISTRY,84.93,mg/dL,70.0,100.0,84.93,84.93,mg/dL,70.0,100.0,NORMAL,,WEEK 2,4,2025-05-25,14
STUDY001,LB,STUDY001-SUBJ0004,36,L00036,BUN,Blood Urea Nitrogen,CHEMISTRY,14.1,mg/dL,7.0,20.0,14.1,14.1,mg/dL,7.0,20.0,NORMAL,,WEEK 2,4,2025-05-25,14
STUDY001,LB,STUDY001-SUBJ0004,37,L00037,CREAT,Creatinine,CHEMISTRY,0.8,mg/dL,0.6,1.2,0.8,0.8,mg/dL,0.6,1.2,NORMAL,,WEEK 2,4,2025-05-25,14
STUDY001,LB,STUDY001-SUBJ0004,38,L00038,BILI,Total Bilirubin,CHEMISTRY,0.74,mg/dL,0.1,1.2,0.74,0.74,mg/dL,0.1,1.2,NORMAL,,WEEK 2,4,2025-05-25,14
STUDY001,LB,STUDY001-SUBJ0004,39,L00039,ALP,Alkaline Phosphatase,CHEMISTRY,105.26,U/L,44.0,147.0,105.26,105.26,U/L,44.0,147.0,NORMAL,,WEEK 2,4,2025-05-25,14
STUDY001,LB,STUDY001-SUBJ0004,40,L00040,ALT,Alanine Aminotransferase,CHEMISTRY,31.43,U/L,7.0,56.0,31.43,31.43,U/L,7.0,56.0,NORMAL,,WEEK 2,4,2025-05-25,14
STUDY001,LB,STUDY001-SUBJ0004,41,L00041,HGB,Hemoglobin,HEMATOLOGY,12.91,g/dL,13.5,17.5,12.91,12.91,g/dL,13.5,17.5,LOW,,WEEK 4,5,2025-06-08,28
STUDY001,LB,STUDY001-SUBJ0004,42,L00042,HCT,Hematocrit,HEMATOLOGY,50.04,%,41.0,51.0,50.04,50.04,%,41.0,51.0,NORMAL,,WEEK 4,5,2025-06-08,28
STUDY001,LB,STUDY001-SUBJ0004,43,L00043,WBC,White Blood Cell Count,HEMATOLOGY,4.2,10^9/L,4.5,11.0,4.2,4.2,10^9/L,4.5,11.0,LOW,,WEEK 4,5,2025-06-08,28
STUDY001,LB,STUDY001-SUBJ0004,44,L00044,PLT,Platelet Count,HEMATOLOGY,158.46,10^9/L,150.0,450.0,158.46,158.46,10^9/L,150.0,450.0,NORMAL,,WEEK 4,5,2025-06-08,28
STUDY001,LB,STUDY001-SUBJ0004,45,L00045,GLUC,Glucose,CHEMISTRY,85.55,mg/dL,70.0,100.0,85.55,85.55,mg/dL,70.0,100.0,NORMAL,,WEEK 4,5,2025-06-08,28
STUDY001,LB,STUDY001-SUBJ0004,46,L00046,BUN,Blood Urea Nitrogen,CHEMISTRY,13.78,mg/dL,7.0,20.0,13.78,13.78,mg/dL,7.0,20.0,NORMAL,,WEEK 4,5,2025-06-08,28
STUDY001,LB,STUDY001-SUBJ0004,47,L00047,CREAT,Creatinine,CHEMISTRY,0.81,mg/dL,0.6,1.2,0.81,0.81,mg/dL,0.6,1.2,NORMAL,,WEEK 4,5,2025-06-08,28
STUDY001,LB,STUDY001-SUBJ0004,48,L00048,BILI,Total Bilirubin,CHEMISTRY,0.75,mg/dL,0.1,1.2,0.75,0.75,mg/dL,0.1,1.2,NORMAL,,WEEK 4,5,2025-06-08,28
STUDY001,LB,STUDY001-SUBJ0004,49,L00049,ALP,Alkaline Phosphatase,CHEMISTRY,107.03,U/L,44.0,147.0,107.03,107.03,U/L,44.0,147.0,NORMAL,,WEEK 4,5,2025-06-08,28
STUDY001,LB,STUDY001-SUBJ0004,50,L00050,ALT,Alanine Aminotransferase,CHEMISTRY,33.5,U/L,7.0,56.0,33.5,33.5,U/L,7.0,56.0,NORMAL,,WEEK 4,5,2025-06-08,28
STUDY001,LB,STUDY001-SUBJ0004,51,L00051,HGB,Hemoglobin,HEMATOLOGY,13.05,g/dL,13.5,17.5,13.05,13.05,g/dL,13.5,17.5,LOW,,WEEK 8,6,2025-07-06,56
STUDY001,LB,STUDY001-SUBJ0004,52,L00052,HCT,Hematocrit,HEMATOLOGY,49.93,%,41.0,51.0,49.93,49.93,%,41.0,51.0,NORMAL,,WEEK 8,6,2025-07-06,56
STUDY001,LB,STUDY001-SUBJ0004,53,L00053,WBC,White Blood Cell Count,HEMATOLOGY,4.85,10^9/L,4.5,11.0,4.85,4.85,10^9/L,4.5,11.0,NORMAL,,WEEK 8,6,2025-07-06,56
STUDY001,LB,STUDY001-SUBJ0004,54,L00054,PLT,Platelet Count,HEMATOLOGY,159.83,10^9/L,150.0,450.0,159.83,159.83,10^9/L,150.0,450.0,NORMAL,,WEEK 8,6,2025-07-06,56
STUDY001,LB,STUDY001-SUBJ0004,55,L00055,GLUC,Glucose,CHEMISTRY,82.05,mg/dL,70.0,100.0,82.05,82.05,mg/dL,70.0,100.0,NORMAL,,WEEK 8,6,2025-07-06,56
STUDY001,LB,STUDY001-SUBJ0004,56,L00056,BUN,Blood Urea Nitrogen,CHEMISTRY,13.84,mg/dL,7.0,20.0,13.84,13.84,mg/dL,7.0,20.0,NORMAL,,WEEK 8,6,2025-07-06,56
STUDY001,LB,STUDY001-SUBJ0004,57,L00057,CREAT,Creatinine,CHEMISTRY,0.8,mg/dL,0.6,1.2,0.8,0.8,mg/dL,0.6,1.2,NORMAL,,WEEK 8,6,2025-07-06,56
STUDY001,LB,STUDY001-SUBJ0004,58,L00058,BILI,Total Bilirubin,CHEMISTRY,0.73,mg/dL,0.1,1.2,0.73,0.73,mg/dL,0.1,1.2,NORMAL,,WEEK 8,6,2025-07-06,56
STUDY001,LB,STUDY001-SUBJ0004,59,L00059,ALP,Alkaline Phosphatase,CHEMISTRY,107.59,U/L,44.0,147.0,107.59,107.59,U/L,44.0,147.0,NORMAL,,WEEK 8,6,2025-07-06,56
STUDY001,LB,STUDY001-SUBJ0004,60,L00060,ALT,Alanine Aminotransferase,CHEMISTRY,33.69,U/L,7.0,56.0,33.69,33.69,U/L,7.0,56.0,NORMAL,,WEEK 8,6,2025-07-06,56
STUDY001,LB,STUDY001-SUBJ0004,61,L00061,HGB,Hemoglobin,HEMATOLOGY,12.66,g/dL,13.5,17.5,12.66,12.66,g/dL,13.5,17.5,LOW,,WEEK 12,7,2025-08-03,84
STUDY001,LB,STUDY001-SUBJ0004,62,L00062,HCT,Hematocrit,HEMATOLOGY,49.97,%,41.0,51.0,49.97,49.97,%,41.0,51.0,NORMAL,,WEEK 12,7,2025-08-03,84
STUDY001,LB,STUDY001-SUBJ0004,63,L00063,WBC,White Blood Cell Count,HEMATOLOGY,4.39,10^9/L,4.5,11.0,4.39,4.39,10^9/L,4.5,11.0,LOW,,WEEK 12,7,2025-08-03,84
STUDY001,LB,STUDY001-SUBJ0004,64,L00064,PLT,Platelet Count,HEMATOLOGY,151.66,10^9/L,150.0,450.0,151.66,151.66,10^9/L,150.0,450.0,NORMAL,,WEEK 12,7,2025-08-03,84
STUDY001,LB,STUDY001-SUBJ0004,65,L00065,GLUC,Glucose,CHEMISTRY,85.18,mg/dL,70.0,100.0,85.18,85.18,mg/dL,70.0,100.0,NORMAL,,WEEK 12,7,2025-08-03,84
STUDY001,LB,STUDY001-SUBJ0004,66,L00066,BUN,Blood Urea Nitrogen,CHEMISTRY,14.54,mg/dL,7.0,20.0,14.54,14.54,mg/dL,7.0,20.0,NORMAL,,WEEK 12,7,2025-08-03,84
STUDY001,LB,STUDY001-SUBJ0004,67,L00067,CREAT,Creatinine,CHEMISTRY,0.81,mg/dL,0.6,1.2,0.81,0.81,mg/dL,0.6,1.2,NORMAL,,WEEK 12,7,2025-08-03,84
STUDY001,LB,STUDY001-SUBJ0004,68,L00068,BILI,Total Bilirubin,CHEMISTRY,0.75,mg/dL,0.1,1.2,0.75,0.75,mg/dL,0.1,1.2,NORMAL,,WEEK 12,7,2025-08-03,84
STUDY001,LB,STUDY001-SUBJ0004,69,L00069,ALP,Alkaline Phosphatase,CHEMISTRY,106.27,U/L,44.0,147.0,106.27,106.27,U/L,44.0,147.0,NORMAL,,WEEK 12,7,2025-08-03,84
STUDY001,LB,STUDY001-SUBJ0004,70,L00070,ALT,Alanine Aminotransferase,CHEMISTRY,33.37,U/L,7.0,56.0,33.37,33.37,U/L,7.0,56.0,NORMAL,,WEEK 12,7,2025-08-03,84
STUDY001,LB,STUDY001-SUBJ0004,71,L00071,HGB,Hemoglobin,HEMATOLOGY,12.85,g/dL,13.5,17.5,12.85,12.85,g/dL,13.5,17.5,LOW,,WEEK 16,8,2025-08-31,112
STUDY001,LB,STUDY001-SUBJ0004,72,L00072,HCT,Hematocrit,HEMATOLOGY,50.2,%,41.0,51.0,50.2,50.2,%,41.0,51.0,NORMAL,,WEEK 16,8,2025-08-31,112
STUDY001,LB,STUDY001-SUBJ0004,73,L00073,WBC,White Blood Cell Count,HEMATOLOGY,4.37,10^9/L,4.5,11.0,4.37,4.37,10^9/L,4.5,11.0,LOW,,WEEK 16,8,2025-08-31,112
STUDY001,LB,STUDY001-SUBJ0004,74,L00074,PLT,Platelet Count,HEMATOLOGY,145.72,10^9/L,150.0,450.0,145.72,145.72,10^9/L,150.0,450.0,LOW,,WEEK 16,8,2025-08-31,112
STUDY001,LB,STUDY001-SUBJ0004,75,L00075,GLUC,Glucose,CHEMISTRY,84.61,mg/dL,70.0,100.0,84.61,84.61,mg/dL,70.0,100.0,NORMAL,,WEEK 16,8,2025-08-31,112
STUDY001,LB,STUDY001-SUBJ0004,76,L00076,BUN,Blood Urea Nitrogen,CHEMISTRY,14.04,mg/dL,7.0,20.0,14.04,14.04,mg/dL,7.0,20.0,NORMAL,,WEEK 16,8,2025-08-31,112
STUDY001,LB,STUDY001-SUBJ0004,77,L00077,CREAT,Creatinine,CHEMISTRY,0.81,mg/dL,0.6,1.2,0.81,0.81,mg/dL,0.6,1.2,NORMAL,,WEEK 16,8,2025-08-31,112
STUDY001,LB,STUDY001-SUBJ0004,78,L00078,BILI,Total Bilirubin,CHEMISTRY,0.74,mg/dL,0.1,1.2,0.74,0.74,mg/dL,0.1,1.2,NORMAL,,WEEK 16,8,2025-08-31,112
STUDY001,LB,STUDY001-SUBJ0004,79,L00079,ALP,Alkaline Phosphatase,CHEMISTRY,109.15,U/L,44.0,147.0,109.15,109.15,U/L,44.0,147.0,NORMAL,,WEEK 16,8,2025-08-31,112
STUDY001,LB,STUDY001-SUBJ0004,80,L00080,ALT,Alanine Aminotransferase,CHEMISTRY,31.11,U/L,7.0,56.0,31.11,31.11,U/L,7.0,56.0,NORMAL,,WEEK 16,8,2025-08-31,112
STUDY001,LB,STUDY001-SUBJ0004,81,L00081,HGB,Hemoglobin,HEMATOLOGY,12.84,g/dL,13.5,17.5,12.84,12.84,g/dL,13.5,17.5,LOW,,END OF TREATMENT,9,2025-09-28,140
STUDY001,LB,STUDY001-SUBJ0004,82,L00082,HCT,Hematocrit,HEMATOLOGY,49.64,%,41.0,51.0,49.64,49.64,%,41.0,51.0,NORMAL,,END OF TREATMENT,9,2025-09-28,140
STUDY001,LB,STUDY001-SUBJ0004,83,L00083,WBC,White Blood Cell Count,HEMATOLOGY,4.3,10^9/L,4.5,11.0,4.3,4.3,10^9/L,4.5,11.0,LOW,,END OF TREATMENT,9,2025-09-28,140
STUDY001,LB,STUDY001-SUBJ0004,84,L00084,PLT,Platelet Count,HEMATOLOGY,152.39,10^9/L,150.0,450.0,152.39,152.39,10^9/L,150.0,450.0,NORMAL,,END OF TREATMENT,9,2025-09-28,140
STUDY001,LB,STUDY001-SUBJ0004,85,L00085,GLUC,Glucose,CHEMISTRY,83.74,mg/dL,70.0,100.0,83.74,83.74,mg/dL,70.0,100.0,NORMAL,,END OF TREATMENT,9,2025-09-28,140
STUDY001,LB,STUDY001-SUBJ0004,86,L00086,BUN,Blood Urea Nitrogen,CHEMISTRY,14.37,mg/dL,7.0,20.0,14.37,14.37,mg/dL,7.0,20.0,NORMAL,,END OF TREATMENT,9,2025-09-28,140
STUDY001,LB,STUDY001-SUBJ0004,87,L00087,CREAT,Creatinine,CHEMISTRY,0.82,mg/dL,0.6,1.2,0.82,0.82,mg/dL,0.6,1.2,NORMAL,,END OF TREATMENT,9,2025-09-28,140
STUDY001,LB,STUDY001-SUBJ0004,88,L00088,BILI,Total Bilirubin,CHEMISTRY,0.74,mg/dL,0.1,1.2,0.74,0.74,mg/dL,0.1,1.2,NORMAL,,END OF TREATMENT,9,2025-09-28,140
STUDY001,LB,STUDY001-SUBJ0004,89,L00089,ALP,Alkaline Phosphatase,CHEMISTRY,110.55,U/L,44.0,147.0,110.55,110.55,U/L,44.0,147.0,NORMAL,,END OF TREATMENT,9,2025-09-28,140
STUDY001,LB,STUDY001-SUBJ0004,90,L00090,ALT,Alanine Aminotransferase,CHEMISTRY,32.58,U/L,7.0,56.0,32.58,32.58,U/L,7.0,56.0,NORMAL,,END OF TREATMENT,9,2025-09-28,140
STUDY001,LB,STUDY001-SUBJ0005,1,L00001,HGB,Hemoglobin,HEMATOLOGY,13.57,g/dL,13.5,17.5,13.57,13.57,g/dL,13.5,17.5,NORMAL,,SCREENING,1,2025-06-11,-14
STUDY001,LB,STUDY001-SUBJ0005,2,L00002,HCT,Hematocrit,HEMATOLOGY,50.06,%,41.0,51.0,50.06,50.06,%,41.0,51.0,NORMAL,,SCREENING,1,2025-06-11,-14
STUDY001,LB,STUDY001-SUBJ0005,3,L00003,WBC,White Blood Cell Count,HEMATOLOGY,4.94,10^9/L,4.5,11.0,4.94,4.94,10^9/L,4.5,11.0,NORMAL,,SCREENING,1,2025-06-11,-14
STUDY001,LB,STUDY001-SUBJ0005,4,L00004,PLT,Platelet Count,HEMATOLOGY,265.6,10^9/L,150.0,450.0,265.6,265.6,10^9/L,150.0,450.0,NORMAL,,SCREENING,1,2025-06-11,-14
STUDY001,LB,STUDY001-SUBJ0005,5,L00005,GLUC,Glucose,CHEMISTRY,87.25,mg/dL,70.0,100.0,87.25,87.25,mg/dL,70.0,100.0,NORMAL,,SCREENING,1,2025-06-11,-14
STUDY001,LB,STUDY001-SUBJ0005,6,L00006,BUN,Blood Urea Nitrogen,CHEMISTRY,13.15,mg/dL,7.0,20.0,13.15,13.15,mg/dL,7.0,20.0,NORMAL,,SCREENING,1,2025-06-11,-14
STUDY001,LB,STUDY001-SUBJ0005,7,L00007,CREAT,Creatinine,CHEMISTRY,0.77,mg/dL,0.6,1.2,0.77,0.77,mg/dL,0.6,1.2,NORMAL,,SCREENING,1,2025-06-11,-14
STUDY001,LB,STUDY001-SUBJ0005,8,L00008,BILI,Total Bilirubin,CHEMISTRY,0.32,mg/dL,0.1,1.2,0.32,0.32,mg/dL,0.1,1.2,NORMAL,,SCREENING,1,2025-06-11,-14
STUDY001,LB,STUDY001-SUBJ0005,9,L00009,ALP,Alkaline Phosphatase,CHEMISTRY,133.95,U/L,44.0,147.0,133.95,133.95,U/L,44.0,147.0,NORMAL,,SCREENING,1,2025-06-11,-14
STUDY001,LB,STUDY001-SUBJ0005,10,L00010,ALT,Alanine Aminotransferase,CHEMISTRY,31.02,U/L,7.0,56.0,31.02,31.02,U/L,7.0,56.0,NORMAL,,SCREENING,1,2025-06-11,-14
STUDY001,LB,STUDY001-SUBJ0005,11,L00011,HGB,Hemoglobin,HEMATOLOGY,13.47,g/dL,13.5,17.5,13.47,13.47,g/dL,13.5,17.5,LOW,Y,BASELINE,2,2025-06-25,1
STUDY001,LB,STUDY001-SUBJ0005,12,L00012,HCT,Hematocrit,HEMATOLOGY,50.26,%,41.0,51.0,50.26,50.26,%,41.0,51.0,NORMAL,Y,BASELINE,2,2025-06-25,1
STUDY001,LB,STUDY001-SUBJ0005,13,L00013,WBC,White Blood Cell Count,HEMATOLOGY,4.87,10^9/L,4.5,11.0,4.87,4.87,10^9/L,4.5,11.0,NORMAL,Y,BASELINE,2,2025-06-25,1
STUDY001,LB,STUDY001-SUBJ0005,14,L00014,PLT,Platelet Count,HEMATOLOGY,277.98,10^9/L,150.0,450.0,277.98,277.98,10^9/L,150.0,450.0,NORMAL,Y,BASELINE,2,2025-06-25,1
STUDY001,LB,STUDY001-SUBJ0005,15,L00015,GLUC,Glucose,CHEMISTRY,86.54,mg/dL,70.0,100.0,86.54,86.54,mg/dL,70.0,100.0,NORMAL,Y,BASELINE,2,2025-06-25,1
STUDY001,LB,STUDY001-SUBJ0005,16,L00016,BUN,Blood Urea Nitrogen,CHEMISTRY,13.2,mg/dL,7.0,20.0,13.2,13.2,mg/dL,7.0,20.0,NORMAL,Y,BASELINE,2,2025-06-25,1
STUDY001,LB,STUDY001-SUBJ0005,17,L00017,CREAT,Creatinine,CHEMISTRY,0.79,mg/dL,0.6,1.2,0.79,0.79,mg/dL,0.6,1.2,NORMAL,Y,BASELINE,2,2025-06-25,1
STUDY001,LB,STUDY001-SUBJ0005,18,L00018,BILI,Total Bilirubin,CHEMISTRY,0.33,mg/dL,0.1,1.2,0.33,0.33,mg/dL,0.1,1.2,NORMAL,Y,BASELINE,2,2025-06-25,1
STUDY001,LB,STUDY001-SUBJ0005,19,L00019,ALP,Alkaline Phosphatase,CHEMISTRY,131.93,U/L,44.0,147.0,131.93,131.93,U/L,44.0,147.0,NORMAL,Y,BASELINE,2,2025-06-25,1
STUDY001,LB,STUDY001-SUBJ0005,20,L00020,ALT,Alanine Aminotransferase,CHEMISTRY,32.67,U/L,7.0,56.0,32.67,32.67,U/L,7.0,56.0,NORMAL,Y,BASELINE,2,2025-06-25,1
STUDY001,LB,STUDY001-SUBJ0005,21,L00021,HGB,Hemoglobin,HEMATOLOGY,13.58,g/dL,13.5,17.5,13.58,13.58,g/dL,13.5,17.5,NORMAL,,WEEK 1,3,2025-07-01,7
STUDY001,LB,STUDY001-SUBJ0005,22,L00022,HCT,Hematocrit,HEMATOLOGY,50.1,%,41.0,51.0,50.1,50.1,%,41.0,51.0,NORMAL,,WEEK 1,3,2025-07-01,7
STUDY001,LB,STUDY001-SUBJ0005,23,L00023,WBC,White Blood Cell Count,HEMATOLOGY,4.77,10^9/L,4.5,11.0,4.77,4.77,10^9/L,4.5,11.0,NORMAL,,WEEK 1,3,2025-07-01,7
STUDY001,LB,STUDY001-SUBJ0005,24,L00024,PLT,Platelet Count,HEMATOLOGY,262.73,10^9/L,150.0,450.0,262.73,262.73,10^9/L,150.0,450.0,NORMAL,,WEEK 1,3,2025-07-01,7
STUDY001,LB,STUDY001-SUBJ0005,25,L00025,GLUC,Glucose,CHEMISTRY,86.33,mg/dL,70.0,100.0,86.33,86.33,mg/dL,70.0,100.0,NORMAL,,WEEK 1,3,2025-07-01,7
STUDY001,LB,STUDY001-SUBJ0005,26,L00026,BUN,Blood Urea Nitrogen,CHEMISTRY,12.83,mg/dL,7.0,20.0,12.83,12.83,mg/dL,7.0,20.0,NORMAL,,WEEK 1,3,2025-07-01,7
STUDY001,LB,STUDY001-SUBJ0005,27,L00027,CREAT,Creatinine,CHEMISTRY,0.76,mg/dL,0.6,1.2,0.76,0.76,mg/dL,0.6,1.2,NORMAL,,WEEK 1,3,2025-07-01,7
STUDY001,LB,STUDY001-SUBJ0005,28,L00028,BILI,Total Bilirubin,CHEMISTRY,0.31,mg/dL,0.1,1.2,0.31,0.31,mg/dL,0.1,1.2,NORMAL,,WEEK 1,3,2025-07-01,7
STUDY001,LB,STUDY001-SUBJ0005,29,L00029,ALP,Alkaline Phosphatase,CHEMISTRY,132.08,U/L,44.0,147.0,132.08,132.08,U/L,44.0,147.0,NORMAL,,WEEK 1,3,2025-07-01,7
STUDY001,LB,STUDY001-SUBJ0005,30,L00030,ALT,Alanine Aminotransferase,CHEMISTRY,32.76,U/L,7.0,56.0,32.76,32.76,U/L,7.0,56.0,NORMAL,,WEEK 1,3,2025-07-01,7
STUDY001,LB,STUDY001-SUBJ0005,31,L00031,HGB,Hemoglobin,HEMATOLOGY,13.58,g/dL,13.5,17.5,13.58,13.58,g/dL,13.5,17.5,NORMAL,,WEEK 2,4,2025-07-08,14
STUDY001,LB,STUDY001-SUBJ0005,32,L00032,HCT,Hematocrit,HEMATOLOGY,50.39,%,41.0,51.0,50.39,50.39,%,41.0,51.0,NORMAL,,WEEK 2,4,2025-07-08,14
STUDY001,LB,STUDY001-SUBJ0005,33,L00033,WBC,White Blood Cell Count,HEMATOLOGY,4.82,10^9/L,4.5,11.0,4.82,4.82,10^9/L,4.5,11.0,NORMAL,,WEEK 2,4,2025-07-08,14
STUDY001,LB,STUDY001-SUBJ0005,34,L00034,PLT,Platelet Count,HEMATOLOGY,263.97,10^9/L,150.0,450.0,263.97,263.97,10^9/L,150.0,450.0,NORMAL,,WEEK 2,4,2025-07-08,14
STUDY001,LB,STUDY001-SUBJ0005,35,L00035,GLUC,Glucose,CHEMISTRY,85.42,mg/dL,70.0,100.0,85.42,85.42,mg/dL,70.0,100.0,NORMAL,,WEEK 2,4,2025-07-08,14
STUDY001,LB,STUDY001-SUBJ0005,36,L00036,BUN,Blood Urea Nitrogen,CHEMISTRY,13.35,mg/dL,7.0,20.0,13.35,13.35,mg/dL,7.0,20.0,NORMAL,,WEEK 2,4,2025-07-08,14
STUDY001,LB,STUDY001-SUBJ0005,37,L00037,CREAT,Creatinine,CHEMISTRY,0.78,mg/dL,0.6,1.2,0.78,0.78,mg/dL,0.6,1.2,NORMAL,,WEEK 2,4,2025-07-08,14
STUDY001,LB,STUDY001-SUBJ0005,38,L00038,BILI,Total Bilirubin,CHEMISTRY,0.3,mg/dL,0.1,1.2,0.3,0.3,mg/dL,0.1,1.2,NORMAL,,WEEK 2,4,2025-07-08,14
STUDY001,LB,STUDY001-SUBJ0005,39,L00039,ALP,Alkaline Phosphatase,CHEMISTRY,129.82,U/L,44.0,147.0,129.82,129.82,U/L,44.0,147.0,NORMAL,,WEEK 2,4,2025-07-08,14
STUDY001,LB,STUDY001-SUBJ0005,40,L00040,ALT,Alanine Aminotransferase,CHEMISTRY,31.54,U/L,7.0,56.0,31.54,31.54,U/L,7.0,56.0,NORMAL,,WEEK 2,4,2025-07-08,14
STUDY001,LB,STUDY001-SUBJ0005,41,L00041,HGB,Hemoglobin,HEMATOLOGY,13.47,g/dL,13.5,17.5,13.47,13.47,g/dL,13.5,17.5,LOW,,WEEK 4,5,2025-07-22,28
STUDY001,LB,STUDY001-SUBJ0005,42,L00042,HCT,Hematocrit,HEMATOLOGY,50.23,%,41.0,51.0,50.23,50.23,%,41.0,51.0,NORMAL,,WEEK 4,5,2025-07-22,28
STUDY001,LB,STUDY001-SUBJ0005,43,L00043,WBC,White Blood Cell Count,HEMATOLOGY,4.99,10^9/L,4.5,11.0,4.99,4.99,10^9/L,4.5,11.0,NORMAL,,WEEK 4,5,2025-07-22,28
STUDY001,LB,STUDY001-SUBJ0005,44,L00044,PLT,Platelet Count,HEMATOLOGY,268.11,10^9/L,150.0,450.0,268.11,268.11,10^9/L,150.0,450.0,NORMAL,,WEEK 4,5,2025-07-22,28
STUDY001,LB,STUDY001-SUBJ0005,45,L00045,GLUC,Glucose,CHEMISTRY,86.07,mg/dL,70.0,100.0,86.07,86.07,mg/dL,70.0,100.0,NORMAL,,WEEK 4,5,2025-07-22,28
STUDY001,LB,STUDY001-SUBJ0005,46,L00046,BUN,Blood Urea Nitrogen,CHEMISTRY,12.77,mg/dL,7.0,20.0,12.77,12.77,mg/dL,7.0,20.0,NORMAL,,WEEK 4,5,2025-07-22,28
STUDY001,LB,STUDY001-SUBJ0005,47,L00047,CREAT,Creatinine,CHEMISTRY,0.77,mg/dL,0.6,1.2,0.77,0.77,mg/dL,0.6,1.2,NORMAL,,WEEK 4,5,2025-07-22,28
STUDY001,LB,STUDY001-SUBJ0005,48,L00048,BILI,Total Bilirubin,CHEMISTRY,0.36,mg/dL,0.1,1.2,0.36,0.36,mg/dL,0.1,1.2,NORMAL,,WEEK 4,5,2025-07-22,28
STUDY001,LB,STUDY001-SUBJ0005,49,L00049,ALP,Alkaline Phosphatase,CHEMISTRY,134.49,U/L,44.0,147.0,134.49,134.49,U/L,44.0,147.0,NORMAL,,WEEK 4,5,2025-07-22,28
STUDY001,LB,STUDY001-SUBJ0005,50,L00050,ALT,Alanine Aminotransferase,CHEMISTRY,31.25,U/L,7.0,56.0,31.25,31.25,U/L,7.0,56.0,NORMAL,,WEEK 4,5,2025-07-22,28
STUDY001,LB,STUDY001-SUBJ0005,51,L00051,HGB,Hemoglobin,HEMATOLOGY,13.56,g/dL,13.5,17.5,13.56,13.56,g/dL,13.5,17.5,NORMAL,,WEEK 8,6,2025-08-19,56
STUDY001,LB,STUDY001-SUBJ0005,52,L00052,HCT,Hematocrit,HEMATOLOGY,49.89,%,41.0,51.0,49.89,49.89,%,41.0,51.0,NORMAL,,WEEK 8,6,2025-08-19,56
STUDY001,LB,STUDY001-SUBJ0005,53,L00053,WBC,White Blood Cell Count,HEMATOLOGY,5.4,10^9/L,4.5,11.0,5.4,5.4,10^9/L,4.5,11.0,NORMAL,,WEEK 8,6,2025-08-19,56
STUDY001,LB,STUDY001-SUBJ0005,54,L00054,PLT,Platelet Count,HEMATOLOGY,260.91,10^9/L,150.0,450.0,260.91,260.91,10^9/L,150.0,450.0,NORMAL,,WEEK 8,6,2025-08-19,56
STUDY001,LB,STUDY001-SUBJ0005,55,L00055,GLUC,Glucose,CHEMISTRY,85.12,mg/dL,70.0,100.0,85.12,85.12,mg/dL,70.0,100.0,NORMAL,,WEEK 8,6,2025-08-19,56
STUDY001,LB,STUDY001-SUBJ0005,56,L00056,BUN,Blood Urea Nitrogen,CHEMISTRY,12.21,mg/dL,7.0,20.0,12.21,12.21,mg/dL,7.0,20.0,NORMAL,,WEEK 8,6,2025-08-19,56
STUDY001,LB,STUDY001-SUBJ0005,57,L00057,CREAT,Creatinine,CHEMISTRY,0.76,mg/dL,0.6,1.2,0.76,0.76,mg/dL,0.6,1.2,NORMAL,,WEEK 8,6,2025-08-19,56
STUDY001,LB,STUDY001-SUBJ0005,58,L00058,BILI,Total Bilirubin,CHEMISTRY,0.3,mg/dL,0.1,1.2,0.3,0.3,mg/dL,0.1,1.2,NORMAL,,WEEK 8,6,2025-08-19,56
STUDY001,LB,STUDY001-SUBJ0005,59,L00059,ALP,Alkaline Phosphatase,CHEMISTRY,133.35,U/L,44.0,147.0,133.35,133.35,U/L,44.0,147.0,NORMAL,,WEEK 8,6,2025-08-19,56
STUDY001,LB,STUDY001-SUBJ0005,60,L00060,ALT,Alanine Aminotransferase,CHEMISTRY,32.95,U/L,7.0,56.0,32.95,32.95,U/L,7.0,56.0,NORMAL,,WEEK 8,6,2025-08-19,56
STUDY001,LB,STUDY001-SUBJ0005,61,L00061,HGB,Hemoglobin,HEMATOLOGY,13.43,g/dL,13.5,17.5,13.43,13.43,g/dL,13.5,17.5,LOW,,WEEK 12,7,2025-09-16,84
STUDY001,LB,STUDY001-SUBJ0005,62,L00062,HCT,Hematocrit,HEMATOLOGY,50.44,%,41.0,51.0,50.44,50.44,%,41.0,51.0,NORMAL,,WEEK 12,7,2025-09-16,84
STUDY001,LB,STUDY001-SUBJ0005,63,L00063,WBC,White Blood Cell Count,HEMATOLOGY,4.94,10^9/L,4.5,11.0,4.94,4.94,10^9/L,4.5,11.0,NORMAL,,WEEK 12,7,2025-09-16,84
STUDY001,LB,STUDY001-SUBJ0005,64,L00064,PLT,Platelet Count,HEMATOLOGY,266.01,10^9/L,150.0,450.0,266.01,266.01,10^9/L,150.0,450.0,NORMAL,,WEEK 12,7,2025-09-16,84
STUDY001,LB,STUDY001-SUBJ0005,65,L00065,GLUC,Glucose,CHEMISTRY,87.47,mg/dL,70.0,100.0,87.47,87.47,mg/dL,70.0,100.0,NORMAL,,WEEK 12,7,2025-09-16,84
STUDY001,LB,STUDY001-SUBJ0005,66,L00066,BUN,Blood Urea Nitrogen,CHEMISTRY,12.97,mg/dL,7.0,20.0,12.97,12.97,mg/dL,7.0,20.0,NORMAL,,WEEK 12,7,2025-09-16,84
STUDY001,LB,STUDY001-SUBJ0005,67,L00067,CREAT,Creatinine,CHEMISTRY,0.76,mg/dL,0.6,1.2,0.76,0.76,mg/dL,0.6,1.2,NORMAL,,WEEK 12,7,2025-09-16,84
STUDY001,LB,STUDY001-SUBJ0005,68,L00068,BILI,Total Bilirubin,CHEMISTRY,0.32,mg/dL,0.1,1.2,0.32,0.32,mg/dL,0.1,1.2,NORMAL,,WEEK 12,7,2025-09-16,84
STUDY001,LB,STUDY001-SUBJ0005,69,L00069,ALP,Alkaline Phosphatase,CHEMISTRY,134.42,U/L,44.0,147.0,134.42,134.42,U/L,44.0,147.0,NORMAL,,WEEK 12,7,2025-09-16,84
STUDY001,LB,STUDY001-SUBJ0005,70,L00070,ALT,Alanine Aminotransferase,CHEMISTRY,32.55,U/L,7.0,56.0,32.55,32.55,U/L,7.0,56.0,NORMAL,,WEEK 12,7,2025-09-16,84
STUDY001,LB,STUDY001-SUBJ0005,71,L00071,HGB,Hemoglobin,HEMATOLOGY,13.59,g/dL,13.5,17.5,13.59,13.59,g/dL,13.5,17.5,NORMAL,,WEEK 16,8,2025-10-14,112
STUDY001,LB,STUDY001-SUBJ0005,72,L00072,HCT,Hematocrit,HEMATOLOGY,50.49,%,41.0,51.0,50.49,50.49,%,41.0,51.0,NORMAL,,WEEK 16,8,2025-10-14,112
STUDY001,LB,STUDY001-SUBJ0005,73,L00073,WBC,White Blood Cell Count,HEMATOLOGY,4.96,10^9/L,4.5,11.0,4.96,4.96,10^9/L,4.5,11.0,NORMAL,,WEEK 16,8,2025-10-14,112
STUDY001,LB,STUDY001-SUBJ0005,74,L00074,PLT,Platelet Count,HEMATOLOGY,272.14,10^9/L,150.0,450.0,272.14,272.14,10^9/L,150.0,450.0,NORMAL,,WEEK 16,8,2025-10-14,112
STUDY001,LB,STUDY001-SUBJ0005,75,L00075,GLUC,Glucose,CHEMISTRY,85.12,mg/dL,70.0,100.0,85.12,85.12,mg/dL,70.0,100.0,NORMAL,,WEEK 16,8,2025-10-14,112
STUDY001,LB,STUDY001-SUBJ0005,76,L00076,BUN,Blood Urea Nitrogen,CHEMISTRY,12.93,mg/dL,7.0,20.0,12.93,12.93,mg/dL,7.0,20.0,NORMAL,,WEEK 16,8,2025-10-14,112
STUDY001,LB,STUDY001-SUBJ0005,77,L00077,CREAT,Creatinine,CHEMISTRY,0.74,mg/dL,0.6,1.2,0.74,0.74,mg/dL,0.6,1.2,NORMAL,,WEEK 16,8,2025-10-14,112
STUDY001,LB,STUDY001-SUBJ0005,78,L00078,BILI,Total Bilirubin,CHEMISTRY,0.32,mg/dL,0.1,1.2,0.32,0.32,mg/dL,0.1,1.2,NORMAL,,WEEK 16,8,2025-10-14,112
STUDY001,LB,STUDY001-SUBJ0005,79,L00079,ALP,Alkaline Phosphatase,CHEMISTRY,130.19,U/L,44.0,147.0,130.19,130.19,U/L,44.0,147.0,NORMAL,,WEEK 16,8,2025-10-14,112
STUDY001,LB,STUDY001-SUBJ0005,80,L00080,ALT,Alanine Aminotransferase,CHEMISTRY,31.69,U/L,7.0,56.0,31.69,31.69,U/L,7.0,56.0,NORMAL,,WEEK 16,8,2025-10-14,112
STUDY001,LB,STUDY001-SUBJ0005,81,L00081,HGB,Hemoglobin,HEMATOLOGY,13.58,g/dL,13.5,17.5,13.58,13.58,g/dL,13.5,17.5,NORMAL,,END OF TREATMENT,9,2025-11-11,140
STUDY001,LB,STUDY001-SUBJ0005,82,L00082,HCT,Hematocrit,HEMATOLOGY,50.18,%,41.0,51.0,50.18,50.18,%,41.0,51.0,NORMAL,,END OF TREATMENT,9,2025-11-11,140
STUDY001,LB,STUDY001-SUBJ0005,83,L00083,WBC,White Blood Cell Count,HEMATOLOGY,5.09,10^9/L,4.5,11.0,5.09,5.09,10^9/L,4.5,11.0,NORMAL,,END OF TREATMENT,9,2025-11-11,140
STUDY001,LB,STUDY001-SUBJ0005,84,L00084,PLT,Platelet Count,HEMATOLOGY,258.53,10^9/L,150.0,450.0,258.53,258.53,10^9/L,150.0,450.0,NORMAL,,END OF TREATMENT,9,2025-11-11,140
STUDY001,LB,STUDY001-SUBJ0005,85,L00085,GLUC,Glucose,CHEMISTRY,86.72,mg/dL,70.0,100.0,86.72,86.72,mg/dL,70.0,100.0,NORMAL,,END OF TREATMENT,9,2025-11-11,140
STUDY001,LB,STUDY001-SUBJ0005,86,L00086,BUN,Blood Urea Nitrogen,CHEMISTRY,12.95,mg/dL,7.0,20.0,12.95,12.95,mg/dL,7.0,20.0,NORMAL,,END OF TREATMENT,9,2025-11-11,140
STUDY001,LB,STUDY001-SUBJ0005,87,L00087,CREAT,Creatinine,CHEMISTRY,0.79,mg/dL,0.6,1.2,0.79,0.79,mg/dL,0.6,1.2,NORMAL,,END OF TREATMENT,9,2025-11-11,140
STUDY001,LB,STUDY001-SUBJ0005,88,L00088,BILI,Total Bilirubin,CHEMISTRY,0.33,mg/dL,0.1,1.2,0.33,0.33,mg/dL,0.1,1.2,NORMAL,,END OF TREATMENT,9,2025-11-11,140
STUDY001,LB,STUDY001-SUBJ0005,89,L00089,ALP,Alkaline Phosphatase,CHEMISTRY,131.34,U/L,44.0,147.0,131.34,131.34,U/L,44.0,147.0,NORMAL,,END OF TREATMENT,9,2025-11-11,140
STUDY001,LB,STUDY001-SUBJ0005,90,L00090,ALT,Alanine Aminotransferase,CHEMISTRY,33.29,U/L,7.0,56.0,33.29,33.29,U/L,7.0,56.0,NORMAL,,END OF TREATMENT,9,2025-11-11,140
STUDY001,LB,STUDY001-SUBJ0006,1,L00001,HGB,Hemoglobin,HEMATOLOGY,14.83,g/dL,13.5,17.5,14.83,14.83,g/dL,13.5,17.5,NORMAL,,SCREENING,1,2024-10-17,-14
STUDY001,LB,STUDY001-SUBJ0006,2,L00002,HCT,Hematocrit,HEMATOLOGY,50.53,%,41.0,51.0,50.53,50.53,%,41.0,51.0,NORMAL,,SCREENING,1,2024-10-17,-14
STUDY001,LB,STUDY001-SUBJ0006,3,L00003,WBC,White Blood Cell Count,HEMATOLOGY,7.43,10^9/L,4.5,11.0,7.43,7.43,10^9/L,4.5,11.0,NORMAL,,SCREENING,1,2024-10-17,-14
STUDY001,LB,STUDY001-SUBJ0006,4,L00004,PLT,Platelet Count,HEMATOLOGY,312.11,10^9/L,150.0,450.0,312.11,312.11,10^9/L,150.0,450.0,NORMAL,,SCREENING,1,2024-10-17,-14
STUDY001,LB,STUDY001-SUBJ0006,5,L00005,GLUC,Glucose,CHEMISTRY,80.65,mg/dL,70.0,100.0,80.65,80.65,mg/dL,70.0,100.0,NORMAL,,SCREENING,1,2024-10-17,-14
STUDY001,LB,STUDY001-SUBJ0006,6,L00006,BUN,Blood Urea Nitrogen,CHEMISTRY,12.69,mg/dL,7.0,20.0,12.69,12.69,mg/dL,7.0,20.0,NORMAL,,SCREENING,1,2024-10-17,-14
STUDY001,LB,STUDY001-SUBJ0006,7,L00007,CREAT,Creatinine,CHEMISTRY,1.27,mg/dL,0.6,1.2,1.27,1.27,mg/dL,0.6,1.2,HIGH,,SCREENING,1,2024-10-17,-14
STUDY001,LB,STUDY001-SUBJ0006,8,L00008,BILI,Total Bilirubin,CHEMISTRY,0.6,mg/dL,0.1,1.2,0.6,0.6,mg/dL,0.1,1.2,NORMAL,,SCREENING,1,2024-10-17,-14
STUDY001,LB,STUDY001-SUBJ0006,9,L00009,ALP,Alkaline Phosphatase,CHEMISTRY,93.04,U/L,44.0,147.0,93.04,93.04,U/L,44.0,147.0,NORMAL,,SCREENING,1,2024-10-17,-14
STUDY001,LB,STUDY001-SUBJ0006,10,L00010,ALT,Alanine Aminotransferase,CHEMISTRY,29.12,U/L,7.0,56.0,29.12,29.12,U/L,7.0,56.0,NORMAL,,SCREENING,1,2024-10-17,-14
STUDY001,LB,STUDY001-SUBJ0006,11,L00011,HGB,Hemoglobin,HEMATOLOGY,14.71,g/dL,13.5,17.5,14.71,14.71,g/dL,13.5,17.5,NORMAL,Y,BASELINE,2,2024-10-31,1
STUDY001,LB,STUDY001-SUBJ0006,12,L00012,HCT,Hematocrit,HEMATOLOGY,50.7,%,41.0,51.0,50.7,50.7,%,41.0,51.0,NORMAL,Y,BASELINE,2,2024-10-31,1
STUDY001,LB,STUDY001-SUBJ0006,13,L00013,WBC,White Blood Cell Count,HEMATOLOGY,7.41,10^9/L,4.5,11.0,7.41,7.41,10^9/L,4.5,11.0,NORMAL,Y,BASELINE,2,2024-10-31,1
STUDY001,LB,STUDY001-SUBJ0006,14,L00014,PLT,Platelet Count,HEMATOLOGY,306.4,10^9/L,150.0,450.0,306.4,306.4,10^9/L,150.0,450.0,NORMAL,Y,BASELINE,2,2024-10-31,1
STUDY001,LB,STUDY001-SUBJ0006,15,L00015,GLUC,Glucose,CHEMISTRY,80.07,mg/dL,70.0,100.0,80.07,80.07,mg/dL,70.0,100.0,NORMAL,Y,BASELINE,2,2024-10-31,1
STUDY001,LB,STUDY001-SUBJ0006,16,L00016,BUN,Blood Urea Nitrogen,CHEMISTRY,12.85,mg/dL,7.0,20.0,12.85,12.85,mg/dL,7.0,20.0,NORMAL,Y,BASELINE,2,2024-10-31,1
STUDY001,LB,STUDY001-SUBJ0006,17,L00017,CREAT,Creatinine,CHEMISTRY,1.26,mg/dL,0.6,1.2,1.26,1.26,mg/dL,0.6,1.2,HIGH,Y,BASELINE,2,2024-10-31,1
STUDY001,LB,STUDY001-SUBJ0006,18,L00018,BILI,Total Bilirubin,CHEMISTRY,0.59,mg/dL,0.1,1.2,0.59,0.59,mg/dL,0.1,1.2,NORMAL,Y,BASELINE,2,2024-10-31,1
STUDY001,LB,STUDY001-SUBJ0006,19,L00019,ALP,Alkaline Phosphatase,CHEMISTRY,90.24,U/L,44.0,147.0,90.24,90.24,U/L,44.0,147.0,NORMAL,Y,BASELINE,2,2024-10-31,1
STUDY001,LB,STUDY001-SUBJ0006,20,L00020,ALT,Alanine Aminotransferase,CHEMISTRY,28.02,U/L,7.0,56.0,28.02,28.02,U/L,7.0,56.0,NORMAL,Y,BASELINE,2,2024-10-31,1
STUDY001,LB,STUDY001-SUBJ0006,21,L00021,HGB,Hemoglobin,HEMATOLOGY,14.56,g/dL,13.5,17.5,14.56,14.56,g/dL,13.5,17.5,NORMAL,,WEEK 1,3,2024-11-06,7
STUDY001,LB,STUDY001-SUBJ0006,22,L00022,HCT,Hematocrit,HEMATOLOGY,50.76,%,41.0,51.0,50.76,50.76,%,41.0,51.0,NORMAL,,WEEK 1,3,2024-11-06,7
STUDY001,LB,STUDY001-SUBJ0006,23,L00023,WBC,White Blood Cell Count,HEMATOLOGY,7.67,10^9/L,4.5,11.0,7.67,7.67,10^9/L,4.5,11.0,NORMAL,,WEEK 1,3,2024-11-06,7
STUDY001,LB,STUDY001-SUBJ0006,24,L00024,PLT,Platelet Count,HEMATOLOGY,302.22,10^9/L,150.0,450.0,302.22,302.22,10^9/L,150.0,450.0,NORMAL,,WEEK 1,3,2024-11-06,7
STUDY001,LB,STUDY001-SUBJ0006,25,L00025,GLUC,Glucose,CHEMISTRY,80.11,mg/dL,70.0,100.0,80.11,80.11,mg/dL,70.0,100.0,NORMAL,,WEEK 1,3,2024-11-06,7
STUDY001,LB,STUDY001-SUBJ0006,26,L00026,BUN,Blood Urea Nitrogen,CHEMISTRY,12.13,mg/dL,7.0,20.0,12.13,12.13,mg/dL,7.0,20.0,NORMAL,,WEEK 1,3,2024-11-06,7
STUDY001,LB,STUDY001-SUBJ0006,27,L00027,CREAT,Creatinine,CHEMISTRY,1.26,mg/dL,0.6,1.2,1.26,1.26,mg/dL,0.6,1.2,HIGH,,WEEK 1,3,2024-11-06,7
STUDY001,LB,STUDY001-SUBJ0006,28,L00028,BILI,Total Bilirubin,CHEMISTRY,0.64,mg/dL,0.1,1.2,0.64,0.64,mg/dL,0.1,1.2,NORMAL,,WEEK 1,3,2024-11-06,7
STUDY001,LB,STUDY001-SUBJ0006,29,L00029,ALP,Alkaline Phosphatase,CHEMISTRY,93.02,U/L,44.0,147.0,93.02,93.02,U/L,44.0,147.0,NORMAL,,WEEK 1,3,2024-11-06,7
STUDY001,LB,STUDY001-SUBJ0006,30,L00030,ALT,Alanine Aminotransferase,CHEMISTRY,28.19,U/L,7.0,56.0,28.19,28.19,U/L,7.0,56.0,NORMAL,,WEEK 1,3,2024-11-06,7
STUDY001,LB,STUDY001-SUBJ0006,31,L00031,HGB,Hemoglobin,HEMATOLOGY,14.85,g/dL,13.5,17.5,14.85,14.85,g/dL,13.5,17.5,NORMAL,,WEEK 2,4,2024-11-13,14
STUDY001,LB,STUDY001-SUBJ0006,32,L00032,HCT,Hematocrit,HEMATOLOGY,50.79,%,41.0,51.0,50.79,50.79,%,41.0,51.0,NORMAL,,WEEK 2,4,2024-11-13,14
STUDY001,LB,STUDY001-SUBJ0006,33,L00033,WBC,White Blood Cell Count,HEMATOLOGY,7.41,10^9/L,4.5,11.0,7.41,7.41,10^9/L,4.5,11.0,NORMAL,,WEEK 2,4,2024-11-13,14
STUDY001,LB,STUDY001-SUBJ0006,34,L00034,PLT,Platelet Count,HEMATOLOGY,303.34,10^9/L,150.0,450.0,303.34,303.34,10^9/L,150.0,450.0,NORMAL,,WEEK 2,4,2024-11-13,14
STUDY001,LB,STUDY001-SUBJ0006,35,L00035,GLUC,Glucose,CHEMISTRY,79.25,mg/dL,70.0,100.0,79.25,79.25,mg/dL,70.0,100.0,NORMAL,,WEEK 2,4,2024-11-13,14
STUDY001,LB,STUDY001-SUBJ0006,36,L00036,BUN,Blood Urea Nitrogen,CHEMISTRY,12.56,mg/dL,7.0,20.0,12.56,12.56,mg/dL,7.0,20.0,NORMAL,,WEEK 2,4,2024-11-13,14
STUDY001,LB,STUDY001-SUBJ0006,37,L00037,CREAT,Creatinine,CHEMISTRY,1.23,mg/dL,0.6,1.2,1.23,1.23,mg/dL,0.6,1.2,HIGH,,WEEK 2,4,2024-11-13,14
STUDY001,LB,STUDY001-SUBJ0006,38,L00038,BILI,Total Bilirubin,CHEMISTRY,0.59,mg/dL,0.1,1.2,0.59,0.59,mg/dL,0.1,1.2,NORMAL,,WEEK 2,4,2024-11-13,14
STUDY001,LB,STUDY001-SUBJ0006,39,L00039,ALP,Alkaline Phosphatase,CHEMISTRY,94.22,U/L,44.0,147.0,94.22,94.22,U/L,44.0,147.0,NORMAL,,WEEK 2,4,2024-11-13,14
STUDY001,LB,STUDY001-SUBJ0006,40,L00040,ALT,Alanine Aminotransferase,CHEMISTRY,28.92,U/L,7.0,56.0,28.92,28.92,U/L,7.0,56.0,NORMAL,,WEEK 2,4,2024-11-13,14
STUDY001,LB,STUDY001-SUBJ0006,41,L00041,HGB,Hemoglobin,HEMATOLOGY,14.87,g/dL,13.5,17.5,14.87,14.87,g/dL,13.5,17.5,NORMAL,,WEEK 4,5,2024-11-27,28
STUDY001,LB,STUDY001-SUBJ0006,42,L00042,HCT,Hematocrit,HEMATOLOGY,51.01,%,41.0,51.0,51.01,51.01,%,41.0,51.0,HIGH,,WEEK 4,5,2024-11-27,28
STUDY001,LB,STUDY001-SUBJ0006,43,L00043,WBC,White Blood Cell Count,HEMATOLOGY,7.65,10^9/L,4.5,11.0,7.65,7.65,10^9/L,4.5,11.0,NORMAL,,WEEK 4,5,2024-11-27,28
STUDY001,LB,STUDY001-SUBJ0006,44,L00044,PLT,Platelet Count,HEMATOLOGY,290.37,10^9/L,150.0,450.0,290.37,290.37,10^9/L,150.0,450.0,NORMAL,,WEEK 4,5,2024-11-27,28
STUDY001,LB,STUDY001-SUBJ0006,45,L00045,GLUC,Glucose,CHEMISTRY,81.63,mg/dL,70.0,100.0,81.63,81.63,mg/dL,70.0,100.0,NORMAL,,WEEK 4,5,2024-11-27,28
STUDY001,LB,STUDY001-SUBJ0006,46,L00046,BUN,Blood Urea Nitrogen,CHEMISTRY,12.59,mg/dL,7.0,20.0,12.59,12.59,mg/dL,7.0,20.0,NORMAL,,WEEK 4,5,2024-11-27,28
STUDY001,LB,STUDY001-SUBJ0006,47,L00047,CREAT,Creatinine,CHEMISTRY,1.27,mg/dL,0.6,1.2,1.27,1.27,mg/dL,0.6,1.2,HIGH,,WEEK 4,5,2024-11-27,28
STUDY001,LB,STUDY001-SUBJ0006,48,L00048,BILI,Total Bilirubin,CHEMISTRY,0.61,mg/dL,0.1,1.2,0.61,0.61,mg/dL,0.1,1.2,NORMAL,,WEEK 4,5,2024-11-27,28
STUDY001,LB,STUDY001-SUBJ0006,49,L00049,ALP,Alkaline Phosphatase,CHEMISTRY,92.86,U/L,44.0,147.0,92.86,92.86,U/L,44.0,147.0,NORMAL,,WEEK 4,5,2024-11-27,28
STUDY001,LB,STUDY001-SUBJ0006,50,L00050,ALT,Alanine Aminotransferase,CHEMISTRY,29.72,U/L,7.0,56.0,29.72,29.72,U/L,7.0,56.0,NORMAL,,WEEK 4,5,2024-11-27,28
STUDY001,LB,STUDY001-SUBJ0006,51,L00051,HGB,Hemoglobin,HEMATOLOGY,14.74,g/dL,13.5,17.5,14.74,14.74,g/dL,13.5,17.5,NORMAL,,WEEK 8,6,2024-12-25,56
STUDY001,LB,STUDY001-SUBJ0006,52,L00052,HCT,Hematocrit,HEMATOLOGY,50.46,%,41.0,51.0,50.46,50.46,%,41.0,51.0,NORMAL,,WEEK 8,6,2024-12-25,56
STUDY001,LB,STUDY001-SUBJ0006,53,L00053,WBC,White Blood Cell Count,HEMATOLOGY,7.65,10^9/L,4.5,11.0,7.65,7.65,10^9/L,4.5,11.0,NORMAL,,WEEK 8,6,2024-12-25,56
STUDY001,LB,STUDY001-SUBJ0006,54,L00054,PLT,Platelet Count,HEMATOLOGY,309.88,10^9/L,150.0,450.0,309.88,309.88,10^9/L,150.0,450.0,NORMAL,,WEEK 8,6,2024-12-25,56
STUDY001,LB,STUDY001-SUBJ0006,55,L00055,GLUC,Glucose,CHEMISTRY,82.4,mg/dL,70.0,100.0,82.4,82.4,mg/dL,70.0,100.0,NORMAL,,WEEK 8,6,2024-12-25,56
STUDY001,LB,STUDY001-SUBJ0006,56,L00056,BUN,Blood Urea Nitrogen,CHEMISTRY,12.19,mg/dL,7.0,20.0,12.19,12.19,mg/dL,7.0,20.0,NORMAL,,WEEK 8,6,2024-12-25,56
STUDY001,LB,STUDY001-SUBJ0006,57,L00057,CREAT,Creatinine,CHEMISTRY,1.24,mg/dL,0.6,1.2,1.24,1.24,mg/dL,0.6,1.2,HIGH,,WEEK 8,6,2024-12-25,56
STUDY001,LB,STUDY001-SUBJ0006,58,L00058,BILI,Total Bilirubin,CHEMISTRY,0.63,mg/dL,0.1,1.2,0.63,0.63,mg/dL,0.1,1.2,NORMAL,,WEEK 8,6,2024-12-25,56
STUDY001,LB,STUDY001-SUBJ0006,59,L00059,ALP,Alkaline Phosphatase,CHEMISTRY,94.69,U/L,44.0,147.0,94.69,94.69,U/L,44.0,147.0,NORMAL,,WEEK 8,6,2024-12-25,56
STUDY001,LB,STUDY001-SUBJ0006,60,L00060,ALT,Alanine Aminotransferase,CHEMISTRY,29.32,U/L,7.0,56.0,29.32,29.32,U/L,7.0,56.0,NORMAL,,WEEK 8,6,2024-12-25,56
STUDY001,LB,STUDY001-SUBJ0006,61,L00061,HGB,Hemoglobin,HEMATOLOGY,14.58,g/dL,13.5,17.5,14.58,14.58,g/dL,13.5,17.5,NORMAL,,WEEK 12,7,2025-01-22,84
STUDY001,LB,STUDY001-SUBJ0006,62,L00062,HCT,Hematocrit,HEMATOLOGY,50.23,%,41.0,51.0,50.23,50.23,%,41.0,51.0,NORMAL,,WEEK 12,7,2025-01-22,84
STUDY001,LB,STUDY001-SUBJ0006,63,L00063,WBC,White Blood Cell Count,HEMATOLOGY,7.51,10^9/L,4.5,11.0,7.51,7.51,10^9/L,4.5,11.0,NORMAL,,WEEK 12,7,2025-01-22,84
STUDY001,LB,STUDY001-SUBJ0006,64,L00064,PLT,Platelet Count,HEMATOLOGY,307.5,10^9/L,150.0,450.0,307.5,307.5,10^9/L,150.0,450.0,NORMAL,,WEEK 12,7,2025-01-22,84
STUDY001,LB,STUDY001-SUBJ0006,65,L00065,GLUC,Glucose,CHEMISTRY,80.16,mg/dL,70.0,100.0,80.16,80.16,mg/dL,70.0,100.0,NORMAL,,WEEK 12,7,2025-01-22,84
STUDY001,LB,STUDY001-SUBJ0006,66,L00066,BUN,Blood Urea Nitrogen,CHEMISTRY,12.54,mg/dL,7.0,20.0,12.54,12.54,mg/dL,7.0,20.0,NORMAL,,WEEK 12,7,2025-01-22,84
STUDY001,LB,STUDY001-SUBJ0006,67,L00067,CREAT,Creatinine,CHEMISTRY,1.22,mg/dL,0.6,1.2,1.22,1.22,mg/dL,0.6,1.2,HIGH,,WEEK 12,7,2025-01-22,84
STUDY001,LB,STUDY001-SUBJ0006,68,L00068,BILI,Total Bilirubin,CHEMISTRY,0.62,mg/dL,0.1,1.2,0.62,0.62,mg/dL,0.1,1.2,NORMAL,,WEEK 12,7,2025-01-22,84
STUDY001,LB,STUDY001-SUBJ0006,69,L00069,ALP,Alkaline Phosphatase,CHEMISTRY,88.48,U/L,44.0,147.0,88.48,88.48,U/L,44.0,147.0,NORMAL,,WEEK 12,7,2025-01-22,84
STUDY001,LB,STUDY001-SUBJ0006,70,L00070,ALT,Alanine Aminotransferase,CHEMISTRY,29.11,U/L,7.0,56.0,29.11,29.11,U/L,7.0,56.0,NORMAL,,WEEK 12,7,2025-01-22,84
STUDY001,LB,STUDY001-SUBJ0006,71,L00071,HGB,Hemoglobin,HEMATOLOGY,14.73,g/dL,13.5,17.5,14.73,14.73,g/dL,13.5,17.5,NORMAL,,WEEK 16,8,2025-02-19,112
STUDY001,LB,STUDY001-SUBJ0006,72,L00072,HCT,Hematocrit,HEMATOLOGY,50.49,%,41.0,51.0,50.49,50.49,%,41.0,51.0,NORMAL,,WEEK 16,8,2025-02-19,112
STUDY001,LB,STUDY001-SUBJ0006,73,L00073,WBC,White Blood Cell Count,HEMATOLOGY,7.49,10^9/L,4.5,11.0,7.49,7.49,10^9/L,4.5,11.0,NORMAL,,WEEK 16,8,2025-02-19,112
STUDY001,LB,STUDY001-SUBJ0006,74,L00074,PLT,Platelet Count,HEMATOLOGY,304.85,10^9/L,150.0,450.0,304.85,304.85,10^9/L,150.0,450.0,NORMAL,,WEEK 16,8,2025-02-19,112
STUDY001,LB,STUDY001-SUBJ0006,75,L00075,GLUC,Glucose,CHEMISTRY,80.72,mg/dL,70.0,100.0,80.72,80.72,mg/dL,70.0,100.0,NORMAL,,WEEK 16,8,2025-02-19,112
STUDY001,LB,STUDY001-SUBJ0006,76,L00076,BUN,Blood Urea Nitrogen,CHEMISTRY,12.36,mg/dL,7.0,20.0,12.36,12.36,mg/dL,7.0,20.0,NORMAL,,WEEK 16,8,2025-02-19,112
STUDY001,LB,STUDY001-SUBJ0006,77,L00077,CREAT,Creatinine,CHEMISTRY,1.23,mg/dL,0.6,1.2,1.23,1.23,mg/dL,0.6,1.2,HIGH,,WEEK 16,8,2025-02-19,112
STUDY001,LB,STUDY001-SUBJ0006,78,L00078,BILI,Total Bilirubin,CHEMISTRY,0.63,mg/dL,0.1,1.2,0.63,0.63,mg/dL,0.1,1.2,NORMAL,,WEEK 16,8,2025-02-19,112
STUDY001,LB,STUDY001-SUBJ0006,79,L00079,ALP,Alkaline Phosphatase,CHEMISTRY,92.98,U/L,44.0,147.0,92.98,92.98,U/L,44.0,147.0,NORMAL,,WEEK 16,8,2025-02-19,112
STUDY001,LB,STUDY001-SUBJ0006,80,L00080,ALT,Alanine Aminotransferase,CHEMISTRY,29.03,U/L,7.0,56.0,29.03,29.03,U/L,7.0,56.0,NORMAL,,WEEK 16,8,2025-02-19,112
STUDY001,LB,STUDY001-SUBJ0006,81,L00081,HGB,Hemoglobin,HEMATOLOGY,14.64,g/dL,13.5,17.5,14.64,14.64,g/dL,13.5,17.5,NORMAL,,END OF TREATMENT,9,2025-03-19,140
STUDY001,LB,STUDY001-SUBJ0006,82,L00082,HCT,Hematocrit,HEMATOLOGY,50.51,%,41.0,51.0,50.51,50.51,%,41.0,51.0,NORMAL,,END OF TREATMENT,9,2025-03-19,140
STUDY001,LB,STUDY001-SUBJ0006,83,L00083,WBC,White Blood Cell Count,HEMATOLOGY,7.52,10^9/L,4.5,11.0,7.52,7.52,10^9/L,4.5,11.0,NORMAL,,END OF TREATMENT,9,2025-03-19,140
STUDY001,LB,STUDY001-SUBJ0006,84,L00084,PLT,Platelet Count,HEMATOLOGY,298.04,10^9/L,150.0,450.0,298.04,298.04,10^9/L,150.0,450.0,NORMAL,,END OF TREATMENT,9,2025-03-19,140
STUDY001,LB,STUDY001-SUBJ0006,85,L00085,GLUC,Glucose,CHEMISTRY,79.08,mg/dL,70.0,100.0,79.08,79.08,mg/dL,70.0,100.0,NORMAL,,END OF TREATMENT,9,2025-03-19,140
STUDY001,LB,STUDY001-SUBJ0006,86,L00086,BUN,Blood Urea Nitrogen,CHEMISTRY,12.25,mg/dL,7.0,20.0,12.25,12.25,mg/dL,7.0,20.0,NORMAL,,END OF TREATMENT,9,2025-03-19,140
STUDY001,LB,STUDY001-SUBJ0006,87,L00087,CREAT,Creatinine,CHEMISTRY,1.23,mg/dL,0.6,1.2,1.23,1.23,mg/dL,0.6,1.2,HIGH,,END OF TREATMENT,9,2025-03-19,140
STUDY001,LB,STUDY001-SUBJ0006,88,L00088,BILI,Total Bilirubin,CHEMISTRY,0.56,mg/dL,0.1,1.2,0.56,0.56,mg/dL,0.1,1.2,NORMAL,,END OF TREATMENT,9,2025-03-19,140
STUDY001,LB,STUDY001-SUBJ0006,89,L00089,ALP,Alkaline Phosphatase,CHEMISTRY,91.8,U/L,44.0,147.0,91.8,91.8,U/L,44.0,147.0,NORMAL,,END OF TREATMENT,9,2025-03-19,140
STUDY001,LB,STUDY001-SUBJ0006,90,L00090,ALT,Alanine Aminotransferase,CHEMISTRY,27.49,U/L,7.0,56.0,27.49,27.49,U/L,7.0,56.0,NORMAL,,END OF TREATMENT,9,2025-03-19,140
STUDY001,LB,STUDY001-SUBJ0007,1,L00001,HGB,Hemoglobin,HEMATOLOGY,14.93,g/dL,13.5,17.5,14.93,14.93,g/dL,13.5,17.5,NORMAL,,SCREENING,1,2025-06-27,-14
STUDY001,LB,STUDY001-SUBJ0007,2,L00002,HCT,Hematocrit,HEMATOLOGY,47.47,%,41.0,51.0,47.47,47.47,%,41.0,51.0,NORMAL,,SCREENING,1,2025-06-27,-14
STUDY001,LB,STUDY001-SUBJ0007,3,L00003,WBC,White Blood Cell Count,HEMATOLOGY,8.62,10^9/L,4.5,11.0,8.62,8.62,10^9/L,4.5,11.0,NORMAL,,SCREENING,1,2025-06-27,-14
STUDY001,LB,STUDY001-SUBJ0007,4,L00004,PLT,Platelet Count,HEMATOLOGY,377.99,10^9/L,150.0,450.0,377.99,377.99,10^9/L,150.0,450.0,NORMAL,,SCREENING,1,2025-06-27,-14
STUDY001,LB,STUDY001-SUBJ0007,5,L00005,GLUC,Glucose,CHEMISTRY,81.59,mg/dL,70.0,100.0,81.59,81.59,mg/dL,70.0,100.0,NORMAL,,SCREENING,1,2025-06-27,-14
STUDY001,LB,STUDY001-SUBJ0007,6,L00006,BUN,Blood Urea Nitrogen,CHEMISTRY,14.28,mg/dL,7.0,20.0,14.28,14.28,mg/dL,7.0,20.0,NORMAL,,SCREENING,1,2025-06-27,-14
STUDY001,LB,STUDY001-SUBJ0007,7,L00007,CREAT,Creatinine,CHEMISTRY,0.92,mg/dL,0.6,1.2,0.92,0.92,mg/dL,0.6,1.2,NORMAL,,SCREENING,1,2025-06-27,-14
STUDY001,LB,STUDY001-SUBJ0007,8,L00008,BILI,Total Bilirubin,CHEMISTRY,0.87,mg/dL,0.1,1.2,0.87,0.87,mg/dL,0.1,1.2,NORMAL,,SCREENING,1,2025-06-27,-14
STUDY001,LB,STUDY001-SUBJ0007,9,L00009,ALP,Alkaline Phosphatase,CHEMISTRY,75.71,U/L,44.0,147.0,75.71,75.71,U/L,44.0,147.0,NORMAL,,SCREENING,1,2025-06-27,-14
STUDY001,LB,STUDY001-SUBJ0007,10,L00010,ALT,Alanine Aminotransferase,CHEMISTRY,12.3,U/L,7.0,56.0,12.3,12.3,U/L,7.0,56.0,NORMAL,,SCREENING,1,2025-06-27,-14
STUDY001,LB,STUDY001-SUBJ0007,11,L00011,HGB,Hemoglobin,HEMATOLOGY,14.87,g/dL,13.5,17.5,14.87,14.87,g/dL,13.5,17.5,NORMAL,Y,BASELINE,2,2025-07-11,1
STUDY001,LB,STUDY001-SUBJ0007,12,L00012,HCT,Hematocrit,HEMATOLOGY,47.72,%,41.0,51.0,47.72,47.72,%,41.0,51.0,NORMAL,Y,BASELINE,2,2025-07-11,1
STUDY001,LB,STUDY001-SUBJ0007,13,L00013,WBC,White Blood Cell Count,HEMATOLOGY,8.51,10^9/L,4.5,11.0,8.51,8.51,10^9/L,4.5,11.0,NORMAL,Y,BASELINE,2,2025-07-11,1
STUDY001,LB,STUDY001-SUBJ0007,14,L00014,PLT,Platelet Count,HEMATOLOGY,380.86,10^9/L,150.0,450.0,380.86,380.86,10^9/L,150.0,450.0,NORMAL,Y,BASELINE,2,2025-07-11,1
STUDY001,LB,STUDY001-SUBJ0007,15,L00015,GLUC,Glucose,CHEMISTRY,83.29,mg/dL,70.0,100.0,83.29,83.29,mg/dL,70.0,100.0,NORMAL,Y,BASELINE,2,2025-07-11,1
STUDY001,LB,STUDY001-SUBJ0007,16,L00016,BUN,Blood Urea Nitrogen,CHEMISTRY,14.45,mg/dL,7.0,20.0,14.45,14.45,mg/dL,7.0,20.0,NORMAL,Y,BASELINE,2,2025-07-11,1
STUDY001,LB,STUDY001-SUBJ0007,17,L00017,CREAT,Creatinine,CHEMISTRY,0.87,mg/dL,0.6,1.2,0.87,0.87,mg/dL,0.6,1.2,NORMAL,Y,BASELINE,2,2025-07-11,1
STUDY001,LB,STUDY001-SUBJ0007,18,L00018,BILI,Total Bilirubin,CHEMISTRY,0.84,mg/dL,0.1,1.2,0.84,0.84,mg/dL,0.1,1.2,NORMAL,Y,BASELINE,2,2025-07-11,1
STUDY001,LB,STUDY001-SUBJ0007,19,L00019,ALP,Alkaline Phosphatase,CHEMISTRY,78.11,U/L,44.0,147.0,78.11,78.11,U/L,44.0,147.0,NORMAL,Y,BASELINE,2,2025-07-11,1
STUDY001,LB,STUDY001-SUBJ0007,20,L00020,ALT,Alanine Aminotransferase,CHEMISTRY,12.02,U/L,7.0,56.0,12.02,12.02,U/L,7.0,56.0,NORMAL,Y,BASELINE,2,2025-07-11,1
STUDY001,LB,STUDY001-SUBJ0007,21,L00021,HGB,Hemoglobin,HEMATOLOGY,14.86,g/dL,13.5,17.5,14.86,14.86,g/dL,13.5,17.5,NORMAL,,WEEK 1,3,2025-07-17,7
STUDY001,LB,STUDY001-SUBJ0007,22,L00022,HCT,Hematocrit,HEMATOLOGY,47.55,%,41.0,51.0,47.55,47.55,%,41.0,51.0,NORMAL,,WEEK 1,3,2025-07-17,7
STUDY001,LB,STUDY001-SUBJ0007,23,L00023,WBC,White Blood Cell Count,HEMATOLOGY,8.6,10^9/L,4.5,11.0,8.6,8.6,10^9/L,4.5,11.0,NORMAL,,WEEK 1,3,2025-07-17,7
STUDY001,LB,STUDY001-SUBJ0007,24,L00024,PLT,Platelet Count,HEMATOLOGY,388.2,10^9/L,150.0,450.0,388.2,388.2,10^9/L,150.0,450.0,NORMAL,,WEEK 1,3,2025-07-17,7
STUDY001,LB,STUDY001-SUBJ0007,25,L00025,GLUC,Glucose,CHEMISTRY,79.92,mg/dL,70.0,100.0,79.92,79.92,mg/dL,70.0,100.0,NORMAL,,WEEK 1,3,2025-07-17,7
STUDY001,LB,STUDY001-SUBJ0007,26,L00026,BUN,Blood Urea Nitrogen,CHEMISTRY,14.03,mg/dL,7.0,20.0,14.03,14.03,mg/dL,7.0,20.0,NORMAL,,WEEK 1,3,2025-07-17,7
STUDY001,LB,STUDY001-SUBJ0007,27,L00027,CREAT,Creatinine,CHEMISTRY,0.92,mg/dL,0.6,1.2,0.92,0.92,mg/dL,0.6,1.2,NORMAL,,WEEK 1,3,2025-07-17,7
STUDY001,LB,STUDY001-SUBJ0007,28,L00028,BILI,Total Bilirubin,CHEMISTRY,0.82,mg/dL,0.1,1.2,0.82,0.82,mg/dL,0.1,1.2,NORMAL,,WEEK 1,3,2025-07-17,7
STUDY001,LB,STUDY001-SUBJ0007,29,L00029,ALP,Alkaline Phosphatase,CHEMISTRY,77.32,U/L,44.0,147.0,77.32,77.32,U/L,44.0,147.0,NORMAL,,WEEK 1,3,2025-07-17,7
STUDY001,LB,STUDY001-SUBJ0007,30,L00030,ALT,Alanine Aminotransferase,CHEMISTRY,14.08,U/L,7.0,56.0,14.08,14.08,U/L,7.0,56.0,NORMAL,,WEEK 1,3,2025-07-17,7
STUDY001,LB,STUDY001-SUBJ0007,31,L00031,HGB,Hemoglobin,HEMATOLOGY,14.96,g/dL,13.5,17.5,14.96,14.96,g/dL,13.5,17.5,NORMAL,,WEEK 2,4,2025-07-24,14
STUDY001,LB,STUDY001-SUBJ0007,32,L00032,HCT,Hematocrit,HEMATOLOGY,47.47,%,41.0,51.0,47.47,47.47,%,41.0,51.0,NORMAL,,WEEK 2,4,2025-07-24,14
STUDY001,LB,STUDY001-SUBJ0007,33,L00033,WBC,White Blood Cell Count,HEMATOLOGY,8.64,10^9/L,4.5,11.0,8.64,8.64,10^9/L,4.5,11.0,NORMAL,,WEEK 2,4,2025-07-24,14
STUDY001,LB,STUDY001-SUBJ0007,34,L00034,PLT,Platelet Count,HEMATOLOGY,379.74,10^9/L,150.0,450.0,379.74,379.74,10^9/L,150.0,450.0,NORMAL,,WEEK 2,4,2025-07-24,14
STUDY001,LB,STUDY001-SUBJ0007,35,L00035,GLUC,Glucose,CHEMISTRY,84.19,mg/dL,70.0,100.0,84.19,84.19,mg/dL,70.0,100.0,NORMAL,,WEEK 2,4,2025-07-24,14
STUDY001,LB,STUDY001-SUBJ0007,36,L00036,BUN,Blood Urea Nitrogen,CHEMISTRY,14.0,mg/dL,7.0,20.0,14.0,14.0,mg/dL,7.0,20.0,NORMAL,,WEEK 2,4,2025-07-24,14
STUDY001,LB,STUDY001-SUBJ0007,37,L00037,CREAT,Creatinine,CHEMISTRY,0.92,mg/dL,0.6,1.2,0.92,0.92,mg/dL,0.6,1.2,NORMAL,,WEEK 2,4,2025-07-24,14
STUDY001,LB,STUDY001-SUBJ0007,38,L00038,BILI,Total Bilirubin,CHEMISTRY,0.8,mg/dL,0.1,1.2,0.8,0.8,mg/dL,0.1,1.2,NORMAL,,WEEK 2,4,2025-07-24,14
STUDY001,LB,STUDY001-SUBJ0007,39,L00039,ALP,Alkaline Phosphatase,CHEMISTRY,76.88,U/L,44.0,147.0,76.88,76.88,U/L,44.0,147.0,NORMAL,,WEEK 2,4,2025-07-24,14
STUDY001,LB,STUDY001-SUBJ0007,40,L00040,ALT,Alanine Aminotransferase,CHEMISTRY,11.97,U/L,7.0,56.0,11.97,11.97,U/L,7.0,56.0,NORMAL,,WEEK 2,4,2025-07-24,14
STUDY001,LB,STUDY001-SUBJ0007,41,L00041,HGB,Hemoglobin,HEMATOLOGY,14.8,g/dL,13.5,17.5,14.8,14.8,g/dL,13.5,17.5,NORMAL,,WEEK 4,5,2025-08-07,28
STUDY001,LB,STUDY001-SUBJ0007,42,L00042,HCT,Hematocrit,HEMATOLOGY,47.33,%,41.0,51.0,47.33,47.33,%,41.0,51.0,NORMAL,,WEEK 4,5,2025-08-07,28
STUDY001,LB,STUDY001-SUBJ0007,43,L00043,WBC,White Blood Cell Count,HEMATOLOGY,8.25,10^9/L,4.5,11.0,8.25,8.25,10^9/L,4.5,11.0,NORMAL,,WEEK 4,5,2025-08-07,28
STUDY001,LB,STUDY001-SUBJ0007,44,L00044,PLT,Platelet Count,HEMATOLOGY,381.31,10^9/L,150.0,450.0,381.31,381.31,10^9/L,150.0,450.0,NORMAL,,WEEK 4,5,2025-08-07,28
STUDY001,LB,STUDY001-SUBJ0007,45,L00045,GLUC,Glucose,CHEMISTRY,84.03,mg/dL,70.0,100.0,84.03,84.03,mg/dL,70.0,100.0,NORMAL,,WEEK 4,5,2025-08-07,28
STUDY001,LB,STUDY001-SUBJ0007,46,L00046,BUN,Blood Urea Nitrogen,CHEMISTRY,14.33,mg/dL,7.0,20.0,14.33,14.33,mg/dL,7.0,20.0,NORMAL,,WEEK 4,5,2025-08-07,28
STUDY001,LB,STUDY001-SUBJ0007,47,L00047,CREAT,Creatinine,CHEMISTRY,0.89,mg/dL,0.6,1.2,0.89,0.89,mg/dL,0.6,1.2,NORMAL,,WEEK 4,5,2025-08-07,28
STUDY001,LB,STUDY001-SUBJ0007,48,L00048,BILI,Total Bilirubin,CHEMISTRY,0.79,mg/dL,0.1,1.2,0.79,0.79,mg/dL,0.1,1.2,NORMAL,,WEEK 4,5,2025-08-07,28
STUDY001,LB,STUDY001-SUBJ0007,49,L00049,ALP,Alkaline Phosphatase,CHEMISTRY,77.79,U/L,44.0,147.0,77.79,77.79,U/L,44.0,147.0,NORMAL,,WEEK 4,5,2025-08-07,28
STUDY001,LB,STUDY001-SUBJ0007,50,L00050,ALT,Alanine Aminotransferase,CHEMISTRY,12.32,U/L,7.0,56.0,12.32,12.32,U/L,7.0,56.0,NORMAL,,WEEK 4,5,2025-08-07,28
STUDY001,LB,STUDY001-SUBJ0007,51,L00051,HGB,Hemoglobin,HEMATOLOGY,15.05,g/dL,13.5,17.5,15.05,15.05,g/dL,13.5,17.5,NORMAL,,WEEK 8,6,2025-09-04,56
STUDY001,LB,STUDY001-SUBJ0007,52,L00052,HCT,Hematocrit,HEMATOLOGY,47.93,%,41.0,51.0,47.93,47.93,%,41.0,51.0,NORMAL,,WEEK 8,6,2025-09-04,56
STUDY001,LB,STUDY001-SUBJ0007,53,L00053,WBC,White Blood Cell Count,HEMATOLOGY,8.45,10^9/L,4.5,11.0,8.45,8.45,10^9/L,4.5,11.0,NORMAL,,WEEK 8,6,2025-09-04,56
STUDY001,LB,STUDY001-SUBJ0007,54,L00054,PLT,Platelet Count,HEMATOLOGY,387.63,10^9/L,150.0,450.0,387.63,387.63,10^9/L,150.0,450.0,NORMAL,,WEEK 8,6,2025-09-04,56
STUDY001,LB,STUDY001-SUBJ0007,55,L00055,GLUC,Glucose,CHEMISTRY,84.02,mg/dL,70.0,100.0,84.02,84.02,mg/dL,70.0,100.0,NORMAL,,WEEK 8,6,2025-09-04,56
STUDY001,LB,STUDY001-SUBJ0007,56,L00056,BUN,Blood Urea Nitrogen,CHEMISTRY,14.49,mg/dL,7.0,20.0,14.49,14.49,mg/dL,7.0,20.0,NORMAL,,WEEK 8,6,2025-09-04,56
STUDY001,LB,STUDY001-SUBJ0007,57,L00057,CREAT,Creatinine,CHEMISTRY,0.89,mg/dL,0.6,1.2,0.89,0.89,mg/dL,0.6,1.2,NORMAL,,WEEK 8,6,2025-09-04,56
STUDY001,LB,STUDY001-SUBJ0007,58,L00058,BILI,Total Bilirubin,CHEMISTRY,0.84,mg/dL,0.1,1.2,0.84,0.84,mg/dL,0.1,1.2,NORMAL,,WEEK 8,6,2025-09-04,56
STUDY001,LB,STUDY001-SUBJ0007,59,L00059,ALP,Alkaline Phosphatase,CHEMISTRY,76.25,U/L,44.0,147.0,76.25,76.25,U/L,44.0,147.0,NORMAL,,WEEK 8,6,2025-09-04,56
STUDY001,LB,STUDY001-SUBJ0007,60,L00060,ALT,Alanine Aminotransferase,CHEMISTRY,14.11,U/L,7.0,56.0,14.11,14.11,U/L,7.0,56.0,NORMAL,,WEEK 8,6,2025-09-04,56
STUDY001,LB,STUDY001-SUBJ0007,61,L00061,HGB,Hemoglobin,HEMATOLOGY,14.96,g/dL,13.5,17.5,14.96,14.96,g/dL,13.5,17.5,NORMAL,,WEEK 12,7,2025-10-02,84
STUDY001,LB,STUDY001-SUBJ0007,62,L00062,HCT,Hematocrit,HEMATOLOGY,47.43,%,41.0,51.0,47.43,47.43,%,41.0,51.0,NORMAL,,WEEK 12,7,2025-10-02,84
STUDY001,LB,STUDY001-SUBJ0007,63,L00063,WBC,White Blood Cell Count,HEMATOLOGY,8.48,10^9/L,4.5,11.0,8.48,8.48,10^9/L,4.5,11.0,NORMAL,,WEEK 12,7,2025-10-02,84
STUDY001,LB,STUDY001-SUBJ0007,64,L00064,PLT,Platelet Count,HEMATOLOGY,387.8,10^9/L,150.0,450.0,387.8,387.8,10^9/L,150.0,450.0,NORMAL,,WEEK 12,7,2025-10-02,84
STUDY001,LB,STUDY001-SUBJ0007,65,L00065,GLUC,Glucose,CHEMISTRY,82.2,mg/dL,70.0,100.0,82.2,82.2,mg/dL,70.0,100.0,NORMAL,,WEEK 12,7,2025-10-02,84
STUDY001,LB,STUDY001-SUBJ0007,66,L00066,BUN,Blood Urea Nitrogen,CHEMISTRY,14.38,mg/dL,7.0,20.0,14.38,14.38,mg/dL,7.0,20.0,NORMAL,,WEEK 12,7,2025-10-02,84
STUDY001,LB,STUDY001-SUBJ0007,67,L00067,CREAT,Creatinine,CHEMISTRY,0.87,mg/dL,0.6,1.2,0.87,0.87,mg/dL,0.6,1.2,NORMAL,,WEEK 12,7,2025-10-02,84
STUDY001,LB,STUDY001-SUBJ0007,68,L00068,BILI,Total Bilirubin,CHEMISTRY,0.83,mg/dL,0.1,1.2,0.83,0.83,mg/dL,0.1,1.2,NORMAL,,WEEK 12,7,2025-10-02,84
STUDY001,LB,STUDY001-SUBJ0007,69,L00069,ALP,Alkaline Phosphatase,CHEMISTRY,76.68,U/L,44.0,147.0,76.68,76.68,U/L,44.0,147.0,NORMAL,,WEEK 12,7,2025-10-02,84
STUDY001,LB,STUDY001-SUBJ0007,70,L00070,ALT,Alanine Aminotransferase,CHEMISTRY,14.24,U/L,7.0,56.0,14.24,14.24,U/L,7.0,56.0,NORMAL,,WEEK 12,7,2025-10-02,84
STUDY001,LB,STUDY001-SUBJ0007,71,L00071,HGB,Hemoglobin,HEMATOLOGY,14.67,g/dL,13.5,17.5,14.67,14.67,g/dL,13.5,17.5,NORMAL,,WEEK 16,8,2025-10-30,112
STUDY001,LB,STUDY001-SUBJ0007,72,L00072,HCT,Hematocrit,HEMATOLOGY,47.29,%,41.0,51.0,47.29,47.29,%,41.0,51.0,NORMAL,,WEEK 16,8,2025-10-30,112
STUDY001,LB,STUDY001-SUBJ0007,73,L00073,WBC,White Blood Cell Count,HEMATOLOGY,8.45,10^9/L,4.5,11.0,8.45,8.45,10^9/L,4.5,11.0,NORMAL,,WEEK 16,8,2025-10-30,112
STUDY001,LB,STUDY001-SUBJ0007,74,L00074,PLT,Platelet Count,HEMATOLOGY,383.07,10^9/L,150.0,450.0,383.07,383.07,10^9/L,150.0,450.0,NORMAL,,WEEK 16,8,2025-10-30,112
STUDY001,LB,STUDY001-SUBJ0007,75,L00075,GLUC,Glucose,CHEMISTRY,84.27,mg/dL,70.0,100.0,84.27,84.27,mg/dL,70.0,100.0,NORMAL,,WEEK 16,8,2025-10-30,112
STUDY001,LB,STUDY001-SUBJ0007,76,L00076,BUN,Blood Urea Nitrogen,CHEMISTRY,14.43,mg/dL,7.0,20.0,14.43,14.43,mg/dL,7.0,20.0,NORMAL,,WEEK 16,8,2025-10-30,112
STUDY001,LB,STUDY001-SUBJ0007,77,L00077,CREAT,Creatinine,CHEMISTRY,0.88,mg/dL,0.6,1.2,0.88,0.88,mg/dL,0.6,1.2,NORMAL,,WEEK 16,8,2025-10-30,112
STUDY001,LB,STUDY001-SUBJ0007,78,L00078,BILI,Total Bilirubin,CHEMISTRY,0.79,mg/dL,0.1,1.2,0.79,0.79,mg/dL,0.1,1.2,NORMAL,,WEEK 16,8,2025-10-30,112
STUDY001,LB,STUDY001-SUBJ0007,79,L00079,ALP,Alkaline Phosphatase,CHEMISTRY,75.27,U/L,44.0,147.0,75.27,75.27,U/L,44.0,147.0,NORMAL,,WEEK 16,8,2025-10-30,112
STUDY001,LB,STUDY001-SUBJ0007,80,L00080,ALT,Alanine Aminotransferase,CHEMISTRY,12.85,U/L,7.0,56.0,12.85,12.85,U/L,7.0,56.0,NORMAL,,WEEK 16,8,2025-10-30,112
STUDY001,LB,STUDY001-SUBJ0007,81,L00081,HGB,Hemoglobin,HEMATOLOGY,14.88,g/dL,13.5,17.5,14.88,14.88,g/dL,13.5,17.5,NORMAL,,END OF TREATMENT,9,2025-11-27,140
STUDY001,LB,STUDY001-SUBJ0007,82,L00082,HCT,Hematocrit,HEMATOLOGY,47.35,%,41.0,51.0,47.35,47.35,%,41.0,51.0,NORMAL,,END OF TREATMENT,9,2025-11-27,140
STUDY001,LB,STUDY001-SUBJ0007,83,L00083,WBC,White Blood Cell Count,HEMATOLOGY,8.57,10^9/L,4.5,11.0,8.57,8.57,10^9/L,4.5,11.0,NORMAL,,END OF TREATMENT,9,2025-11-27,140
STUDY001,LB,STUDY001-SUBJ0007,84,L00084,PLT,Platelet Count,HEMATOLOGY,392.93,10^9/L,150.0,450.0,392.93,392.93,10^9/L,150.0,450.0,NORMAL,,END OF TREATMENT,9,2025-11-27,140
STUDY001,LB,STUDY001-SUBJ0007,85,L00085,GLUC,Glucose,CHEMISTRY,82.8,mg/dL,70.0,100.0,82.8,82.8,mg/dL,70.0,100.0,NORMAL,,END OF TREATMENT,9,2025-11-27,140
STUDY001,LB,STUDY001-SUBJ0007,86,L00086,BUN,Blood Urea Nitrogen,CHEMISTRY,14.57,mg/dL,7.0,20.0,14.57,14.57,mg/dL,7.0,20.0,NORMAL,,END OF TREATMENT,9,2025-11-27,140
STUDY001,LB,STUDY001-SUBJ0007,87,L00087,CREAT,Creatinine,CHEMISTRY,0.91,mg/dL,0.6,1.2,0.91,0.91,mg/dL,0.6,1.2,NORMAL,,END OF TREATMENT,9,2025-11-27,140
STUDY001,LB,STUDY001-SUBJ0007,88,L00088,BILI,Total Bilirubin,CHEMISTRY,0.82,mg/dL,0.1,1.2,0.82,0.82,mg/dL,0.1,1.2,NORMAL,,END OF TREATMENT,9,2025-11-27,140
STUDY001,LB,STUDY001-SUBJ0007,89,L00089,ALP,Alkaline Phosphatase,CHEMISTRY,79.42,U/L,44.0,147.0,79.42,79.42,U/L,44.0,147.0,NORMAL,,END OF TREATMENT,9,2025-11-27,140
STUDY001,LB,STUDY001-SUBJ0007,90,L00090,ALT,Alanine Aminotransferase,CHEMISTRY,14.11,U/L,7.0,56.0,14.11,14.11,U/L,7.0,56.0,NORMAL,,END OF TREATMENT,9,2025-11-27,140
STUDY001,LB,STUDY001-SUBJ0008,1,L00001,HGB,Hemoglobin,HEMATOLOGY,14.68,g/dL,13.5,17.5,14.68,14.68,g/dL,13.5,17.5,NORMAL,,SCREENING,1,2024-09-12,-14
STUDY001,LB,STUDY001-SUBJ0008,2,L00002,HCT,Hematocrit,HEMATOLOGY,46.64,%,41.0,51.0,46.64,46.64,%,41.0,51.0,NORMAL,,SCREENING,1,2024-09-12,-14
STUDY001,LB,STUDY001-SUBJ0008,3,L00003,WBC,White Blood Cell Count,HEMATOLOGY,5.84,10^9/L,4.5,11.0,5.84,5.84,10^9/L,4.5,11.0,NORMAL,,SCREENING,1,2024-09-12,-14
STUDY001,LB,STUDY001-SUBJ0008,4,L00004,PLT,Platelet Count,HEMATOLOGY,198.81,10^9/L,150.0,450.0,198.81,198.81,10^9/L,150.0,450.0,NORMAL,,SCREENING,1,2024-09-12,-14
STUDY001,LB,STUDY001-SUBJ0008,5,L00005,GLUC,Glucose,CHEMISTRY,76.01,mg/dL,70.0,100.0,76.01,76.01,mg/dL,70.0,100.0,NORMAL,,SCREENING,1,2024-09-12,-14
STUDY001,LB,STUDY001-SUBJ0008,6,L00006,BUN,Blood Urea Nitrogen,CHEMISTRY,9.7,mg/dL,7.0,20.0,9.7,9.7,mg/dL,7.0,20.0,NORMAL,,SCREENING,1,2024-09-12,-14
STUDY001,LB,STUDY001-SUBJ0008,7,L00007,CREAT,Creatinine,CHEMISTRY,0.73,mg/dL,0.6,1.2,0.73,0.73,mg/dL,0.6,1.2,NORMAL,,SCREENING,1,2024-09-12,-14
STUDY001,LB,STUDY001-SUBJ0008,8,L00008,BILI,Total Bilirubin,CHEMISTRY,0.7,mg/dL,0.1,1.2,0.7,0.7,mg/dL,0.1,1.2,NORMAL,,SCREENING,1,2024-09-12,-14
STUDY001,LB,STUDY001-SUBJ0008,9,L00009,ALP,Alkaline Phosphatase,CHEMISTRY,96.76,U/L,44.0,147.0,96.76,96.76,U/L,44.0,147.0,NORMAL,,SCREENING,1,2024-09-12,-14
STUDY001,LB,STUDY001-SUBJ0008,10,L00010,ALT,Alanine Aminotransferase,CHEMISTRY,29.12,U/L,7.0,56.0,29.12,29.12,U/L,7.0,56.0,NORMAL,,SCREENING,1,2024-09-12,-14
STUDY001,LB,STUDY001-SUBJ0008,11,L00011,HGB,Hemoglobin,HEMATOLOGY,14.63,g/dL,13.5,17.5,14.63,14.63,g/dL,13.5,17.5,NORMAL,Y,BASELINE,2,2024-09-26,1
STUDY001,LB,STUDY001-SUBJ0008,12,L00012,HCT,Hematocrit,HEMATOLOGY,46.34,%,41.0,51.0,46.34,46.34,%,41.0,51.0,NORMAL,Y,BASELINE,2,2024-09-26,1
STUDY001,LB,STUDY001-SUBJ0008,13,L00013,WBC,White Blood Cell Count,HEMATOLOGY,6.03,10^9/L,4.5,11.0,6.03,6.03,10^9/L,4.5,11.0,NORMAL,Y,BASELINE,2,2024-09-26,1
STUDY001,LB,STUDY001-SUBJ0008,14,L00014,PLT,Platelet Count,HEMATOLOGY,205.78,10^9/L,150.0,450.0,205.78,205.78,10^9/L,150.0,450.0,NORMAL,Y,BASELINE,2,2024-09-26,1
STUDY001,LB,STUDY001-SUBJ0008,15,L00015,GLUC,Glucose,CHEMISTRY,74.76,mg/dL,70.0,100.0,74.76,74.76,mg/dL,70.0,100.0,NORMAL,Y,BASELINE,2,2024-09-26,1
STUDY001,LB,STUDY001-SUBJ0008,16,L00016,BUN,Blood Urea Nitrogen,CHEMISTRY,9.67,mg/dL,7.0,20.0,9.67,9.67,mg/dL,7.0,20.0,NORMAL,Y,BASELINE,2,2024-09-26,1
STUDY001,LB,STUDY001-SUBJ0008,17,L00017,CREAT,Creatinine,CHEMISTRY,0.72,mg/dL,0.6,1.2,0.72,0.72,mg/dL,0.6,1.2,NORMAL,Y,BASELINE,2,2024-09-26,1
STUDY001,LB,STUDY001-SUBJ0008,18,L00018,BILI,Total Bilirubin,CHEMISTRY,0.69,mg/dL,0.1,1.2,0.69,0.69,mg/dL,0.1,1.2,NORMAL,Y,BASELINE,2,2024-09-26,1
STUDY001,LB,STUDY001-SUBJ0008,19,L00019,ALP,Alkaline Phosphatase,CHEMISTRY,101.99,U/L,44.0,147.0,101.99,101.99,U/L,44.0,147.0,NORMAL,Y,BASELINE,2,2024-09-26,1
STUDY001,LB,STUDY001-SUBJ0008,20,L00020,ALT,Alanine Aminotransferase,CHEMISTRY,30.01,U/L,7.0,56.0,30.01,30.01,U/L,7.0,56.0,NORMAL,Y,BASELINE,2,2024-09-26,1
STUDY001,LB,STUDY001-SUBJ0008,21,L00021,HGB,Hemoglobin,HEMATOLOGY,14.68,g/dL,13.5,17.5,14.68,14.68,g/dL,13.5,17.5,NORMAL,,WEEK 1,3,2024-10-02,7
STUDY001,LB,STUDY001-SUBJ0008,22,L00022,HCT,Hematocrit,HEMATOLOGY,46.06,%,41.0,51.0,46.06,46.06,%,41.0,51.0,NORMAL,,WEEK 1,3,2024-10-02,7
STUDY001,LB,STUDY001-SUBJ0008,23,L00023,WBC,White Blood Cell Count,HEMATOLOGY,6.27,10^9/L,4.5,11.0,6.27,6.27,10^9/L,4.5,11.0,NORMAL,,WEEK 1,3,2024-10-02,7
STUDY001,LB,STUDY001-SUBJ0008,24,L00024,PLT,Platelet Count,HEMATOLOGY,194.91,10^9/L,150.0,450.0,194.91,194.91,10^9/L,150.0,450.0,NORMAL,,WEEK 1,3,2024-10-02,7
STUDY001,LB,STUDY001-SUBJ0008,25,L00025,GLUC,Glucose,CHEMISTRY,74.43,mg/dL,70.0,100.0,74.43,74.43,mg/dL,70.0,100.0,NORMAL,,WEEK 1,3,2024-10-02,7
STUDY001,LB,STUDY001-SUBJ0008,26,L00026,BUN,Blood Urea Nitrogen,CHEMISTRY,9.68,mg/dL,7.0,20.0,9.68,9.68,mg/dL,7.0,20.0,NORMAL,,WEEK 1,3,2024-10-02,7
STUDY001,LB,STUDY001-SUBJ0008,27,L00027,CREAT,Creatinine,CHEMISTRY,0.69,mg/dL,0.6,1.2,0.69,0.69,mg/dL,0.6,1.2,NORMAL,,WEEK 1,3,2024-10-02,7
STUDY001,LB,STUDY001-SUBJ0008,28,L00028,BILI,Total Bilirubin,CHEMISTRY,0.69,mg/dL,0.1,1.2,0.69,0.69,mg/dL,0.1,1.2,NORMAL,,WEEK 1,3,2024-10-02,7
STUDY001,LB,STUDY001-SUBJ0008,29,L00029,ALP,Alkaline Phosphatase,CHEMISTRY,104.35,U/L,44.0,147.0,104.35,104.35,U/L,44.0,147.0,NORMAL,,WEEK 1,3,2024-10-02,7
STUDY001,LB,STUDY001-SUBJ0008,30,L00030,ALT,Alanine Aminotransferase,CHEMISTRY,30.26,U/L,7.0,56.0,30.26,30.26,U/L,7.0,56.0,NORMAL,,WEEK 1,3,2024-10-02,7
STUDY001,LB,STUDY001-SUBJ0008,31,L00031,HGB,Hemoglobin,HEMATOLOGY,14.64,g/dL,13.5,17.5,14.64,14.64,g/dL,13.5,17.5,NORMAL,,WEEK 2,4,2024-10-09,14
STUDY001,LB,STUDY001-SUBJ0008,32,L00032,HCT,Hematocrit,HEMATOLOGY,46.34,%,41.0,51.0,46.34,46.34,%,41.0,51.0,NORMAL,,WEEK 2,4,2024-10-09,14
STUDY001,LB,STUDY001-SUBJ0008,33,L00033,WBC,White Blood Cell Count,HEMATOLOGY,5.92,10^9/L,4.5,11.0,5.92,5.92,10^9/L,4.5,11.0,NORMAL,,WEEK 2,4,2024-10-09,14
STUDY001,LB,STUDY001-SUBJ0008,34,L00034,PLT,Platelet Count,HEMATOLOGY,201.92,10^9/L,150.0,450.0,201.92,201.92,10^9/L,150.0,450.0,NORMAL,,WEEK 2,4,2024-10-09,14
STUDY001,LB,STUDY001-SUBJ0008,35,L00035,GLUC,Glucose,CHEMISTRY,74.72,mg/dL,70.0,100.0,74.72,74.72,mg/dL,70.0,100.0,NORMAL,,WEEK 2,4,2024-10-09,14
STUDY001,LB,STUDY001-SUBJ0008,36,L00036,BUN,Blood Urea Nitrogen,CHEMISTRY,9.7,mg/dL,7.0,20.0,9.7,9.7,mg/dL,7.0,20.0,NORMAL,,WEEK 2,4,2024-10-09,14
STUDY001,LB,STUDY001-SUBJ0008,37,L00037,CREAT,Creatinine,CHEMISTRY,0.7,mg/dL,0.6,1.2,0.7,0.7,mg/dL,0.6,1.2,NORMAL,,WEEK 2,4,2024-10-09,14
STUDY001,LB,STUDY001-SUBJ0008,38,L00038,BILI,Total Bilirubin,CHEMISTRY,0.67,mg/dL,0.1,1.2,0.67,0.67,mg/dL,0.1,1.2,NORMAL,,WEEK 2,4,2024-10-09,14
STUDY001,LB,STUDY001-SUBJ0008,39,L00039,ALP,Alkaline Phosphatase,CHEMISTRY,99.12,U/L,44.0,147.0,99.12,99.12,U/L,44.0,147.0,NORMAL,,WEEK 2,4,2024-10-09,14
STUDY001,LB,STUDY001-SUBJ0008,40,L00040,ALT,Alanine Aminotransferase,CHEMISTRY,31.19,U/L,7.0,56.0,31.19,31.19,U/L,7.0,56.0,NORMAL,,WEEK 2,4,2024-10-09,14
STUDY001,LB,STUDY001-SUBJ0008,41,L00041,HGB,Hemoglobin,HEMATOLOGY,14.59,g/dL,13.5,17.5,14.59,14.59,g/dL,13.5,17.5,NORMAL,,WEEK 4,5,2024-10-23,28
STUDY001,LB,STUDY001-SUBJ0008,42,L00042,HCT,Hematocrit,HEMATOLOGY,46.6,%,41.0,51.0,46.6,46.6,%,41.0,51.0,NORMAL,,WEEK 4,5,2024-10-23,28
STUDY001,LB,STUDY001-SUBJ0008,43,L00043,WBC,White Blood Cell Count,HEMATOLOGY,5.99,10^9/L,4.5,11.0,5.99,5.99,10^9/L,4.5,11.0,NORMAL,,WEEK 4,5,2024-10-23,28
STUDY001,LB,STUDY001-SUBJ0008,44,L00044,PLT,Platelet Count,HEMATOLOGY,191.89,10^9/L,150.0,450.0,191.89,191.89,10^9/L,150.0,450.0,NORMAL,,WEEK 4,5,2024-10-23,28
STUDY001,LB,STUDY001-SUBJ0008,45,L00045,GLUC,Glucose,CHEMISTRY,75.14,mg/dL,70.0,100.0,75.14,75.14,mg/dL,70.0,100.0,NORMAL,,WEEK 4,5,2024-10-23,28
STUDY001,LB,STUDY001-SUBJ0008,46,L00046,BUN,Blood Urea Nitrogen,CHEMISTRY,8.96,mg/dL,7.0,20.0,8.96,8.96,mg/dL,7.0,20.0,NORMAL,,WEEK 4,5,2024-10-23,28
STUDY001,LB,STUDY001-SUBJ0008,47,L00047,CREAT,Creatinine,CHEMISTRY,0.7,mg/dL,0.6,1.2,0.7,0.7,mg/dL,0.6,1.2,NORMAL,,WEEK 4,5,2024-10-23,28
STUDY001,LB,STUDY001-SUBJ0008,48,L00048,BILI,Total Bilirubin,CHEMISTRY,0.65,mg/dL,0.1,1.2,0.65,0.65,mg/dL,0.1,1.2,NORMAL,,WEEK 4,5,2024-10-23,28
STUDY001,LB,STUDY001-SUBJ0008,49,L00049,ALP,Alkaline Phosphatase,CHEMISTRY,102.41,U/L,44.0,147.0,102.41,102.41,U/L,44.0,147.0,NORMAL,,WEEK 4,5,2024-10-23,28
STUDY001,LB,STUDY001-SUBJ0008,50,L00050,ALT,Alanine Aminotransferase,CHEMISTRY,28.33,U/L,7.0,56.0,28.33,28.33,U/L,7.0,56.0,NORMAL,,WEEK 4,5,2024-10-23,28
STUDY001,LB,STUDY001-SUBJ0008,51,L00051,HGB,Hemoglobin,HEMATOLOGY,14.48,g/dL,13.5,17.5,14.48,14.48,g/dL,13.5,17.5,NORMAL,,WEEK 8,6,2024-11-20,56
STUDY001,LB,STUDY001-SUBJ0008,52,L00052,HCT,Hematocrit,HEMATOLOGY,46.48,%,41.0,51.0,46.48,46.48,%,41.0,51.0,NORMAL,,WEEK 8,6,2024-11-20,56
STUDY001,LB,STUDY001-SUBJ0008,53,L00053,WBC,White Blood Cell Count,HEMATOLOGY,5.8,10^9/L,4.5,11.0,5.8,5.8,10^9/L,4.5,11.0,NORMAL,,WEEK 8,6,2024-11-20,56
STUDY001,LB,STUDY001-SUBJ0008,54,L00054,PLT,Platelet Count,HEMATOLOGY,199.06,10^9/L,150.0,450.0,199.06,199.06,10^9/L,150.0,450.0,NORMAL,,WEEK 8,6,2024-11-20,56
STUDY001,LB,STUDY001-SUBJ0008,55,L00055,GLUC,Glucose,CHEMISTRY,76.16,mg/dL,70.0,100.0,76.16,76.16,mg/dL,70.0,100.0,NORMAL,,WEEK 8,6,2024-11-20,56
STUDY001,LB,STUDY001-SUBJ0008,56,L00056,BUN,Blood Urea Nitrogen,CHEMISTRY,9.72,mg/dL,7.0,20.0,9.72,9.72,mg/dL,7.0,20.0,NORMAL,,WEEK 8,6,2024-11-20,56
STUDY001,LB,STUDY001-SUBJ0008,57,L00057,CREAT,Creatinine,CHEMISTRY,0.7,mg/dL,0.6,1.2,0.7,0.7,mg/dL,0.6,1.2,NORMAL,,WEEK 8,6,2024-11-20,56
STUDY001,LB,STUDY001-SUBJ0008,58,L00058,BILI,Total Bilirubin,CHEMISTRY,0.64,mg/dL,0.1,1.2,0.64,0.64,mg/dL,0.1,1.2,NORMAL,,WEEK 8,6,2024-11-20,56
STUDY001,LB,STUDY001-SUBJ0008,59,L00059,ALP,Alkaline Phosphatase,CHEMISTRY,105.48,U/L,44.0,147.0,105.48,105.48,U/L,44.0,147.0,NORMAL,,WEEK 8,6,2024-11-20,56
STUDY001,LB,STUDY001-SUBJ0008,60,L00060,ALT,Alanine Aminotransferase,CHEMISTRY,30.58,U/L,7.0,56.0,30.58,30.58,U/L,7.0,56.0,NORMAL,,WEEK 8,6,2024-11-20,56
STUDY001,LB,STUDY001-SUBJ0008,61,L00061,HGB,Hemoglobin,HEMATOLOGY,14.69,g/dL,13.5,17.5,14.69,14.69,g/dL,13.5,17.5,NORMAL,,WEEK 12,7,2024-12-18,84
STUDY001,LB,STUDY001-SUBJ0008,62,L00062,HCT,Hematocrit,HEMATOLOGY,46.5,%,41.0,51.0,46.5,46.5,%,41.0,51.0,NORMAL,,WEEK 12,7,2024-12-18,84
STUDY001,LB,STUDY001-SUBJ0008,63,L00063,WBC,White Blood Cell Count,HEMATOLOGY,6.03,10^9/L,4.5,11.0,6.03,6.03,10^9/L,4.5,11.0,NORMAL,,WEEK 12,7,2024-12-18,84
STUDY001,LB,STUDY001-SUBJ0008,64,L00064,PLT,Platelet Count,HEMATOLOGY,208.47,10^9/L,150.0,450.0,208.47,208.47,10^9/L,150.0,450.0,NORMAL,,WEEK 12,7,2024-12-18,84
STUDY001,LB,STUDY001-SUBJ0008,65,L00065,GLUC,Glucose,CHEMISTRY,74.6,mg/dL,70.0,100.0,74.6,74.6,mg/dL,70.0,100.0,NORMAL,,WEEK 12,7,2024-12-18,84
STUDY001,LB,STUDY001-SUBJ0008,66,L00066,BUN,Blood Urea Nitrogen,CHEMISTRY,8.78,mg/dL,7.0,20.0,8.78,8.78,mg/dL,7.0,20.0,NORMAL,,WEEK 12,7,2024-12-18,84
STUDY001,LB,STUDY001-SUBJ0008,67,L00067,CREAT,Creatinine,CHEMISTRY,0.71,mg/dL,0.6,1.2,0.71,0.71,mg/dL,0.6,1.2,NORMAL,,WEEK 12,7,2024-12-18,84
STUDY001,LB,STUDY001-SUBJ0008,68,L00068,BILI,Total Bilirubin,CHEMISTRY,0.67,mg/dL,0.1,1.2,0.67,0.67,mg/dL,0.1,1.2,NORMAL,,WEEK 12,7,2024-12-18,84
STUDY001,LB,STUDY001-SUBJ0008,69,L00069,ALP,Alkaline Phosphatase,CHEMISTRY,101.49,U/L,44.0,147.0,101.49,101.49,U/L,44.0,147.0,NORMAL,,WEEK 12,7,2024-12-18,84
STUDY001,LB,STUDY001-SUBJ0008,70,L00070,ALT,Alanine Aminotransferase,CHEMISTRY,28.88,U/L,7.0,56.0,28.88,28.88,U/L,7.0,56.0,NORMAL,,WEEK 12,7,2024-12-18,84
STUDY001,LB,STUDY001-SUBJ0008,71,L00071,HGB,Hemoglobin,HEMATOLOGY,14.77,g/dL,13.5,17.5,14.77,14.77,g/dL,13.5,17.5,NORMAL,,WEEK 16,8,2025-01-15,112
STUDY001,LB,STUDY001-SUBJ0008,72,L00072,HCT,Hematocrit,HEMATOLOGY,46.29,%,41.0,51.0,46.29,46.29,%,41.0,51.0,NORMAL,,WEEK 16,8,2025-01-15,112
STUDY001,LB,STUDY001-SUBJ0008,73,L00073,WBC,White Blood Cell Count,HEMATOLOGY,6.19,10^9/L,4.5,11.0,6.19,6.19,10^9/L,4.5,11.0,NORMAL,,WEEK 16,8,2025-01-15,112
STUDY001,LB,STUDY001-SUBJ0008,74,L00074,PLT,Platelet Count,HEMATOLOGY,206.62,10^9/L,150.0,450.0,206.62,206.62,10^9/L,150.0,450.0,NORMAL,,WEEK 16,8,2025-01-15,112
STUDY001,LB,STUDY001-SUBJ0008,75,L00075,GLUC,Glucose,CHEMISTRY,76.23,mg/dL,70.0,100.0,76.23,76.23,mg/dL,70.0,100.0,NORMAL,,WEEK 16,8,2025-01-15,112
STUDY001,LB,STUDY001-SUBJ0008,76,L00076,BUN,Blood Urea Nitrogen,CHEMISTRY,9.39,mg/dL,7.0,20.0,9.39,9.39,mg/dL,7.0,20.0,NORMAL,,WEEK 16,8,2025-01-15,112
STUDY001,LB,STUDY001-SUBJ0008,77,L00077,CREAT,Creatinine,CHEMISTRY,0.7,mg/dL,0.6,1.2,0.7,0.7,mg/dL,0.6,1.2,NORMAL,,WEEK 16,8,2025-01-15,112
STUDY001,LB,STUDY001-SUBJ0008,78,L00078,BILI,Total Bilirubin,CHEMISTRY,0.66,mg/dL,0.1,1.2,0.66,0.66,mg/dL,0.1,1.2,NORMAL,,WEEK 16,8,2025-01-15,112
STUDY001,LB,STUDY001-SUBJ0008,79,L00079,ALP,Alkaline Phosphatase,CHEMISTRY,101.01,U/L,44.0,147.0,101.01,101.01,U/L,44.0,147.0,NORMAL,,WEEK 16,8,2025-01-15,112
STUDY001,LB,STUDY001-SUBJ0008,80,L00080,ALT,Alanine Aminotransferase,CHEMISTRY,27.27,U/L,7.0,56.0,27.27,27.27,U/L,7.0,56.0,NORMAL,,WEEK 16,8,2025-01-15,112
STUDY001,LB,STUDY001-SUBJ0008,81,L00081,HGB,Hemoglobin,HEMATOLOGY,14.63,g/dL,13.5,17.5,14.63,14.63,g/dL,13.5,17.5,NORMAL,,END OF TREATMENT,9,2025-02-12,140
STUDY001,LB,STUDY001-SUBJ0008,82,L00082,HCT,Hematocrit,HEMATOLOGY,46.19,%,41.0,51.0,46.19,46.19,%,41.0,51.0,NORMAL,,END OF TREATMENT,9,2025-02-12,140
STUDY001,LB,STUDY001-SUBJ0008,83,L00083,WBC,White Blood Cell Count,HEMATOLOGY,6.18,10^9/L,4.5,11.0,6.18,6.18,10^9/L,4.5,11.0,NORMAL,,END OF TREATMENT,9,2025-02-12,140
STUDY001,LB,STUDY001-SUBJ0008,84,L00084,PLT,Platelet Count,HEMATOLOGY,200.88,10^9/L,150.0,450.0,200.88,200.88,10^9/L,150.0,450.0,NORMAL,,END OF TREATMENT,9,2025-02-12,140
STUDY001,LB,STUDY001-SUBJ0008,85,L00085,GLUC,Glucose,CHEMISTRY,75.27,mg/dL,70.0,100.0,75.27,75.27,mg/dL,70.0,100.0,NORMAL,,END OF TREATMENT,9,2025-02-12,140
STUDY001,LB,STUDY001-SUBJ0008,86,L00086,BUN,Blood Urea Nitrogen,CHEMISTRY,9.41,mg/dL,7.0,20.0,9.41,9.41,mg/dL,7.0,20.0,NORMAL,,END OF TREATMENT,9,2025-02-12,140
STUDY001,LB,STUDY001-SUBJ0008,87,L00087,CREAT,Creatinine,CHEMISTRY,0.73,mg/dL,0.6,1.2,0.73,0.73,mg/dL,0.6,1.2,NORMAL,,END OF TREATMENT,9,2025-02-12,140
STUDY001,LB,STUDY001-SUBJ0008,88,L00088,BILI,Total Bilirubin,CHEMISTRY,0.65,mg/dL,0.1,1.2,0.65,0.65,mg/dL,0.1,1.2,NORMAL,,END OF TREATMENT,9,2025-02-12,140
STUDY001,LB,STUDY001-SUBJ0008,89,L00089,ALP,Alkaline Phosphatase,CHEMISTRY,100.37,U/L,44.0,147.0,100.37,100.37,U/L,44.0,147.0,NORMAL,,END OF TREATMENT,9,2025-02-12,140
STUDY001,LB,STUDY001-SUBJ0008,90,L00090,ALT,Alanine Aminotransferase,CHEMISTRY,31.65,U/L,7.0,56.0,31.65,31.65,U/L,7.0,56.0,NORMAL,,END OF TREATMENT,9,2025-02-12,140
STUDY001,LB,STUDY001-SUBJ0009,1,L00001,HGB,Hemoglobin,HEMATOLOGY,14.24,g/dL,13.5,17.5,14.24,14.24,g/dL,13.5,17.5,NORMAL,,SCREENING,1,2025-01-04,-14
STUDY001,LB,STUDY001-SUBJ0009,2,L00002,HCT,Hematocrit,HEMATOLOGY,46.15,%,41.0,51.0,46.15,46.15,%,41.0,51.0,NORMAL,,SCREENING,1,2025-01-04,-14
STUDY001,LB,STUDY001-SUBJ0009,3,L00003,WBC,White Blood Cell Count,HEMATOLOGY,7.15,10^9/L,4.5,11.0,7.15,7.15,10^9/L,4.5,11.0,NORMAL,,SCREENING,1,2025-01-04,-14
STUDY001,LB,STUDY001-SUBJ0009,4,L00004,PLT,Platelet Count,HEMATOLOGY,274.37,10^9/L,150.0,450.0,274.37,274.37,10^9/L,150.0,450.0,NORMAL,,SCREENING,1,2025-01-04,-14
STUDY001,LB,STUDY001-SUBJ0009,5,L00005,GLUC,Glucose,CHEMISTRY,88.81,mg/dL,70.0,100.0,88.81,88.81,mg/dL,70.0,100.0,NORMAL,,SCREENING,1,2025-01-04,-14
STUDY001,LB,STUDY001-SUBJ0009,6,L00006,BUN,Blood Urea Nitrogen,CHEMISTRY,16.41,mg/dL,7.0,20.0,16.41,16.41,mg/dL,7.0,20.0,NORMAL,,SCREENING,1,2025-01-04,-14
STUDY001,LB,STUDY001-SUBJ0009,7,L00007,CREAT,Creatinine,CHEMISTRY,1.01,mg/dL,0.6,1.2,1.01,1.01,mg/dL,0.6,1.2,NORMAL,,SCREENING,1,2025-01-04,-14
STUDY001,LB,STUDY001-SUBJ0009,8,L00008,BILI,Total Bilirubin,CHEMISTRY,0.22,mg/dL,0.1,1.2,0.22,0.22,mg/dL,0.1,1.2,NORMAL,,SCREENING,1,2025-01-04,-14
STUDY001,LB,STUDY001-SUBJ0009,9,L00009,ALP,Alkaline Phosphatase,CHEMISTRY,95.23,U/L,44.0,147.0,95.23,95.23,U/L,44.0,147.0,NORMAL,,SCREENING,1,2025-01-04,-14
STUDY001,LB,STUDY001-SUBJ0009,10,L00010,ALT,Alanine Aminotransferase,CHEMISTRY,33.4,U/L,7.0,56.0,33.4,33.4,U/L,7.0,56.0,NORMAL,,SCREENING,1,2025-01-04,-14
STUDY001,LB,STUDY001-SUBJ0009,11,L00011,HGB,Hemoglobin,HEMATOLOGY,14.3,g/dL,13.5,17.5,14.3,14.3,g/dL,13.5,17.5,NORMAL,Y,BASELINE,2,2025-01-18,1
STUDY001,LB,STUDY001-SUBJ0009,12,L00012,HCT,Hematocrit,HEMATOLOGY,46.17,%,41.0,51.0,46.17,46.17,%,41.0,51.0,NORMAL,Y,BASELINE,2,2025-01-18,1
STUDY001,LB,STUDY001-SUBJ0009,13,L00013,WBC,White Blood Cell Count,HEMATOLOGY,7.23,10^9/L,4.5,11.0,7.23,7.23,10^9/L,4.5,11.0,NORMAL,Y,BASELINE,2,2025-01-18,1
STUDY001,LB,STUDY001-SUBJ0009,14,L00014,PLT,Platelet Count,HEMATOLOGY,272.88,10^9/L,150.0,450.0,272.88,272.88,10^9/L,150.0,450.0,NORMAL,Y,BASELINE,2,2025-01-18,1
STUDY001,LB,STUDY001-SUBJ0009,15,L00015,GLUC,Glucose,CHEMISTRY,88.53,mg/dL,70.0,100.0,88.53,88.53,mg/dL,70.0,100.0,NORMAL,Y,BASELINE,2,2025-01-18,1
STUDY001,LB,STUDY001-SUBJ0009,16,L00016,BUN,Blood Urea Nitrogen,CHEMISTRY,16.78,mg/dL,7.0,20.0,16.78,16.78,mg/dL,7.0,20.0,NORMAL,Y,BASELINE,2,2025-01-18,1
STUDY001,LB,STUDY001-SUBJ0009,17,L00017,CREAT,Creatinine,CHEMISTRY,1.02,mg/dL,0.6,1.2,1.02,1.02,mg/dL,0.6,1.2,NORMAL,Y,BASELINE,2,2025-01-18,1
STUDY001,LB,STUDY001-SUBJ0009,18,L00018,BILI,Total Bilirubin,CHEMISTRY,0.23,mg/dL,0.1,1.2,0.23,0.23,mg/dL,0.1,1.2,NORMAL,Y,BASELINE,2,2025-01-18,1
STUDY001,LB,STUDY001-SUBJ0009,19,L00019,ALP,Alkaline Phosphatase,CHEMISTRY,95.79,U/L,44.0,147.0,95.79,95.79,U/L,44.0,147.0,NORMAL,Y,BASELINE,2,2025-01-18,1
STUDY001,LB,STUDY001-SUBJ0009,20,L00020,ALT,Alanine Aminotransferase,CHEMISTRY,34.82,U/L,7.0,56.0,34.82,34.82,U/L,7.0,56.0,NORMAL,Y,BASELINE,2,2025-01-18,1
STUDY001,LB,STUDY001-SUBJ0009,21,L00021,HGB,Hemoglobin,HEMATOLOGY,14.11,g/dL,13.5,17.5,14.11,14.11,g/dL,13.5,17.5,NORMAL,,WEEK 1,3,2025-01-24,7
STUDY001,LB,STUDY001-SUBJ0009,22,L00022,HCT,Hematocrit,HEMATOLOGY,46.06,%,41.0,51.0,46.06,46.06,%,41.0,51.0,NORMAL,,WEEK 1,3,2025-01-24,7
STUDY001,LB,STUDY001-SUBJ0009,23,L00023,WBC,White Blood Cell Count,HEMATOLOGY,6.83,10^9/L,4.5,11.0,6.83,6.83,10^9/L,4.5,11.0,NORMAL,,WEEK 1,3,2025-01-24,7
STUDY001,LB,STUDY001-SUBJ0009,24,L00024,PLT,Platelet Count,HEMATOLOGY,268.31,10^9/L,150.0,450.0,268.31,268.31,10^9/L,150.0,450.0,NORMAL,,WEEK 1,3,2025-01-24,7
STUDY001,LB,STUDY001-SUBJ0009,25,L00025,GLUC,Glucose,CHEMISTRY,87.64,mg/dL,70.0,100.0,87.64,87.64,mg/dL,70.0,100.0,NORMAL,,WEEK 1,3,2025-01-24,7
STUDY001,LB,STUDY001-SUBJ0009,26,L00026,BUN,Blood Urea Nitrogen,CHEMISTRY,16.29,mg/dL,7.0,20.0,16.29,16.29,mg/dL,7.0,20.0,NORMAL,,WEEK 1,3,2025-01-24,7
STUDY001,LB,STUDY001-SUBJ0009,27,L00027,CREAT,Creatinine,CHEMISTRY,1.05,mg/dL,0.6,1.2,1.05,1.05,mg/dL,0.6,1.2,NORMAL,,WEEK 1,3,2025-01-24,7
STUDY001,LB,STUDY001-SUBJ0009,28,L00028,BILI,Total Bilirubin,CHEMISTRY,0.24,mg/dL,0.1,1.2,0.24,0.24,mg/dL,0.1,1.2,NORMAL,,WEEK 1,3,2025-01-24,7
STUDY001,LB,STUDY001-SUBJ0009,29,L00029,ALP,Alkaline Phosphatase,CHEMISTRY,98.05,U/L,44.0,147.0,98.05,98.05,U/L,44.0,147.0,NORMAL,,WEEK 1,3,2025-01-24,7
STUDY001,LB,STUDY001-SUBJ0009,30,L00030,ALT,Alanine Aminotransferase,CHEMISTRY,33.64,U/L,7.0,56.0,33.64,33.64,U/L,7.0,56.0,NORMAL,,WEEK 1,3,2025-01-24,7
STUDY001,LB,STUDY001-SUBJ0009,31,L00031,HGB,Hemoglobin,HEMATOLOGY,14.11,g/dL,13.5,17.5,14.11,14.11,g/dL,13.5,17.5,NORMAL,,WEEK 2,4,2025-01-31,14
STUDY001,LB,STUDY001-SUBJ0009,32,L00032,HCT,Hematocrit,HEMATOLOGY,46.0,%,41.0,51.0,46.0,46.0,%,41.0,51.0,NORMAL,,WEEK 2,4,2025-01-31,14
STUDY001,LB,STUDY001-SUBJ0009,33,L00033,WBC,White Blood Cell Count,HEMATOLOGY,7.25,10^9/L,4.5,11.0,7.25,7.25,10^9/L,4.5,11.0,NORMAL,,WEEK 2,4,2025-01-31,14
STUDY001,LB,STUDY001-SUBJ0009,34,L00034,PLT,Platelet Count,HEMATOLOGY,278.24,10^9/L,150.0,450.0,278.24,278.24,10^9/L,150.0,450.0,NORMAL,,WEEK 2,4,2025-01-31,14
STUDY001,LB,STUDY001-SUBJ0009,35,L00035,GLUC,Glucose,CHEMISTRY,87.31,mg/dL,70.0,100.0,87.31,87.31,mg/dL,70.0,100.0,NORMAL,,WEEK 2,4,2025-01-31,14
STUDY001,LB,STUDY001-SUBJ0009,36,L00036,BUN,Blood Urea Nitrogen,CHEMISTRY,16.55,mg/dL,7.0,20.0,16.55,16.55,mg/dL,7.0,20.0,NORMAL,,WEEK 2,4,2025-01-31,14
STUDY001,LB,STUDY001-SUBJ0009,37,L00037,CREAT,Creatinine,CHEMISTRY,1.03,mg/dL,0.6,1.2,1.03,1.03,mg/dL,0.6,1.2,NORMAL,,WEEK 2,4,2025-01-31,14
STUDY001,LB,STUDY001-SUBJ0009,38,L00038,BILI,Total Bilirubin,CHEMISTRY,0.24,mg/dL,0.1,1.2,0.24,0.24,mg/dL,0.1,1.2,NORMAL,,WEEK 2,4,2025-01-31,14
STUDY001,LB,STUDY001-SUBJ0009,39,L00039,ALP,Alkaline Phosphatase,CHEMISTRY,93.05,U/L,44.0,147.0,93.05,93.05,U/L,44.0,147.0,NORMAL,,WEEK 2,4,2025-01-31,14
STUDY001,LB,STUDY001-SUBJ0009,40,L00040,ALT,Alanine Aminotransferase,CHEMISTRY,33.62,U/L,7.0,56.0,33.62,33.62,U/L,7.0,56.0,NORMAL,,WEEK 2,4,2025-01-31,14
STUDY001,LB,STUDY001-SUBJ0009,41,L00041,HGB,Hemoglobin,HEMATOLOGY,14.27,g/dL,13.5,17.5,14.27,14.27,g/dL,13.5,17.5,NORMAL,,WEEK 4,5,2025-02-14,28
STUDY001,LB,STUDY001-SUBJ0009,42,L00042,HCT,Hematocrit,HEMATOLOGY,46.23,%,41.0,51.0,46.23,46.23,%,41.0,51.0,NORMAL,,WEEK 4,5,2025-02-14,28
STUDY001,LB,STUDY001-SUBJ0009,43,L00043,WBC,White Blood Cell Count,HEMATOLOGY,6.91,10^9/L,4.5,11.0,6.91,6.91,10^9/L,4.5,11.0,NORMAL,,WEEK 4,5,2025-02-14,28
STUDY001,LB,STUDY001-SUBJ0009,44,L00044,PLT,Platelet Count,HEMATOLOGY,267.84,10^9/L,150.0,450.0,267.84,267.84,10^9/L,150.0,450.0,NORMAL,,WEEK 4,5,2025-02-14,28
STUDY001,LB,STUDY001-SUBJ0009,45,L00045,GLUC,Glucose,CHEMISTRY,89.5,mg/dL,70.0,100.0,89.5,89.5,mg/dL,70.0,100.0,NORMAL,,WEEK 4,5,2025-02-14,28
STUDY001,LB,STUDY001-SUBJ0009,46,L00046,BUN,Blood Urea Nitrogen,CHEMISTRY,16.59,mg/dL,7.0,20.0,16.59,16.59,mg/dL,7.0,20.0,NORMAL,,WEEK 4,5,2025-02-14,28
STUDY001,LB,STUDY001-SUBJ0009,47,L00047,CREAT,Creatinine,CHEMISTRY,1.02,mg/dL,0.6,1.2,1.02,1.02,mg/dL,0.6,1.2,NORMAL,,WEEK 4,5,2025-02-14,28
STUDY001,LB,STUDY001-SUBJ0009,48,L00048,BILI,Total Bilirubin,CHEMISTRY,0.24,mg/dL,0.1,1.2,0.24,0.24,mg/dL,0.1,1.2,NORMAL,,WEEK 4,5,2025-02-14,28
STUDY001,LB,STUDY001-SUBJ0009,49,L00049,ALP,Alkaline Phosphatase,CHEMISTRY,95.79,U/L,44.0,147.0,95.79,95.79,U/L,44.0,147.0,NORMAL,,WEEK 4,5,2025-02-14,28
STUDY001,LB,STUDY001-SUBJ0009,50,L00050,ALT,Alanine Aminotransferase,CHEMISTRY,32.38,U/L,7.0,56.0,32.38,32.38,U/L,7.0,56.0,NORMAL,,WEEK 4,5,2025-02-14,28
STUDY001,LB,STUDY001-SUBJ0009,51,L00051,HGB,Hemoglobin,HEMATOLOGY,14.16,g/dL,13.5,17.5,14.16,14.16,g/dL,13.5,17.5,NORMAL,,WEEK 8,6,2025-03-14,56
STUDY001,LB,STUDY001-SUBJ0009,52,L00052,HCT,Hematocrit,HEMATOLOGY,46.36,%,41.0,51.0,46.36,46.36,%,41.0,51.0,NORMAL,,WEEK 8,6,2025-03-14,56
STUDY001,LB,STUDY001-SUBJ0009,53,L00053,WBC,White Blood Cell Count,HEMATOLOGY,7.15,10^9/L,4.5,11.0,7.15,7.15,10^9/L,4.5,11.0,NORMAL,,WEEK 8,6,2025-03-14,56
STUDY001,LB,STUDY001-SUBJ0009,54,L00054,PLT,Platelet Count,HEMATOLOGY,265.07,10^9/L,150.0,450.0,265.07,265.07,10^9/L,150.0,450.0,NORMAL,,WEEK 8,6,2025-03-14,56
STUDY001,LB,STUDY001-SUBJ0009,55,L00055,GLUC,Glucose,CHEMISTRY,88.04,mg/dL,70.0,100.0,88.04,88.04,mg/dL,70.0,100.0,NORMAL,,WEEK 8,6,2025-03-14,56
STUDY001,LB,STUDY001-SUBJ0009,56,L00056,BUN,Blood Urea Nitrogen,CHEMISTRY,16.16,mg/dL,7.0,20.0,16.16,16.16,mg/dL,7.0,20.0,NORMAL,,WEEK 8,6,2025-03-14,56
STUDY001,LB,STUDY001-SUBJ0009,57,L00057,CREAT,Creatinine,CHEMISTRY,1.01,mg/dL,0.6,1.2,1.01,1.01,mg/dL,0.6,1.2,NORMAL,,WEEK 8,6,2025-03-14,56
STUDY001,LB,STUDY001-SUBJ0009,58,L00058,BILI,Total Bilirubin,CHEMISTRY,0.2,mg/dL,0.1,1.2,0.2,0.2,mg/dL,0.1,1.2,NORMAL,,WEEK 8,6,2025-03-14,56
STUDY001,LB,STUDY001-SUBJ0009,59,L00059,ALP,Alkaline Phosphatase,CHEMISTRY,98.51,U/L,44.0,147.0,98.51,98.51,U/L,44.0,147.0,NORMAL,,WEEK 8,6,2025-03-14,56
STUDY001,LB,STUDY001-SUBJ0009,60,L00060,ALT,Alanine Aminotransferase,CHEMISTRY,34.59,U/L,7.0,56.0,34.59,34.59,U/L,7.0,56.0,NORMAL,,WEEK 8,6,2025-03-14,56
STUDY001,LB,STUDY001-SUBJ0009,61,L00061,HGB,Hemoglobin,HEMATOLOGY,13.89,g/dL,13.5,17.5,13.89,13.89,g/dL,13.5,17.5,NORMAL,,WEEK 12,7,2025-04-11,84
STUDY001,LB,STUDY001-SUBJ0009,62,L00062,HCT,Hematocrit,HEMATOLOGY,45.78,%,41.0,51.0,45.78,45.78,%,41.0,51.0,NORMAL,,WEEK 12,7,2025-04-11,84
STUDY001,LB,STUDY001-SUBJ0009,63,L00063,WBC,White Blood Cell Count,HEMATOLOGY,7.18,10^9/L,4.5,11.0,7.18,7.18,10^9/L,4.5,11.0,NORMAL,,WEEK 12,7,2025-04-11,84
STUDY001,LB,STUDY001-SUBJ0009,64,L00064,PLT,Platelet Count,HEMATOLOGY,271.5,10^9/L,150.0,450.0,271.5,271.5,10^9/L,150.0,450.0,NORMAL,,WEEK 12,7,2025-04-11,84
STUDY001,LB,STUDY001-SUBJ0009,65,L00065,GLUC,Glucose,CHEMISTRY,88.2,mg/dL,70.0,100.0,88.2,88.2,mg/dL,70.0,100.0,NORMAL,,WEEK 12,7,2025-04-11,84
STUDY001,LB,STUDY001-SUBJ0009,66,L00066,BUN,Blood Urea Nitrogen,CHEMISTRY,17.11,mg/dL,7.0,20.0,17.11,17.11,mg/dL,7.0,20.0,NORMAL,,WEEK 12,7,2025-04-11,84
STUDY001,LB,STUDY001-SUBJ0009,67,L00067,CREAT,Creatinine,CHEMISTRY,1.04,mg/dL,0.6,1.2,1.04,1.04,mg/dL,0.6,1.2,NORMAL,,WEEK 12,7,2025-04-11,84
STUDY001,LB,STUDY001-SUBJ0009,68,L00068,BILI,Total Bilirubin,CHEMISTRY,0.22,mg/dL,0.1,1.2,0.22,0.22,mg/dL,0.1,1.2,NORMAL,,WEEK 12,7,2025-04-11,84
STUDY001,LB,STUDY001-SUBJ0009,69,L00069,ALP,Alkaline Phosphatase,CHEMISTRY,96.89,U/L,44.0,147.0,96.89,96.89,U/L,44.0,147.0,NORMAL,,WEEK 12,7,2025-04-11,84
STUDY001,LB,STUDY001-SUBJ0009,70,L00070,ALT,Alanine Aminotransferase,CHEMISTRY,33.18,U/L,7.0,56.0,33.18,33.18,U/L,7.0,56.0,NORMAL,,WEEK 12,7,2025-04-11,84
STUDY001,LB,STUDY001-SUBJ0009,71,L00071,HGB,Hemoglobin,HEMATOLOGY,14.19,g/dL,13.5,17.5,14.19,14.19,g/dL,13.5,17.5,NORMAL,,WEEK 16,8,2025-05-09,112
STUDY001,LB,STUDY001-SUBJ0009,72,L00072,HCT,Hematocrit,HEMATOLOGY,46.07,%,41.0,51.0,46.07,46.07,%,41.0,51.0,NORMAL,,WEEK 16,8,2025-05-09,112
STUDY001,LB,STUDY001-SUBJ0009,73,L00073,WBC,White Blood Cell Count,HEMATOLOGY,7.28,10^9/L,4.5,11.0,7.28,7.28,10^9/L,4.5,11.0,NORMAL,,WEEK 16,8,2025-05-09,112
STUDY001,LB,STUDY001-SUBJ0009,74,L00074,PLT,Platelet Count,HEMATOLOGY,271.05,10^9/L,150.0,450.0,271.05,271.05,10^9/L,150.0,450.0,NORMAL,,WEEK 16,8,2025-05-09,112
STUDY001,LB,STUDY001-SUBJ0009,75,L00075,GLUC,Glucose,CHEMISTRY,88.44,mg/dL,70.0,100.0,88.44,88.44,mg/dL,70.0,100.0,NORMAL,,WEEK 16,8,2025-05-09,112
STUDY001,LB,STUDY001-SUBJ0009,76,L00076,BUN,Blood Urea Nitrogen,CHEMISTRY,16.11,mg/dL,7.0,20.0,16.11,16.11,mg/dL,7.0,20.0,NORMAL,,WEEK 16,8,2025-05-09,112
STUDY001,LB,STUDY001-SUBJ0009,77,L00077,CREAT,Creatinine,CHEMISTRY,1.03,mg/dL,0.6,1.2,1.03,1.03,mg/dL,0.6,1.2,NORMAL,,WEEK 16,8,2025-05-09,112
STUDY001,LB,STUDY001-SUBJ0009,78,L00078,BILI,Total Bilirubin,CHEMISTRY,0.28,mg/dL,0.1,1.2,0.28,0.28,mg/dL,0.1,1.2,NORMAL,,WEEK 16,8,2025-05-09,112
STUDY001,LB,STUDY001-SUBJ0009,79,L00079,ALP,Alkaline Phosphatase,CHEMISTRY,93.3,U/L,44.0,147.0,93.3,93.3,U/L,44.0,147.0,NORMAL,,WEEK 16,8,2025-05-09,112
STUDY001,LB,STUDY001-SUBJ0009,80,L00080,ALT,Alanine Aminotransferase,CHEMISTRY,33.67,U/L,7.0,56.0,33.67,33.67,U/L,7.0,56.0,NORMAL,,WEEK 16,8,2025-05-09,112
STUDY001,LB,STUDY001-SUBJ0009,81,L00081,HGB,Hemoglobin,HEMATOLOGY,14.15,g/dL,13.5,17.5,14.15,14.15,g/dL,13.5,17.5,NORMAL,,END OF TREATMENT,9,2025-06-06,140
STUDY001,LB,STUDY001-SUBJ0009,82,L00082,HCT,Hematocrit,HEMATOLOGY,45.95,%,41.0,51.0,45.95,45.95,%,41.0,51.0,NORMAL,,END OF TREATMENT,9,2025-06-06,140
STUDY001,LB,STUDY001-SUBJ0009,83,L00083,WBC,White Blood Cell Count,HEMATOLOGY,7.19,10^9/L,4.5,11.0,7.19,7.19,10^9/L,4.5,11.0,NORMAL,,END OF TREATMENT,9,2025-06-06,140
STUDY001,LB,STUDY001-SUBJ0009,84,L00084,PLT,Platelet Count,HEMATOLOGY,270.59,10^9/L,150.0,450.0,270.59,270.59,10^9/L,150.0,450.0,NORMAL,,END OF TREATMENT,9,2025-06-06,140
STUDY001,LB,STUDY001-SUBJ0009,85,L00085,GLUC,Glucose,CHEMISTRY,87.33,mg/dL,70.0,100.0,87.33,87.33,mg/dL,70.0,100.0,NORMAL,,END OF TREATMENT,9,2025-06-06,140
STUDY001,LB,STUDY001-SUBJ0009,86,L00086,BUN,Blood Urea Nitrogen,CHEMISTRY,16.63,mg/dL,7.0,20.0,16.63,16.63,mg/dL,7.0,20.0,NORMAL,,END OF TREATMENT,9,2025-06-06,140
STUDY001,LB,STUDY001-SUBJ0009,87,L00087,CREAT,Creatinine,CHEMISTRY,1.03,mg/dL,0.6,1.2,1.03,1.03,mg/dL,0.6,1.2,NORMAL,,END OF TREATMENT,9,2025-06-06,140
STUDY001,LB,STUDY001-SUBJ0009,88,L00088,BILI,Total Bilirubin,CHEMISTRY,0.23,mg/dL,0.1,1.2,0.23,0.23,mg/dL,0.1,1.2,NORMAL,,END OF TREATMENT,9,2025-06-06,140
STUDY001,LB,STUDY001-SUBJ0009,89,L00089,ALP,Alkaline Phosphatase,CHEMISTRY,98.19,U/L,44.0,147.0,98.19,98.19,U/L,44.0,147.0,NORMAL,,END OF TREATMENT,9,2025-06-06,140
STUDY001,LB,STUDY001-SUBJ0009,90,L00090,ALT,Alanine Aminotransferase,CHEMISTRY,34.03,U/L,7.0,56.0,34.03,34.03,U/L,7.0,56.0,NORMAL,,END OF TREATMENT,9,2025-06-06,140
STUDY001,LB,STUDY001-SUBJ0010,1,L00001,HGB,Hemoglobin,HEMATOLOGY,15.06,g/dL,13.5,17.5,15.06,15.06,g/dL,13.5,17.5,NORMAL,,SCREENING,1,2025-02-21,-14
STUDY001,LB,STUDY001-SUBJ0010,2,L00002,HCT,Hematocrit,HEMATOLOGY,44.31,%,41.0,51.0,44.31,44.31,%,41.0,51.0,NORMAL,,SCREENING,1,2025-02-21,-14
STUDY001,LB,STUDY001-SUBJ0010,3,L00003,WBC,White Blood Cell Count,HEMATOLOGY,8.62,10^9/L,4.5,11.0,8.62,8.62,10^9/L,4.5,11.0,NORMAL,,SCREENING,1,2025-02-21,-14
STUDY001,LB,STUDY001-SUBJ0010,4,L00004,PLT,Platelet Count,HEMATOLOGY,305.27,10^9/L,150.0,450.0,305.27,305.27,10^9/L,150.0,450.0,NORMAL,,SCREENING,1,2025-02-21,-14
STUDY001,LB,STUDY001-SUBJ0010,5,L00005,GLUC,Glucose,CHEMISTRY,80.52,mg/dL,70.0,100.0,80.52,80.52,mg/dL,70.0,100.0,NORMAL,,SCREENING,1,2025-02-21,-14
STUDY001,LB,STUDY001-SUBJ0010,6,L00006,BUN,Blood Urea Nitrogen,CHEMISTRY,14.46,mg/dL,7.0,20.0,14.46,14.46,mg/dL,7.0,20.0,NORMAL,,SCREENING,1,2025-02-21,-14
STUDY001,LB,STUDY001-SUBJ0010,7,L00007,CREAT,Creatinine,CHEMISTRY,0.87,mg/dL,0.6,1.2,0.87,0.87,mg/dL,0.6,1.2,NORMAL,,SCREENING,1,2025-02-21,-14
STUDY001,LB,STUDY001-SUBJ0010,8,L00008,BILI,Total Bilirubin,CHEMISTRY,0.91,mg/dL,0.1,1.2,0.91,0.91,mg/dL,0.1,1.2,NORMAL,,SCREENING,1,2025-02-21,-14
STUDY001,LB,STUDY001-SUBJ0010,9,L00009,ALP,Alkaline Phosphatase,CHEMISTRY,93.07,U/L,44.0,147.0,93.07,93.07,U/L,44.0,147.0,NORMAL,,SCREENING,1,2025-02-21,-14
STUDY001,LB,STUDY001-SUBJ0010,10,L00010,ALT,Alanine Aminotransferase,CHEMISTRY,25.39,U/L,7.0,56.0,25.39,25.39,U/L,7.0,56.0,NORMAL,,SCREENING,1,2025-02-21,-14
STUDY001,LB,STUDY001-SUBJ0010,11,L00011,HGB,Hemoglobin,HEMATOLOGY,15.06,g/dL,13.5,17.5,15.06,15.06,g/dL,13.5,17.5,NORMAL,Y,BASELINE,2,2025-03-07,1
STUDY001,LB,STUDY001-SUBJ0010,12,L00012,HCT,Hematocrit,HEMATOLOGY,44.53,%,41.0,51.0,44.53,44.53,%,41.0,51.0,NORMAL,Y,BASELINE,2,2025-03-07,1
STUDY001,LB,STUDY001-SUBJ0010,13,L00013,WBC,White Blood Cell Count,HEMATOLOGY,8.98,10^9/L,4.5,11.0,8.98,8.98,10^9/L,4.5,11.0,NORMAL,Y,BASELINE,2,2025-03-07,1
STUDY001,LB,STUDY001-SUBJ0010,14,L00014,PLT,Platelet Count,HEMATOLOGY,303.78,10^9/L,150.0,450.0,303.78,303.78,10^9/L,150.0,450.0,NORMAL,Y,BASELINE,2,2025-03-07,1
STUDY001,LB,STUDY001-SUBJ0010,15,L00015,GLUC,Glucose,CHEMISTRY,80.72,mg/dL,70.0,100.0,80.72,80.72,mg/dL,70.0,100.0,NORMAL,Y,BASELINE,2,2025-03-07,1
STUDY001,LB,STUDY001-SUBJ0010,16,L00016,BUN,Blood Urea Nitrogen,CHEMISTRY,14.57,mg/dL,7.0,20.0,14.57,14.57,mg/dL,7.0,20.0,NORMAL,Y,BASELINE,2,2025-03-07,1
STUDY001,LB,STUDY001-SUBJ0010,17,L00017,CREAT,Creatinine,CHEMISTRY,0.86,mg/dL,0.6,1.2,0.86,0.86,mg/dL,0.6,1.2,NORMAL,Y,BASELINE,2,2025-03-07,1
STUDY001,LB,STUDY001-SUBJ0010,18,L00018,BILI,Total Bilirubin,CHEMISTRY,0.93,mg/dL,0.1,1.2,0.93,0.93,mg/dL,0.1,1.2,NORMAL,Y,BASELINE,2,2025-03-07,1
STUDY001,LB,STUDY001-SUBJ0010,19,L00019,ALP,Alkaline Phosphatase,CHEMISTRY,91.18,U/L,44.0,147.0,91.18,91.18,U/L,44.0,147.0,NORMAL,Y,BASELINE,2,2025-03-07,1
STUDY001,LB,STUDY001-SUBJ0010,20,L00020,ALT,Alanine Aminotransferase,CHEMISTRY,24.54,U/L,7.0,56.0,24.54,24.54,U/L,7.0,56.0,NORMAL,Y,BASELINE,2,2025-03-07,1
STUDY001,LB,STUDY001-SUBJ0010,21,L00021,HGB,Hemoglobin,HEMATOLOGY,14.95,g/dL,13.5,17.5,14.95,14.95,g/dL,13.5,17.5,NORMAL,,WEEK 1,3,2025-03-13,7
STUDY001,LB,STUDY001-SUBJ0010,22,L00022,HCT,Hematocrit,HEMATOLOGY,44.1,%,41.0,51.0,44.1,44.1,%,41.0,51.0,NORMAL,,WEEK 1,3,2025-03-13,7
STUDY001,LB,STUDY001-SUBJ0010,23,L00023,WBC,White Blood Cell Count,HEMATOLOGY,8.61,10^9/L,4.5,11.0,8.61,8.61,10^9/L,4.5,11.0,NORMAL,,WEEK 1,3,2025-03-13,7
STUDY001,LB,STUDY001-SUBJ0010,24,L00024,PLT,Platelet Count,HEMATOLOGY,300.19,10^9/L,150.0,450.0,300.19,300.19,10^9/L,150.0,450.0,NORMAL,,WEEK 1,3,2025-03-13,7
STUDY001,LB,STUDY001-SUBJ0010,25,L00025,GLUC,Glucose,CHEMISTRY,80.48,mg/dL,70.0,100.0,80.48,80.48,mg/dL,70.0,100.0,NORMAL,,WEEK 1,3,2025-03-13,7
STUDY001,LB,STUDY001-SUBJ0010,26,L00026,BUN,Blood Urea Nitrogen,CHEMISTRY,14.08,mg/dL,7.0,20.0,14.08,14.08,mg/dL,7.0,20.0,NORMAL,,WEEK 1,3,2025-03-13,7
STUDY001,LB,STUDY001-SUBJ0010,27,L00027,CREAT,Creatinine,CHEMISTRY,0.86,mg/dL,0.6,1.2,0.86,0.86,mg/dL,0.6,1.2,NORMAL,,WEEK 1,3,2025-03-13,7
STUDY001,LB,STUDY001-SUBJ0010,28,L00028,BILI,Total Bilirubin,CHEMISTRY,0.93,mg/dL,0.1,1.2,0.93,0.93,mg/dL,0.1,1.2,NORMAL,,WEEK 1,3,2025-03-13,7
STUDY001,LB,STUDY001-SUBJ0010,29,L00029,ALP,Alkaline Phosphatase,CHEMISTRY,94.14,U/L,44.0,147.0,94.14,94.14,U/L,44.0,147.0,NORMAL,,WEEK 1,3,2025-03-13,7
STUDY001,LB,STUDY001-SUBJ0010,30,L00030,ALT,Alanine Aminotransferase,CHEMISTRY,24.24,U/L,7.0,56.0,24.24,24.24,U/L,7.0,56.0,NORMAL,,WEEK 1,3,2025-03-13,7
STUDY001,LB,STUDY001-SUBJ0010,31,L00031,HGB,Hemoglobin,HEMATOLOGY,14.96,g/dL,13.5,17.5,14.96,14.96,g/dL,13.5,17.5,NORMAL,,WEEK 2,4,2025-03-20,14
STUDY001,LB,STUDY001-SUBJ0010,32,L00032,HCT,Hematocrit,HEMATOLOGY,44.32,%,41.0,51.0,44.32,44.32,%,41.0,51.0,NORMAL,,WEEK 2,4,2025-03-20,14
STUDY001,LB,STUDY001-SUBJ0010,33,L00033,WBC,White Blood Cell Count,HEMATOLOGY,8.89,10^9/L,4.5,11.0,8.89,8.89,10^9/L,4.5,11.0,NORMAL,,WEEK 2,4,2025-03-20,14
STUDY001,LB,STUDY001-SUBJ0010,34,L00034,PLT,Platelet Count,HEMATOLOGY,302.39,10^9/L,150.0,450.0,302.39,302.39,10^9/L,150.0,450.0,NORMAL,,WEEK 2,4,2025-03-20,14
STUDY001,LB,STUDY001-SUBJ0010,35,L00035,GLUC,Glucose,CHEMISTRY,81.64,mg/dL,70.0,100.0,81.64,81.64,mg/dL,70.0,100.0,NORMAL,,WEEK 2,4,2025-03-20,14
STUDY001,LB,STUDY001-SUBJ0010,36,L00036,BUN,Blood Urea Nitrogen,CHEMISTRY,14.68,mg/dL,7.0,20.0,14.68,14.68,mg/dL,7.0,20.0,NORMAL,,WEEK 2,4,2025-03-20,14
STUDY001,LB,STUDY001-SUBJ0010,37,L00037,CREAT,Creatinine,CHEMISTRY,0.86,mg/dL,0.6,1.2,0.86,0.86,mg/dL,0.6,1.2,NORMAL,,WEEK 2,4,2025-03-20,14
STUDY001,LB,STUDY001-SUBJ0010,38,L00038,BILI,Total Bilirubin,CHEMISTRY,0.93,mg/dL,0.1,1.2,0.93,0.93,mg/dL,0.1,1.2,NORMAL,,WEEK 2,4,2025-03-20,14
STUDY001,LB,STUDY001-SUBJ0010,39,L00039,ALP,Alkaline Phosphatase,CHEMISTRY,92.41,U/L,44.0,147.0,92.41,92.41,U/L,44.0,147.0,NORMAL,,WEEK 2,4,2025-03-20,14
STUDY001,LB,STUDY001-SUBJ0010,40,L00040,ALT,Alanine Aminotransferase,CHEMISTRY,25.63,U/L,7.0,56.0,25.63,25.63,U/L,7.0,56.0,NORMAL,,WEEK 2,4,2025-03-20,14
STUDY001,LB,STUDY001-SUBJ0010,41,L00041,HGB,Hemoglobin,HEMATOLOGY,15.17,g/dL,13.5,17.5,15.17,15.17,g/dL,13.5,17.5,NORMAL,,WEEK 4,5,2025-04-03,28
STUDY001,LB,STUDY001-SUBJ0010,42,L00042,HCT,Hematocrit,HEMATOLOGY,44.54,%,41.0,51.0,44.54,44.54,%,41.0,51.0,NORMAL,,WEEK 4,5,2025-04-03,28
STUDY001,LB,STUDY001-SUBJ0010,43,L00043,WBC,White Blood Cell Count,HEMATOLOGY,8.73,10^9/L,4.5,11.0,8.73,8.73,10^9/L,4.5,11.0,NORMAL,,WEEK 4,5,2025-04-03,28
STUDY001,LB,STUDY001-SUBJ0010,44,L00044,PLT,Platelet Count,HEMATOLOGY,297.09,10^9/L,150.0,450.0,297.09,297.09,10^9/L,150.0,450.0,NORMAL,,WEEK 4,5,2025-04-03,28
STUDY001,LB,STUDY001-SUBJ0010,45,L00045,GLUC,Glucose,CHEMISTRY,78.07,mg/dL,70.0,100.0,78.07,78.07,mg/dL,70.0,100.0,NORMAL,,WEEK 4,5,2025-04-03,28
STUDY001,LB,STUDY001-SUBJ0010,46,L00046,BUN,Blood Urea Nitrogen,CHEMISTRY,14.65,mg/dL,7.0,20.0,14.65,14.65,mg/dL,7.0,20.0,NORMAL,,WEEK 4,5,2025-04-03,28
STUDY001,LB,STUDY001-SUBJ0010,47,L00047,CREAT,Creatinine,CHEMISTRY,0.88,mg/dL,0.6,1.2,0.88,0.88,mg/dL,0.6,1.2,NORMAL,,WEEK 4,5,2025-04-03,28
STUDY001,LB,STUDY001-SUBJ0010,48,L00048,BILI,Total Bilirubin,CHEMISTRY,0.93,mg/dL,0.1,1.2,0.93,0.93,mg/dL,0.1,1.2,NORMAL,,WEEK 4,5,2025-04-03,28
STUDY001,LB,STUDY001-SUBJ0010,49,L00049,ALP,Alkaline Phosphatase,CHEMISTRY,91.74,U/L,44.0,147.0,91.74,91.74,U/L,44.0,147.0,NORMAL,,WEEK 4,5,2025-04-03,28
STUDY001,LB,STUDY001-SUBJ0010,50,L00050,ALT,Alanine Aminotransferase,CHEMISTRY,25.79,U/L,7.0,56.0,25.79,25.79,U/L,7.0,56.0,NORMAL,,WEEK 4,5,2025-04-03,28
STUDY001,LB,STUDY001-SUBJ0010,51,L00051,HGB,Hemoglobin,HEMATOLOGY,14.97,g/dL,13.5,17.5,14.97,14.97,g/dL,13.5,17.5,NORMAL,,WEEK 8,6,2025-05-01,56
STUDY001,LB,STUDY001-SUBJ0010,52,L00052,HCT,Hematocrit,HEMATOLOGY,44.14,%,41.0,51.0,44.14,44.14,%,41.0,51.0,NORMAL,,WEEK 8,6,2025-05-01,56
STUDY001,LB,STUDY001-SUBJ0010,53,L00053,WBC,White Blood Cell Count,HEMATOLOGY,8.71,10^9/L,4.5,11.0,8.71,8.71,10^9/L,4.5,11.0,NORMAL,,WEEK 8,6,2025-05-01,56
STUDY001,LB,STUDY001-SUBJ0010,54,L00054,PLT,Platelet Count,HEMATOLOGY,309.69,10^9/L,150.0,450.0,309.69,309.69,10^9/L,150.0,450.0,NORMAL,,WEEK 8,6,2025-05-01,56
STUDY001,LB,STUDY001-SUBJ0010,55,L00055,GLUC,Glucose,CHEMISTRY,78.9,mg/dL,70.0,100.0,78.9,78.9,mg/dL,70.0,100.0,NORMAL,,WEEK 8,6,2025-05-01,56
STUDY001,LB,STUDY001-SUBJ0010,56,L00056,BUN,Blood Urea Nitrogen,CHEMISTRY,14.86,mg/dL,7.0,20.0,14.86,14.86,mg/dL,7.0,20.0,NORMAL,,WEEK 8,6,2025-05-01,56
STUDY001,LB,STUDY001-SUBJ0010,57,L00057,CREAT,Creatinine,CHEMISTRY,0.85,mg/dL,0.6,1.2,0.85,0.85,mg/dL,0.6,1.2,NORMAL,,WEEK 8,6,2025-05-01,56
STUDY001,LB,STUDY001-SUBJ0010,58,L00058,BILI,Total Bilirubin,CHEMISTRY,0.93,mg/dL,0.1,1.2,0.93,0.93,mg/dL,0.1,1.2,NORMAL,,WEEK 8,6,2025-05-01,56
STUDY001,LB,STUDY001-SUBJ0010,59,L00059,ALP,Alkaline Phosphatase,CHEMISTRY,92.9,U/L,44.0,147.0,92.9,92.9,U/L,44.0,147.0,NORMAL,,WEEK 8,6,2025-05-01,56
STUDY001,LB,STUDY001-SUBJ0010,60,L00060,ALT,Alanine Aminotransferase,CHEMISTRY,26.01,U/L,7.0,56.0,26.01,26.01,U/L,7.0,56.0,NORMAL,,WEEK 8,6,2025-05-01,56
STUDY001,LB,STUDY001-SUBJ0010,61,L00061,HGB,Hemoglobin,HEMATOLOGY,14.97,g/dL,13.5,17.5,14.97,14.97,g/dL,13.5,17.5,NORMAL,,WEEK 12,7,2025-05-29,84
STUDY001,LB,STUDY001-SUBJ0010,62,L00062,HCT,Hematocrit,HEMATOLOGY,44.43,%,41.0,51.0,44.43,44.43,%,41.0,51.0,NORMAL,,WEEK 12,7,2025-05-29,84
STUDY001,LB,STUDY001-SUBJ0010,63,L00063,WBC,White Blood Cell Count,HEMATOLOGY,8.37,10^9/L,4.5,11.0,8.37,8.37,10^9/L,4.5,11.0,NORMAL,,WEEK 12,7,2025-05-29,84
STUDY001,LB,STUDY001-SUBJ0010,64,L00064,PLT,Platelet Count,HEMATOLOGY,295.87,10^9/L,150.0,450.0,295.87,295.87,10^9/L,150.0,450.0,NORMAL,,WEEK 12,7,2025-05-29,84
STUDY001,LB,STUDY001-SUBJ0010,65,L00065,GLUC,Glucose,CHEMISTRY,81.03,mg/dL,70.0,100.0,81.03,81.03,mg/dL,70.0,100.0,NORMAL,,WEEK 12,7,2025-05-29,84
STUDY001,LB,STUDY001-SUBJ0010,66,L00066,BUN,Blood Urea Nitrogen,CHEMISTRY,14.32,mg/dL,7.0,20.0,14.32,14.32,mg/dL,7.0,20.0,NORMAL,,WEEK 12,7,2025-05-29,84
STUDY001,LB,STUDY001-SUBJ0010,67,L00067,CREAT,Creatinine,CHEMISTRY,0.87,mg/dL,0.6,1.2,0.87,0.87,mg/dL,0.6,1.2,NORMAL,,WEEK 12,7,2025-05-29,84
STUDY001,LB,STUDY001-SUBJ0010,68,L00068,BILI,Total Bilirubin,CHEMISTRY,0.9,mg/dL,0.1,1.2,0.9,0.9,mg/dL,0.1,1.2,NORMAL,,WEEK 12,7,2025-05-29,84
STUDY001,LB,STUDY001-SUBJ0010,69,L00069,ALP,Alkaline Phosphatase,CHEMISTRY,90.31,U/L,44.0,147.0,90.31,90.31,U/L,44.0,147.0,NORMAL,,WEEK 12,7,2025-05-29,84
STUDY001,LB,STUDY001-SUBJ0010,70,L00070,ALT,Alanine Aminotransferase,CHEMISTRY,24.67,U/L,7.0,56.0,24.67,24.67,U/L,7.0,56.0,NORMAL,,WEEK 12,7,2025-05-29,84
STUDY001,LB,STUDY001-SUBJ0010,71,L00071,HGB,Hemoglobin,HEMATOLOGY,15.08,g/dL,13.5,17.5,15.08,15.08,g/dL,13.5,17.5,NORMAL,,WEEK 16,8,2025-06-26,112
STUDY001,LB,STUDY001-SUBJ0010,72,L00072,HCT,Hematocrit,HEMATOLOGY,44.34,%,41.0,51.0,44.34,44.34,%,41.0,51.0,NORMAL,,WEEK 16,8,2025-06-26,112
STUDY001,LB,STUDY001-SUBJ0010,73,L00073,WBC,White Blood Cell Count,HEMATOLOGY,8.75,10^9/L,4.5,11.0,8.75,8.75,10^9/L,4.5,11.0,NORMAL,,WEEK 16,8,2025-06-26,112
STUDY001,LB,STUDY001-SUBJ0010,74,L00074,PLT,Platelet Count,HEMATOLOGY,288.45,10^9/L,150.0,450.0,288.45,288.45,10^9/L,150.0,450.0,NORMAL,,WEEK 16,8,2025-06-26,112
STUDY001,LB,STUDY001-SUBJ0010,75,L00075,GLUC,Glucose,CHEMISTRY,79.92,mg/dL,70.0,100.0,79.92,79.92,mg/dL,70.0,100.0,NORMAL,,WEEK 16,8,2025-06-26,112
STUDY001,LB,STUDY001-SUBJ0010,76,L00076,BUN,Blood Urea Nitrogen,CHEMISTRY,13.83,mg/dL,7.0,20.0,13.83,13.83,mg/dL,7.0,20.0,NORMAL,,WEEK 16,8,2025-06-26,112
STUDY001,LB,STUDY001-SUBJ0010,77,L00077,CREAT,Creatinine,CHEMISTRY,0.88,mg/dL,0.6,1.2,0.88,0.88,mg/dL,0.6,1.2,NORMAL,,WEEK 16,8,2025-06-26,112
STUDY001,LB,STUDY001-SUBJ0010,78,L00078,BILI,Total Bilirubin,CHEMISTRY,0.95,mg/dL,0.1,1.2,0.95,0.95,mg/dL,0.1,1.2,NORMAL,,WEEK 16,8,2025-06-26,112
STUDY001,LB,STUDY001-SUBJ0010,79,L00079,ALP,Alkaline Phosphatase,CHEMISTRY,93.12,U/L,44.0,147.0,93.12,93.12,U/L,44.0,147.0,NORMAL,,WEEK 16,8,2025-06-26,112
STUDY001,LB,STUDY001-SUBJ0010,80,L00080,ALT,Alanine Aminotransferase,CHEMISTRY,25.4,U/L,7.0,56.0,25.4,25.4,U/L,7.0,56.0,NORMAL,,WEEK 16,8,2025-06-26,112
STUDY001,LB,STUDY001-SUBJ0010,81,L00081,HGB,Hemoglobin,HEMATOLOGY,15.09,g/dL,13.5,17.5,15.09,15.09,g/dL,13.5,17.5,NORMAL,,END OF TREATMENT,9,2025-07-24,140
STUDY001,LB,STUDY001-SUBJ0010,82,L00082,HCT,Hematocrit,HEMATOLOGY,44.47,%,41.0,51.0,44.47,44.47,%,41.0,51.0,NORMAL,,END OF TREATMENT,9,2025-07-24,140
STUDY001,LB,STUDY001-SUBJ0010,83,L00083,WBC,White Blood Cell Count,HEMATOLOGY,8.67,10^9/L,4.5,11.0,8.67,8.67,10^9/L,4.5,11.0,NORMAL,,END OF TREATMENT,9,2025-07-24,140
STUDY001,LB,STUDY001-SUBJ0010,84,L00084,PLT,Platelet Count,HEMATOLOGY,310.03,10^9/L,150.0,450.0,310.03,310.03,10^9/L,150.0,450.0,NORMAL,,END OF TREATMENT,9,2025-07-24,140
STUDY001,LB,STUDY001-SUBJ0010,85,L00085,GLUC,Glucose,CHEMISTRY,81.34,mg/dL,70.0,100.0,81.34,81.34,mg/dL,70.0,100.0,NORMAL,,END OF TREATMENT,9,2025-07-24,140
STUDY001,LB,STUDY001-SUBJ0010,86,L00086,BUN,Blood Urea Nitrogen,CHEMISTRY,14.34,mg/dL,7.0,20.0,14.34,14.34,mg/dL,7.0,20.0,NORMAL,,END OF TREATMENT,9,2025-07-24,140
STUDY001,LB,STUDY001-SUBJ0010,87,L00087,CREAT,Creatinine,CHEMISTRY,0.84,mg/dL,0.6,1.2,0.84,0.84,mg/dL,0.6,1.2,NORMAL,,END OF TREATMENT,9,2025-07-24,140
STUDY001,LB,STUDY001-SUBJ0010,88,L00088,BILI,Total Bilirubin,CHEMISTRY,0.94,mg/dL,0.1,1.2,0.94,0.94,mg/dL,0.1,1.2,NORMAL,,END OF TREATMENT,9,2025-07-24,140
STUDY001,LB,STUDY001-SUBJ0010,89,L00089,ALP,Alkaline Phosphatase,CHEMISTRY,92.79,U/L,44.0,147.0,92.79,92.79,U/L,44.0,147.0,NORMAL,,END OF TREATMENT,9,2025-07-24,140
STUDY001,LB,STUDY001-SUBJ0010,90,L00090,ALT,Alanine Aminotransferase,CHEMISTRY,25.32,U/L,7.0,56.0,25.32,25.32,U/L,7.0,56.0,NORMAL,,END OF TREATMENT,9,2025-07-24,140
