STUDYID,DOMAIN,USUBJID,LBSEQ,LBREFID,LBTESTCD,LBTEST,LBCAT,LBORRES,LBORRESU,LBORNRLO,LBORNRHI,LBSTRESC,LBSTRESN,LBSTRESU,LBSTNRLO,LBSTNRHI,LBNRIND,LBBLFL,VISIT,VISITNUM,LBDTC,LBDY
STUDY001,LB,STUDY001-SUBJ0001,1,L00001,HGB,Hemoglobin,HEMATOLOGY,14.34,g/dL,13.5,17.5,14.34,14.34,g/dL,13.5,17.5,NORMAL,,SCREENING,1,2024-12-17,-14
STUDY001,LB,STUDY001-SUBJ0001,2,L00002,HCT,Hematocrit,HEMATOLOGY,48.02,%,41.0,51.0,48.02,48.02,%,41.0,51.0,NORMAL,,SCREENING,1,2024-12-17,-14
STUDY001,LB,STUDY001-SUBJ0001,3,L00003,WBC,White Blood Cell Count,HEMATOLOGY,7.99,10^9/L,4.5,11.0,7.99,7.99,10^9/L,4.5,11.0,NORMAL,,SCREENING,1,2024-12-17,-14
STUDY001,LB,STUDY001-SUBJ0001,4,L00004,PLT,Platelet Count,HEMATOLOGY,267.39,10^9/L,150.0,450.0,267.39,267.39,10^9/L,150.0,450.0,NORMAL,,SCREENING,1,2024-12-17,-14
STUDY001,LB,STUDY001-SUBJ0001,5,L00005,GLUC,Glucose,CHEMISTRY,88.82,mg/dL,70.0,100.0,88.82,88.82,mg/dL,70.0,100.0,NORMAL,,SCREENING,1,2024-12-17,-14
STUDY001,LB,STUDY001-SUBJ0001,6,L00006,BUN,Blood Urea Nitrogen,CHEMISTRY,15.62,mg/dL,7.0,20.0,15.62,15.62,mg/dL,7.0,20.0,NORMAL,,SCREENING,1,2024-12-17,-14
STUDY001,LB,STUDY001-SUBJ0001,7,L00007,CREAT,Creatinine,CHEMISTRY,0.54,mg/dL,0.6,1.2,0.54,0.54,mg/dL,0.6,1.2,LOW,,SCREENING,1,2024-12-17,-14
STUDY001,LB,STUDY001-SUBJ0001,8,L00008,BILI,Total Bilirubin,CHEMISTRY,0.55,mg/dL,0.1,1.2,0.55,0.55,mg/dL,0.1,1.2,NORMAL,,SCREENING,1,2024-12-17,-14
STUDY001,LB,STUDY001-SUBJ0001,9,L00009,ALP,Alkaline Phosphatase,CHEMISTRY,62.94,U/L,44.0,147.0,62.94,62.94,U/L,44.0,147.0,NORMAL,,SCREENING,1,2024-12-17,-14
STUDY001,LB,STUDY001-SUBJ0001,10,L00010,ALT,Alanine Aminotransferase,CHEMISTRY,29.45,U/L,7.0,56.0,29.45,29.45,U/L,7.0,56.0,NORMAL,,SCREENING,1,2024-12-17,-14
STUDY001,LB,STUDY001-SUBJ0001,11,L00011,HGB,Hemoglobin,HEMATOLOGY,14.15,g/dL,13.5,17.5,14.15,14.15,g/dL,13.5,17.5,NORMAL,Y,BASELINE,2,2024-12-31,1
STUDY001,LB,STUDY001-SUBJ0001,12,L00012,HCT,Hematocrit,HEMATOLOGY,47.71,%,41.0,51.0,47.71,47.71,%,41.0,51.0,NORMAL,Y,BASELINE,2,2024-12-31,1
STUDY001,LB,STUDY001-SUBJ0001,13,L00013,WBC,White Blood Cell Count,HEMATOLOGY,7.67,10^9/L,4.5,11.0,7.67,7.67,10^9/L,4.5,11.0,NORMAL,Y,BASELINE,2,2024-12-31,1
STUDY001,LB,STUDY001-SUBJ0001,14,L00014,PLT,Platelet Count,HEMATOLOGY,262.34,10^9/L,150.0,450.0,262.34,262.34,10^9/L,150.0,450.0,NORMAL,Y,BASELINE,2,2024-12-31,1
STUDY001,LB,STUDY001-SUBJ0001,15,L00015,GLUC,Glucose,CHEMISTRY,87.57,mg/dL,70.0,100.0,87.57,87.57,mg/dL,70.0,100.0,NORMAL,Y,BASELINE,2,2024-12-31,1
STUDY001,LB,STUDY001-SUBJ0001,16,L00016,BUN,Blood Urea Nitrogen,CHEMISTRY,15.42,mg/dL,7.0,20.0,15.42,15.42,mg/dL,7.0,20.0,NORMAL,Y,BASELINE,2,2024-12-31,1
STUDY001,LB,STUDY001-SUBJ0001,17,L00017,CREAT,Creatinine,CHEMISTRY,0.6,mg/dL,0.6,1.2,0.6,0.6,mg/dL,0.6,1.2,NORMAL,Y,BASELINE,2,2024-12-31,1
STUDY001,LB,STUDY001-SUBJ0001,18,L00018,BILI,Total Bilirubin,CHEMISTRY,0.55,mg/dL,0.1,1.2,0.55,0.55,mg/dL,0.1,1.2,NORMAL,Y,BASELINE,2,2024-12-31,1
STUDY001,LB,STUDY001-SUBJ0001,19,L00019,ALP,Alkaline Phosphatase,CHEMISTRY,66.11,U/L,44.0,147.0,66.11,66.11,U/L,44.0,147.0,NORMAL,Y,BASELINE,2,2024-12-31,1
STUDY001,LB,STUDY001-SUBJ0001,20,L00020,ALT,Alanine Aminotransferase,CHEMISTRY,29.4,U/L,7.0,56.0,29.4,29.4,U/L,7.0,56.0,NORMAL,Y,BASELINE,2,2024-12-31,1
STUDY001,LB,STUDY001-SUBJ0001,21,L00021,HGB,Hemoglobin,HEMATOLOGY,14.39,g/dL,13.5,17.5,14.39,14.39,g/dL,13.5,17.5,NORMAL,,WEEK 1,3,2025-01-06,7
STUDY001,LB,STUDY001-SUBJ0001,22,L00022,HCT,Hematocrit,HEMATOLOGY,47.93,%,41.0,51.0,47.93,47.93,%,41.0,51.0,NORMAL,,WEEK 1,3,2025-01-06,7
STUDY001,LB,STUDY001-SUBJ0001,23,L00023,WBC,White Blood Cell Count,HEMATOLOGY,8.05,10^9/L,4.5,11.0,8.05,8.05,10^9/L,4.5,11.0,NORMAL,,WEEK 1,3,2025-01-06,7
STUDY001,LB,STUDY001-SUBJ0001,24,L00024,PLT,Platelet Count,HEMATOLOGY,271.58,10^9/L,150.0,450.0,271.58,271.58,10^9/L,150.0,450.0,NORMAL,,WEEK 1,3,2025-01-06,7
STUDY001,LB,STUDY001-SUBJ0001,25,L00025,GLUC,Glucose,CHEMISTRY,86.37,mg/dL,70.0,100.0,86.37,86.37,mg/dL,70.0,100.0,NORMAL,,WEEK 1,3,2025-01-06,7
STUDY001,LB,STUDY001-SUBJ0001,26,L00026,BUN,Blood Urea Nitrogen,CHEMISTRY,15.9,mg/dL,7.0,20.0,15.9,15.9,mg/dL,7.0,20.0,NORMAL,,WEEK 1,3,2025-01-06,7
STUDY001,LB,STUDY001-SUBJ0001,27,L00027,CREAT,Creatinine,CHEMISTRY,0.55,mg/dL,0.6,1.2,0.55,0.55,mg/dL,0.6,1.2,LOW,,WEEK 1,3,2025-01-06,7
STUDY001,LB,STUDY001-SUBJ0001,28,L00028,BILI,Total Bilirubin,CHEMISTRY,0.56,mg/dL,0.1,1.2,0.56,0.56,mg/dL,0.1,1.2,NORMAL,,WEEK 1,3,2025-01-06,7
STUDY001,LB,STUDY001-SUBJ0001,29,L00029,ALP,Alkaline Phosphatase,CHEMISTRY,63.02,U/L,44.0,147.0,63.02,63.02,U/L,44.0,147.0,NORMAL,,WEEK 1,3,2025-01-06,7
STUDY001,LB,STUDY001-SUBJ0001,30,L00030,ALT,Alanine Aminotransferase,CHEMISTRY,30.66,U/L,7.0,56.0,30.66,30.66,U/L,7.0,56.0,NORMAL,,WEEK 1,3,2025-01-06,7
STUDY001,LB,STUDY001-SUBJ0001,31,L00031,HGB,Hemoglobin,HEMATOLOGY,14.32,g/dL,13.5,17.5,14.32,14.32,g/dL,13.5,17.5,NORMAL,,WEEK 2,4,2025-01-13,14
STUDY001,LB,STUDY001-SUBJ0001,32,L00032,HCT,Hematocrit,HEMATOLOGY,47.83,%,41.0,51.0,47.83,47.83,%,41.0,51.0,NORMAL,,WEEK 2,4,2025-01-13,14
STUDY001,LB,STUDY001-SUBJ0001,33,L00033,WBC,White Blood Cell Count,HEMATOLOGY,7.9,10^9/L,4.5,11.0,7.9,7.9,10^9/L,4.5,11.0,NORMAL,,WEEK 2,4,2025-01-13,14
STUDY001,LB,STUDY001-SUBJ0001,34,L00034,PLT,Platelet Count,HEMATOLOGY,265.54,10^9/L,150.0,450.0,265.54,265.54,10^9/L,150.0,450.0,NORMAL,,WEEK 2,4,2025-01-13,14
STUDY001,LB,STUDY001-SUBJ0001,35,L00035,GLUC,Glucose,CHEMISTRY,88.04,mg/dL,70.0,100.0,88.04,88.04,mg/dL,70.0,100.0,NORMAL,,WEEK 2,4,2025-01-13,14
STUDY001,LB,STUDY001-SUBJ0001,36,L00036,BUN,Blood Urea Nitrogen,CHEMISTRY,15.68,mg/dL,7.0,20.0,15.68,15.68,mg/dL,7.0,20.0,NORMAL,,WEEK 2,4,2025-01-13,14
STUDY001,LB,STUDY001-SUBJ0001,37,L00037,CREAT,Creatinine,CHEMISTRY,0.57,mg/dL,0.6,1.2,0.57,0.57,mg/dL,0.6,1.2,LOW,,WEEK 2,4,2025-01-13,14
STUDY001,LB,STUDY001-SUBJ0001,38,L00038,BILI,Total Bilirubin,CHEMISTRY,0.53,mg/dL,0.1,1.2,0.53,0.53,mg/dL,0.1,1.2,NORMAL,,WEEK 2,4,2025-01-13,14
STUDY001,LB,STUDY001-SUBJ0001,39,L00039,ALP,Alkaline Phosphatase,CHEMISTRY,62.21,U/L,44.0,147.0,62.21,62.21,U/L,44.0,147.0,NORMAL,,WEEK 2,4,2025-01-13,14
STUDY001,LB,STUDY001-SUBJ0001,40,L00040,ALT,Alanine Aminotransferase,CHEMISTRY,29.67,U/L,7.0,56.0,29.67,29.67,U/L,7.0,56.0,NORMAL,,WEEK 2,4,2025-01-13,14
STUDY001,LB,STUDY001-SUBJ0001,41,L00041,HGB,Hemoglobin,HEMATOLOGY,14.16,g/dL,13.5,17.5,14.16,14.16,g/dL,13.5,17.5,NORMAL,,WEEK 4,5,2025-01-27,28
STUDY001,LB,STUDY001-SUBJ0001,42,L00042,HCT,Hematocrit,HEMATOLOGY,47.82,%,41.0,51.0,47.82,47.82,%,41.0,51.0,NORMAL,,WEEK 4,5,2025-01-27,28
STUDY001,LB,STUDY001-SUBJ0001,43,L00043,WBC,White Blood Cell Count,HEMATOLOGY,7.9,10^9/L,4.5,11.0,7.9,7.9,10^9/L,4.5,11.0,NORMAL,,WEEK 4,5,2025-01-27,28
STUDY001,LB,STUDY001-SUBJ0001,44,L00044,PLT,Platelet Count,HEMATOLOGY,276.51,10^9/L,150.0,450.0,276.51,276.51,10^9/L,150.0,450.0,NORMAL,,WEEK 4,5,2025-01-27,28
STUDY001,LB,STUDY001-SUBJ0001,45,L00045,GLUC,Glucose,CHEMISTRY,88.11,mg/dL,70.0,100.0,88.11,88.11,mg/dL,70.0,100.0,NORMAL,,WEEK 4,5,2025-01-27,28
STUDY001,LB,STUDY001-SUBJ0001,46,L00046,BUN,Blood Urea Nitrogen,CHEMISTRY,15.88,mg/dL,7.0,20.0,15.88,15.88,mg/dL,7.0,20.0,NORMAL,,WEEK 4,5,2025-01-27,28
STUDY001,LB,STUDY001-SUBJ0001,47,L00047,CREAT,Creatinine,CHEMISTRY,0.6,mg/dL,0.6,1.2,0.6,0.6,mg/dL,0.6,1.2,NORMAL,,WEEK 4,5,2025-01-27,28
STUDY001,LB,STUDY001-SUBJ0001,48,L00048,BILI,Total Bilirubin,CHEMISTRY,0.55,mg/dL,0.1,1.2,0.55,0.55,mg/dL,0.1,1.2,NORMAL,,WEEK 4,5,2025-01-27,28
STUDY001,LB,STUDY001-SUBJ0001,49,L00049,ALP,Alkaline Phosphatase,CHEMISTRY,60.66,U/L,44.0,147.0,60.66,60.66,U/L,44.0,147.0,NORMAL,,WEEK 4,5,2025-01-27,28
STUDY001,LB,STUDY001-SUBJ0001,50,L00050,ALT,Alanine Aminotransferase,CHEMISTRY,30.41,U/L,7.0,56.0,30.41,30.41,U/L,7.0,56.0,NORMAL,,WEEK 4,5,2025-01-27,28
STUDY001,LB,STUDY001-SUBJ0001,51,L00051,HGB,Hemoglobin,HEMATOLOGY,14.25,g/dL,13.5,17.5,14.25,14.25,g/dL,13.5,17.5,NORMAL,,WEEK 8,6,2025-02-24,56
STUDY001,LB,STUDY001-SUBJ0001,52,L00052,HCT,Hematocrit,HEMATOLOGY,47.56,%,41.0,51.0,47.56,47.56,%,41.0,51.0,NORMAL,,WEEK 8,6,2025-02-24,56
STUDY001,LB,STUDY001-SUBJ0001,53,L00053,WBC,White Blood Cell Count,HEMATOLOGY,8.17,10^9/L,4.5,11.0,8.17,8.17,10^9/L,4.5,11.0,NORMAL,,WEEK 8,6,2025-02-24,56
STUDY001,LB,STUDY001-SUBJ0001,54,L00054,PLT,Platelet Count,HEMATOLOGY,260.79,10^9/L,150.0,450.0,260.79,260.79,10^9/L,150.0,450.0,NORMAL,,WEEK 8,6,2025-02-24,56
STUDY001,LB,STUDY001-SUBJ0001,55,L00055,GLUC,Glucose,CHEMISTRY,86.83,mg/dL,70.0,100.0,86.83,86.83,mg/dL,70.0,100.0,NORMAL,,WEEK 8,6,2025-02-24,56
STUDY001,LB,STUDY001-SUBJ0001,56,L00056,BUN,Blood Urea Nitrogen,CHEMISTRY,15.7,mg/dL,7.0,20.0,15.7,15.7,mg/dL,7.0,20.0,NORMAL,,WEEK 8,6,2025-02-24,56
STUDY001,LB,STUDY001-SUBJ0001,57,L00057,CREAT,Creatinine,CHEMISTRY,0.57,mg/dL,0.6,1.2,0.57,0.57,mg/dL,0.6,1.2,LOW,,WEEK 8,6,2025-02-24,56
STUDY001,LB,STUDY001-SUBJ0001,58,L00058,BILI,Total Bilirubin,CHEMISTRY,0.57,mg/dL,0.1,1.2,0.57,0.57,mg/dL,0.1,1.2,NORMAL,,WEEK 8,6,2025-02-24,56
STUDY001,LB,STUDY001-SUBJ0001,59,L00059,ALP,Alkaline Phosphatase,CHEMISTRY,64.7,U/L,44.0,147.0,64.7,64.7,U/L,44.0,147.0,NORMAL,,WEEK 8,6,2025-02-24,56
STUDY001,LB,STUDY001-SUBJ0001,60,L00060,ALT,Alanine Aminotransferase,CHEMISTRY,29.41,U/L,7.0,56.0,29.41,29.41,U/L,7.0,56.0,NORMAL,,WEEK 8,6,2025-02-24,56
STUDY001,LB,STUDY001-SUBJ0001,61,L00061,HGB,Hemoglobin,HEMATOLOGY,14.37,g/dL,13.5,17.5,14.37,14.37,g/dL,13.5,17.5,NORMAL,,WEEK 12,7,2025-03-24,84
STUDY001,LB,STUDY001-SUBJ0001,62,L00062,HCT,Hematocrit,HEMATOLOGY,47.41,%,41.0,51.0,47.41,47.41,%,41.0,51.0,NORMAL,,WEEK 12,7,2025-03-24,84
STUDY001,LB,STUDY001-SUBJ0001,63,L00063,WBC,White Blood Cell Count,HEMATOLOGY,8.0,10^9/L,4.5,11.0,8.0,8.0,10^9/L,4.5,11.0,NORMAL,,WEEK 12,7,2025-03-24,84
STUDY001,LB,STUDY001-SUBJ0001,64,L00064,PLT,Platelet Count,HEMATOLOGY,266.23,10^9/L,150.0,450.0,266.23,266.23,10^9/L,150.0,450.0,NORMAL,,WEEK 12,7,2025-03-24,84
STUDY001,LB,STUDY001-SUBJ0001,65,L00065,GLUC,Glucose,CHEMISTRY,89.43,mg/dL,70.0,100.0,89.43,89.43,mg/dL,70.0,100.0,NORMAL,,WEEK 12,7,2025-03-24,84
STUDY001,LB,STUDY001-SUBJ0001,66,L00066,BUN,Blood Urea Nitrogen,CHEMISTRY,15.61,mg/dL,7.0,20.0,15.61,15.61,mg/dL,7.0,20.0,NORMAL,,WEEK 12,7,2025-03-24,84
STUDY001,LB,STUDY001-SUBJ0001,67,L00067,CREAT,Creatinine,CHEMISTRY,0.55,mg/dL,0.6,1.2,0.55,0.55,mg/dL,0.6,1.2,LOW,,WEEK 12,7,2025-03-24,84
STUDY001,LB,STUDY001-SUBJ0001,68,L00068,BILI,Total Bilirubin,CHEMISTRY,0.54,mg/dL,0.1,1.2,0.54,0.54,mg/dL,0.1,1.2,NORMAL,,WEEK 12,7,2025-03-24,84
STUDY001,LB,STUDY001-SUBJ0001,69,L00069,ALP,Alkaline Phosphatase,CHEMISTRY,64.04,U/L,44.0,147.0,64.04,64.04,U/L,44.0,147.0,NORMAL,,WEEK 12,7,2025-03-24,84
STUDY001,LB,STUDY001-SUBJ0001,70,L00070,ALT,Alanine Aminotransferase,CHEMISTRY,29.49,U/L,7.0,56.0,29.49,29.49,U/L,7.0,56.0,NORMAL,,WEEK 12,7,2025-03-24,84
STUDY001,LB,STUDY001-SUBJ0001,71,L00071,HGB,Hemoglobin,HEMATOLOGY,14.09,g/dL,13.5,17.5,14.09,14.09,g/dL,13.5,17.5,NORMAL,,WEEK 16,8,2025-04-21,112
STUDY001,LB,STUDY001-SUBJ0001,72,L00072,HCT,Hematocrit,HEMATOLOGY,48.07,%,41.0,51.0,48.07,48.07,%,41.0,51.0,NORMAL,,WEEK 16,8,2025-04-21,112
STUDY001,LB,STUDY001-SUBJ0001,73,L00073,WBC,White Blood Cell Count,HEMATOLOGY,7.71,10^9/L,4.5,11.0,7.71,7.71,10^9/L,4.5,11.0,NORMAL,,WEEK 16,8,2025-04-21,112
STUDY001,LB,STUDY001-SUBJ0001,74,L00074,PLT,Platelet Count,HEMATOLOGY,265.84,10^9/L,150.0,450.0,265.84,265.84,10^9/L,150.0,450.0,NORMAL,,WEEK 16,8,2025-04-21,112
STUDY001,LB,STUDY001-SUBJ0001,75,L00075,GLUC,Glucose,CHEMISTRY,87.69,mg/dL,70.0,100.0,87.69,87.69,mg/dL,70.0,100.0,NORMAL,,WEEK 16,8,2025-04-21,112
STUDY001,LB,STUDY001-SUBJ0001,76,L00076,BUN,Blood Urea Nitrogen,CHEMISTRY,15.78,mg/dL,7.0,20.0,15.78,15.78,mg/dL,7.0,20.0,NORMAL,,WEEK 16,8,2025-04-21,112
STUDY001,LB,STUDY001-SUBJ0001,77,L00077,CREAT,Creatinine,CHEMISTRY,0.59,mg/dL,0.6,1.2,0.59,0.59,mg/dL,0.6,1.2,LOW,,WEEK 16,8,2025-04-21,112
STUDY001,LB,STUDY001-SUBJ0001,78,L00078,BILI,Total Bilirubin,CHEMISTRY,0.53,mg/dL,0.1,1.2,0.53,0.53,mg/dL,0.1,1.2,NORMAL,,WEEK 16,8,2025-04-21,112
STUDY001,LB,STUDY001-SUBJ0001,79,L00079,ALP,Alkaline Phosphatase,CHEMISTRY,64.16,U/L,44.0,147.0,64.16,64.16,U/L,44.0,147.0,NORMAL,,WEEK 16,8,2025-04-21,112
STUDY001,LB,STUDY001-SUBJ0001,80,L00080,ALT,Alanine Aminotransferase,CHEMISTRY,30.29,U/L,7.0,56.0,30.29,30.29,U/L,7.0,56.0,NORMAL,,WEEK 16,8,2025-04-21,112
STUDY001,LB,STUDY001-SUBJ0001,81,L00081,HGB,Hemoglobin,HEMATOLOGY,14.22,g/dL,13.5,17.5,14.22,14.22,g/dL,13.5,17.5,NORMAL,,END OF TREATMENT,9,2025-05-19,140
STUDY001,LB,STUDY001-SUBJ0001,82,L00082,HCT,Hematocrit,HEMATOLOGY,47.92,%,41.0,51.0,47.92,47.92,%,41.0,51.0,NORMAL,,END OF TREATMENT,9,2025-05-19,140
STUDY001,LB,STUDY001-SUBJ0001,83,L00083,WBC,White Blood Cell Count,HEMATOLOGY,7.97,10^9/L,4.5,11.0,7.97,7.97,10^9/L,4.5,11.0,NORMAL,,END OF TREATMENT,9,2025-05-19,140
STUDY001,LB,STUDY001-SUBJ0001,84,L00084,PLT,Platelet Count,HEMATOLOGY,275.65,10^9/L,150.0,450.0,275.65,275.65,10^9/L,150.0,450.0,NORMAL,,END OF TREATMENT,9,2025-05-19,140
STUDY001,LB,STUDY001-SUBJ0001,85,L00085,GLUC,Glucose,CHEMISTRY,90.42,mg/dL,70.0,100.0,90.42,90.42,mg/dL,70.0,100.0,NORMAL,,END OF TREATMENT,9,2025-05-19,140
STUDY001,LB,STUDY001-SUBJ0001,86,L00086,BUN,Blood Urea Nitrogen,CHEMISTRY,15.01,mg/dL,7.0,20.0,15.01,15.01,mg/dL,7.0,20.0,NORMAL,,END OF TREATMENT,9,2025-05-19,140
STUDY001,LB,STUDY001-SUBJ0001,87,L00087,CREAT,Creatinine,CHEMISTRY,0.56,mg/dL,0.6,1.2,0.56,0.56,mg/dL,0.6,1.2,LOW,,END OF TREATMENT,9,2025-05-19,140
STUDY001,LB,STUDY001-SUBJ0001,88,L00088,BILI,Total Bilirubin,CHEMISTRY,0.58,mg/dL,0.1,1.2,0.58,0.58,mg/dL,0.1,1.2,NORMAL,,END OF TREATMENT,9,2025-05-19,140
STUDY001,LB,STUDY001-SUBJ0001,89,L00089,ALP,Alkaline Phosphatase,CHEMISTRY,61.35,U/L,44.0,147.0,61.35,61.35,U/L,44.0,147.0,NORMAL,,END OF TREATMENT,9,2025-05-19,140
STUDY001,LB,STUDY001-SUBJ0001,90,L00090,ALT,Alanine Aminotransferase,CHEMISTRY,29.97,U/L,7.0,56.0,29.97,29.97,U/L,7.0,56.0,NORMAL,,END OF TREATMENT,9,2025-05-19,140
STUDY001,LB,STUDY001-SUBJ0002,1,L00001,HGB,Hemoglobin,HEMATOLOGY,15.4,g/dL,13.5,17.5,15.4,15.4,g/dL,13.5,17.5,NORMAL,,SCREENING,1,2024-08-11,-14
STUDY001,LB,STUDY001-SUBJ0002,2,L00002,HCT,Hematocrit,HEMATOLOGY,42.21,%,41.0,51.0,42.21,42.21,%,41.0,51.0,NORMAL,,SCREENING,1,2024-08-11,-14
STUDY001,LB,STUDY001-SUBJ0002,3,L00003,WBC,White Blood Cell Count,HEMATOLOGY,7.67,10^9/L,4.5,11.0,7.67,7.67,10^9/L,4.5,11.0,NORMAL,,SCREENING,1,2024-08-11,-14
STUDY001,LB,STUDY001-SUBJ0002,4,L00004,PLT,Platelet Count,HEMATOLOGY,363.72,10^9/L,150.0,450.0,363.72,363.72,10^9/L,150.0,450.0,NORMAL,,SCREENING,1,2024-08-11,-14
STUDY001,LB,STUDY001-SUBJ0002,5,L00005,GLUC,Glucose,CHEMISTRY,84.53,mg/dL,70.0,100.0,84.53,84.53,mg/dL,70.0,100.0,NORMAL,,SCREENING,1,2024-08-11,-14
STUDY001,LB,STUDY001-SUBJ0002,6,L00006,BUN,Blood Urea Nitrogen,CHEMISTRY,13.97,mg/dL,7.0,20.0,13.97,13.97,mg/dL,7.0,20.0,NORMAL,,SCREENING,1,2024-08-11,-14
STUDY001,LB,STUDY001-SUBJ0002,7,L00007,CREAT,Creatinine,CHEMISTRY,0.73,mg/dL,0.6,1.2,0.73,0.73,mg/dL,0.6,1.2,NORMAL,,SCREENING,1,2024-08-11,-14
STUDY001,LB,STUDY001-SUBJ0002,8,L00008,BILI,Total Bilirubin,CHEMISTRY,0.64,mg/dL,0.1,1.2,0.64,0.64,mg/dL,0.1,1.2,NORMAL,,SCREENING,1,2024-08-11,-14
STUDY001,LB,STUDY001-SUBJ0002,9,L00009,ALP,Alkaline Phosphatase,CHEMISTRY,102.2,U/L,44.0,147.0,102.2,102.2,U/L,44.0,147.0,NORMAL,,SCREENING,1,2024-08-11,-14
STUDY001,LB,STUDY001-SUBJ0002,10,L00010,ALT,Alanine Aminotransferase,CHEMISTRY,30.02,U/L,7.0,56.0,30.02,30.02,U/L,7.0,56.0,NORMAL,,SCREENING,1,2024-08-11,-14
STUDY001,LB,STUDY001-SUBJ0002,11,L00011,HGB,Hemoglobin,HEMATOLOGY,15.6,g/dL,13.5,17.5,15.6,15.6,g/dL,13.5,17.5,NORMAL,Y,BASELINE,2,2024-08-25,1
STUDY001,LB,STUDY001-SUBJ0002,12,L00012,HCT,Hematocrit,HEMATOLOGY,42.23,%,41.0,51.0,42.23,42.23,%,41.0,51.0,NORMAL,Y,BASELINE,2,2024-08-25,1
STUDY001,LB,STUDY001-SUBJ0002,13,L00013,WBC,White Blood Cell Count,HEMATOLOGY,7.28,10^9/L,4.5,11.0,7.28,7.28,10^9/L,4.5,11.0,NORMAL,Y,BASELINE,2,2024-08-25,1
STUDY001,LB,STUDY001-SUBJ0002,14,L00014,PLT,Platelet Count,HEMATOLOGY,355.17,10^9/L,150.0,450.0,355.17,355.17,10^9/L,150.0,450.0,NORMAL,Y,BASELINE,2,2024-08-25,1
STUDY001,LB,STUDY001-SUBJ0002,15,L00015,GLUC,Glucose,CHEMISTRY,84.45,mg/dL,70.0,100.0,84.45,84.45,mg/dL,70.0,100.0,NORMAL,Y,BASELINE,2,2024-08-25,1
STUDY001,LB,STUDY001-SUBJ0002,16,L00016,BUN,Blood Urea Nitrogen,CHEMISTRY,14.53,mg/dL,7.0,20.0,14.53,14.53,mg/dL,7.0,20.0,NORMAL,Y,BASELINE,2,2024-08-25,1
STUDY001,LB,STUDY001-SUBJ0002,17,L00017,CREAT,Creatinine,CHEMISTRY,0.69,mg/dL,0.6,1.2,0.69,0.69,mg/dL,0.6,1.2,NORMAL,Y,BASELINE,2,2024-08-25,1
STUDY001,LB,STUDY001-SUBJ0002,18,L00018,BILI,Total Bilirubin,CHEMISTRY,0.68,mg/dL,0.1,1.2,0.68,0.68,mg/dL,0.1,1.2,NORMAL,Y,BASELINE,2,2024-08-25,1
STUDY001,LB,STUDY001-SUBJ0002,19,L00019,ALP,Alkaline Phosphatase,CHEMISTRY,104.97,U/L,44.0,147.0,104.97,104.97,U/L,44.0,147.0,NORMAL,Y,BASELINE,2,2024-08-25,1
STUDY001,LB,STUDY001-SUBJ0002,20,L00020,ALT,Alanine Aminotransferase,CHEMISTRY,30.18,U/L,7.0,56.0,30.18,30.18,U/L,7.0,56.0,NORMAL,Y,BASELINE,2,2024-08-25,1
STUDY001,LB,STUDY001-SUBJ0002,21,L00021,HGB,Hemoglobin,HEMATOLOGY,15.31,g/dL,13.5,17.5,15.31,15.31,g/dL,13.5,17.5,NORMAL,,WEEK 1,3,2024-08-31,7
STUDY001,LB,STUDY001-SUBJ0002,22,L00022,HCT,Hematocrit,HEMATOLOGY,42.3,%,41.0,51.0,42.3,42.3,%,41.0,51.0,NORMAL,,WEEK 1,3,2024-08-31,7
STUDY001,LB,STUDY001-SUBJ0002,23,L00023,WBC,White Blood Cell Count,HEMATOLOGY,7.68,10^9/L,4.5,11.0,7.68,7.68,10^9/L,4.5,11.0,NORMAL,,WEEK 1,3,2024-08-31,7
STUDY001,LB,STUDY001-SUBJ0002,24,L00024,PLT,Platelet Count,HEMATOLOGY,358.16,10^9/L,150.0,450.0,358.16,358.16,10^9/L,150.0,450.0,NORMAL,,WEEK 1,3,2024-08-31,7
STUDY001,LB,STUDY001-SUBJ0002,25,L00025,GLUC,Glucose,CHEMISTRY,83.08,mg/dL,70.0,100.0,83.08,83.08,mg/dL,70.0,100.0,NORMAL,,WEEK 1,3,2024-08-31,7
STUDY001,LB,STUDY001-SUBJ0002,26,L00026,BUN,Blood Urea Nitrogen,CHEMISTRY,13.82,mg/dL,7.0,20.0,13.82,13.82,mg/dL,7.0,20.0,NORMAL,,WEEK 1,3,2024-08-31,7
STUDY001,LB,STUDY001-SUBJ0002,27,L00027,CREAT,Creatinine,CHEMISTRY,0.68,mg/dL,0.6,1.2,0.68,0.68,mg/dL,0.6,1.2,NORMAL,,WEEK 1,3,2024-08-31,7
STUDY001,LB,STUDY001-SUBJ0002,28,L00028,BILI,Total Bilirubin,CHEMISTRY,0.63,mg/dL,0.1,1.2,0.63,0.63,mg/dL,0.1,1.2,NORMAL,,WEEK 1,3,2024-08-31,7
STUDY001,LB,STUDY001-SUBJ0002,29,L00029,ALP,Alkaline Phosphatase,CHEMISTRY,103.85,U/L,44.0,147.0,103.85,103.85,U/L,44.0,147.0,NORMAL,,WEEK 1,3,2024-08-31,7
STUDY001,LB,STUDY001-SUBJ0002,30,L00030,ALT,Alanine Aminotransferase,CHEMISTRY,30.96,U/L,7.0,56.0,30.96,30.96,U/L,7.0,56.0,NORMAL,,WEEK 1,3,2024-08-31,7
STUDY001,LB,STUDY001-SUBJ0002,31,L00031,HGB,Hemoglobin,HEMATOLOGY,15.25,g/dL,13.5,17.5,15.25,15.25,g/dL,13.5,17.5,NORMAL,,WEEK 2,4,2024-09-07,14
STUDY001,LB,STUDY001-SUBJ0002,32,L00032,HCT,Hematocrit,HEMATOLOGY,42.04,%,41.0,51.0,42.04,42.04,%,41.0,51.0,NORMAL,,WEEK 2,4,2024-09-07,14
STUDY001,LB,STUDY001-SUBJ0002,33,L00033,WBC,White Blood Cell Count,HEMATOLOGY,7.7,10^9/L,4.5,11.0,7.7,7.7,10^9/L,4.5,11.0,NORMAL,,WEEK 2,4,2024-09-07,14
STUDY001,LB,STUDY001-SUBJ0002,34,L00034,PLT,Platelet Count,HEMATOLOGY,349.88,10^9/L,150.0,450.0,349.88,349.88,10^9/L,150.0,450.0,NORMAL,,WEEK 2,4,2024-09-07,14
STUDY001,LB,STUDY001-SUBJ0002,35,L00035,GLUC,Glucose,CHEMISTRY,83.32,mg/dL,70.0,100.0,83.32,83.32,mg/dL,70.0,100.0,NORMAL,,WEEK 2,4,2024-09-07,14
STUDY001,LB,STUDY001-SUBJ0002,36,L00036,BUN,Blood Urea Nitrogen,CHEMISTRY,14.49,mg/dL,7.0,20.0,14.49,14.49,mg/dL,7.0,20.0,NORMAL,,WEEK 2,4,2024-09-07,14
STUDY001,LB,STUDY001-SUBJ0002,37,L00037,CREAT,Creatinine,CHEMISTRY,0.69,mg/dL,0.6,1.2,0.69,0.69,mg/dL,0.6,1.2,NORMAL,,WEEK 2,4,2024-09-07,14
STUDY001,LB,STUDY001-SUBJ0002,38,L00038,BILI,Total Bilirubin,CHEMISTRY,0.59,mg/dL,0.1,1.2,0.59,0.59,mg/dL,0.1,1.2,NORMAL,,WEEK 2,4,2024-09-07,14
STUDY001,LB,STUDY001-SUBJ0002,39,L00039,ALP,Alkaline Phosphatase,CHEMISTRY,103.36,U/L,44.0,147.0,103.36,103.36,U/L,44.0,147.0,NORMAL,,WEEK 2,4,2024-09-07,14
STUDY001,LB,STUDY001-SUBJ0002,40,L00040,ALT,Alanine Aminotransferase,CHEMISTRY,32.15,U/L,7.0,56.0,32.15,32.15,U/L,7.0,56.0,NORMAL,,WEEK 2,4,2024-09-07,14
STUDY001,LB,STUDY001-SUBJ0002,41,L00041,HGB,Hemoglobin,HEMATOLOGY,15.37,g/dL,13.5,17.5,15.37,15.37,g/dL,13.5,17.5,NORMAL,,WEEK 4,5,2024-09-21,28
STUDY001,LB,STUDY001-SUBJ0002,42,L00042,HCT,Hematocrit,HEMATOLOGY,42.39,%,41.0,51.0,42.39,42.39,%,41.0,51.0,NORMAL,,WEEK 4,5,2024-09-21,28
STUDY001,LB,STUDY001-SUBJ0002,43,L00043,WBC,White Blood Cell Count,HEMATOLOGY,7.53,10^9/L,4.5,11.0,7.53,7.53,10^9/L,4.5,11.0,NORMAL,,WEEK 4,5,2024-09-21,28
STUDY001,LB,STUDY001-SUBJ0002,44,L00044,PLT,Platelet Count,HEMATOLOGY,356.38,10^9/L,150.0,450.0,356.38,356.38,10^9/L,150.0,450.0,NORMAL,,WEEK 4,5,2024-09-21,28
STUDY001,LB,STUDY001-SUBJ0002,45,L00045,GLUC,Glucose,CHEMISTRY,85.6,mg/dL,70.0,100.0,85.6,85.6,mg/dL,70.0,100.0,NORMAL,,WEEK 4,5,2024-09-21,28
STUDY001,LB,STUDY001-SUBJ0002,46,L00046,BUN,Blood Urea Nitrogen,CHEMISTRY,14.17,mg/dL,7.0,20.0,14.17,14.17,mg/dL,7.0,20.0,NORMAL,,WEEK 4,5,2024-09-21,28
STUDY001,LB,STUDY001-SUBJ0002,47,L00047,CREAT,Creatinine,CHEMISTRY,0.68,mg/dL,0.6,1.2,0.68,0.68,mg/dL,0.6,1.2,NORMAL,,WEEK 4,5,2024-09-21,28
STUDY001,LB,STUDY001-SUBJ0002,48,L00048,BILI,Total Bilirubin,CHEMISTRY,0.67,mg/dL,0.1,1.2,0.67,0.67,mg/dL,0.1,1.2,NORMAL,,WEEK 4,5,2024-09-21,28
STUDY001,LB,STUDY001-SUBJ0002,49,L00049,ALP,Alkaline Phosphatase,CHEMISTRY,101.06,U/L,44.0,147.0,101.06,101.06,U/L,44.0,147.0,NORMAL,,WEEK 4,5,2024-09-21,28
STUDY001,LB,STUDY001-SUBJ0002,50,L00050,ALT,Alanine Aminotransferase,CHEMISTRY,31.44,U/L,7.0,56.0,31.44,31.44,U/L,7.0,56.0,NORMAL,,WEEK 4,5,2024-09-21,28
STUDY001,LB,STUDY001-SUBJ0002,51,L00051,HGB,Hemoglobin,HEMATOLOGY,15.32,g/dL,13.5,17.5,15.32,15.32,g/dL,13.5,17.5,NORMAL,,WEEK 8,6,2024-10-19,56
STUDY001,LB,STUDY001-SUBJ0002,52,L00052,HCT,Hematocrit,HEMATOLOGY,42.09,%,41.0,51.0,42.09,42.09,%,41.0,51.0,NORMAL,,WEEK 8,6,2024-10-19,56
STUDY001,LB,STUDY001-SUBJ0002,53,L00053,WBC,White Blood Cell Count,HEMATOLOGY,7.66,10^9/L,4.5,11.0,7.66,7.66,10^9/L,4.5,11.0,NORMAL,,WEEK 8,6,2024-10-19,56
STUDY001,LB,STUDY001-SUBJ0002,54,L00054,PLT,Platelet Count,HEMATOLOGY,354.74,10^9/L,150.0,450.0,354.74,354.74,10^9/L,150.0,450.0,NORMAL,,WEEK 8,6,2024-10-19,56
STUDY001,LB,STUDY001-SUBJ0002,55,L00055,GLUC,Glucose,CHEMISTRY,84.16,mg/dL,70.0,100.0,84.16,84.16,mg/dL,70.0,100.0,NORMAL,,WEEK 8,6,2024-10-19,56
STUDY001,LB,STUDY001-SUBJ0002,56,L00056,BUN,Blood Urea Nitrogen,CHEMISTRY,14.79,mg/dL,7.0,20.0,14.79,14.79,mg/dL,7.0,20.0,NORMAL,,WEEK 8,6,2024-10-19,56
STUDY001,LB,STUDY001-SUBJ0002,57,L00057,CREAT,Creatinine,CHEMISTRY,0.7,mg/dL,0.6,1.2,0.7,0.7,mg/dL,0.6,1.2,NORMAL,,WEEK 8,6,2024-10-19,56
STUDY001,LB,STUDY001-SUBJ0002,58,L00058,BILI,Total Bilirubin,CHEMISTRY,0.68,mg/dL,0.1,1.2,0.68,0.68,mg/dL,0.1,1.2,NORMAL,,WEEK 8,6,2024-10-19,56
STUDY001,LB,STUDY001-SUBJ0002,59,L00059,ALP,Alkaline Phosphatase,CHEMISTRY,102.03,U/L,44.0,147.0,102.03,102.03,U/L,44.0,147.0,NORMAL,,WEEK 8,6,2024-10-19,56
STUDY001,LB,STUDY001-SUBJ0002,60,L00060,ALT,Alanine Aminotransferase,CHEMISTRY,30.41,U/L,7.0,56.0,30.41,30.41,U/L,7.0,56.0,NORMAL,,WEEK 8,6,2024-10-19,56
STUDY001,LB,STUDY001-SUBJ0002,61,L00061,HGB,Hemoglobin,HEMATOLOGY,15.27,g/dL,13.5,17.5,15.27,15.27,g/dL,13.5,17.5,NORMAL,,WEEK 12,7,2024-11-16,84
STUDY001,LB,STUDY001-SUBJ0002,62,L00062,HCT,Hematocrit,HEMATOLOGY,42.43,%,41.0,51.0,42.43,42.43,%,41.0,51.0,NORMAL,,WEEK 12,7,2024-11-16,84
STUDY001,LB,STUDY001-SUBJ0002,63,L00063,WBC,White Blood Cell Count,HEMATOLOGY,7.77,10^9/L,4.5,11.0,7.77,7.77,10^9/L,4.5,11.0,NORMAL,,WEEK 12,7,2024-11-16,84
STUDY001,LB,STUDY001-SUBJ0002,64,L00064,PLT,Platelet Count,HEMATOLOGY,360.61,10^9/L,150.0,450.0,360.61,360.61,10^9/L,150.0,450.0,NORMAL,,WEEK 12,7,2024-11-16,84
STUDY001,LB,STUDY001-SUBJ0002,65,L00065,GLUC,Glucose,CHEMISTRY,84.15,mg/dL,70.0,100.0,84.15,84.15,mg/dL,70.0,100.0,NORMAL,,WEEK 12,7,2024-11-16,84
STUDY001,LB,STUDY001-SUBJ0002,66,L00066,BUN,Blood Urea Nitrogen,CHEMISTRY,14.3,mg/dL,7.0,20.0,14.3,14.3,mg/dL,7.0,20.0,NORMAL,,WEEK 12,7,2024-11-16,84
STUDY001,LB,STUDY001-SUBJ0002,67,L00067,CREAT,Creatinine,CHEMISTRY,0.72,mg/dL,0.6,1.2,0.72,0.72,mg/dL,0.6,1.2,NORMAL,,WEEK 12,7,2024-11-16,84
STUDY001,LB,STUDY001-SUBJ0002,68,L00068,BILI,Total Bilirubin,CHEMISTRY,0.63,mg/dL,0.1,1.2,0.63,0.63,mg/dL,0.1,1.2,NORMAL,,WEEK 12,7,2024-11-16,84
STUDY001,LB,STUDY001-SUBJ0002,69,L00069,ALP,Alkaline Phosphatase,CHEMISTRY,105.81,U/L,44.0,147.0,105.81,105.81,U/L,44.0,147.0,NORMAL,,WEEK 12,7,2024-11-16,84
STUDY001,LB,STUDY001-SUBJ0002,70,L00070,ALT,Alanine Aminotransferase,CHEMISTRY,29.2,U/L,7.0,56.0,29.2,29.2,U/L,7.0,56.0,NORMAL,,WEEK 12,7,2024-11-16,84
STUDY001,LB,STUDY001-SUBJ0002,71,L00071,HGB,Hemoglobin,HEMATOLOGY,15.46,g/dL,13.5,17.5,15.46,15.46,g/dL,13.5,17.5,NORMAL,,WEEK 16,8,2024-12-14,112
STUDY001,LB,STUDY001-SUBJ0002,72,L00072,HCT,Hematocrit,HEMATOLOGY,42.06,%,41.0,51.0,42.06,42.06,%,41.0,51.0,NORMAL,,WEEK 16,8,2024-12-14,112
STUDY001,LB,STUDY001-SUBJ0002,73,L00073,WBC,White Blood Cell Count,HEMATOLOGY,7.79,10^9/L,4.5,11.0,7.79,7.79,10^9/L,4.5,11.0,NORMAL,,WEEK 16,8,2024-12-14,112
STUDY001,LB,STUDY001-SUBJ0002,74,L00074,PLT,Platelet Count,HEMATOLOGY,354.62,10^9/L,150.0,450.0,354.62,354.62,10^9/L,150.0,450.0,NORMAL,,WEEK 16,8,2024-12-14,112
STUDY001,LB,STUDY001-SUBJ0002,75,L00075,GLUC,Glucose,CHEMISTRY,84.11,mg/dL,70.0,100.0,84.11,84.11,mg/dL,70.0,100.0,NORMAL,,WEEK 16,8,2024-12-14,112
STUDY001,LB,STUDY001-SUBJ0002,76,L00076,BUN,Blood Urea Nitrogen,CHEMISTRY,14.76,mg/dL,7.0,20.0,14.76,14.76,mg/dL,7.0,20.0,NORMAL,,WEEK 16,8,2024-12-14,112
STUDY001,LB,STUDY001-SUBJ0002,77,L00077,CREAT,Creatinine,CHEMISTRY,0.71,mg/dL,0.6,1.2,0.71,0.71,mg/dL,0.6,1.2,NORMAL,,WEEK 16,8,2024-12-14,112
STUDY001,LB,STUDY001-SUBJ0002,78,L00078,BILI,Total Bilirubin,CHEMISTRY,0.67,mg/dL,0.1,1.2,0.67,0.67,mg/dL,0.1,1.2,NORMAL,,WEEK 16,8,2024-12-14,112
STUDY001,LB,STUDY001-SUBJ0002,79,L00079,ALP,Alkaline Phosphatase,CHEMISTRY,104.06,U/L,44.0,147.0,104.06,104.06,U/L,44.0,147.0,NORMAL,,WEEK 16,8,2024-12-14,112
STUDY001,LB,STUDY001-SUBJ0002,80,L00080,ALT,Alanine Aminotransferase,CHEMISTRY,32.01,U/L,7.0,56.0,32.01,32.01,U/L,7.0,56.0,NORMAL,,WEEK 16,8,2024-12-14,112
STUDY001,LB,STUDY001-SUBJ0002,81,L00081,HGB,Hemoglobin,HEMATOLOGY,15.6,g/dL,13.5,17.5,15.6,15.6,g/dL,13.5,17.5,NORMAL,,END OF TREATMENT,9,2025-01-11,140
STUDY001,LB,STUDY001-SUBJ0002,82,L00082,HCT,Hematocrit,HEMATOLOGY,42.24,%,41.0,51.0,42.24,42.24,%,41.0,51.0,NORMAL,,END OF TREATMENT,9,2025-01-11,140
STUDY001,LB,STUDY001-SUBJ0002,83,L00083,WBC,White Blood Cell Count,HEMATOLOGY,7.74,10^9/L,4.5,11.0,7.74,7.74,10^9/L,4.5,11.0,NORMAL,,END OF TREATMENT,9,2025-01-11,140
STUDY001,LB,STUDY001-SUBJ0002,84,L00084,PLT,Platelet Count,HEMATOLOGY,347.69,10^9/L,150.0,450.0,347.69,347.69,10^9/L,150.0,450.0,NORMAL,,END OF TREATMENT,9,2025-01-11,140
STUDY001,LB,STUDY001-SUBJ0002,85,L00085,GLUC,Glucose,CHEMISTRY,84.97,mg/dL,70.0,100.0,84.97,84.97,mg/dL,70.0,100.0,NORMAL,,END OF TREATMENT,9,2025-01-11,140
STUDY001,LB,STUDY001-SUBJ0002,86,L00086,BUN,Blood Urea Nitrogen,CHEMISTRY,13.97,mg/dL,7.0,20.0,13.97,13.97,mg/dL,7.0,20.0,NORMAL,,END OF TREATMENT,9,2025-01-11,140
STUDY001,LB,STUDY001-SUBJ0002,87,L00087,CREAT,Creatinine,CHEMISTRY,0.71,mg/dL,0.6,1.2,0.71,0.71,mg/dL,0.6,1.2,NORMAL,,END OF TREATMENT,9,2025-01-11,140
STUDY001,LB,STUDY001-SUBJ0002,88,L00088,BILI,Total Bilirubin,CHEMISTRY,0.63,mg/dL,0.1,1.2,0.63,0.63,mg/dL,0.1,1.2,NORMAL,,END OF TREATMENT,9,2025-01-11,140
STUDY001,LB,STUDY001-SUBJ0002,89,L00089,ALP,Alkaline Phosphatase,CHEMISTRY,107.44,U/L,44.0,147.0,107.44,107.44,U/L,44.0,147.0,NORMAL,,END OF TREATMENT,9,2025-01-11,140
STUDY001,LB,STUDY001-SUBJ0002,90,L00090,ALT,Alanine Aminotransferase,CHEMISTRY,30.6,U/L,7.0,56.0,30.6,30.6,U/L,7.0,56.0,NORMAL,,END OF TREATMENT,9,2025-01-11,140
STUDY001,LB,STUDY001-SUBJ0003,1,L00001,HGB,Hemoglobin,HEMATOLOGY,15.55,g/dL,13.5,17.5,15.55,15.55,g/dL,13.5,17.5,NORMAL,,SCREENING,1,2024-08-28,-14
STUDY001,LB,STUDY001-SUBJ0003,2,L00002,HCT,Hematocrit,HEMATOLOGY,47.23,%,41.0,51.0,47.23,47.23,%,41.0,51.0,NORMAL,,SCREENING,1,2024-08-28,-14
STUDY001,LB,STUDY001-SUBJ0003,3,L00003,WBC,White Blood Cell Count,HEMATOLOGY,9.14,10^9/L,4.5,11.0,9.14,9.14,10^9/L,4.5,11.0,NORMAL,,SCREENING,1,2024-08-28,-14
STUDY001,LB,STUDY001-SUBJ0003,4,L00004,PLT,Platelet Count,HEMATOLOGY,222.2,10^9/L,150.0,450.0,222.2,222.2,10^9/L,150.0,450.0,NORMAL,,SCREENING,1,2024-08-28,-14
STUDY001,LB,STUDY001-SUBJ0003,5,L00005,GLUC,Glucose,CHEMISTRY,93.54,mg/dL,70.0,100.0,93.54,93.54,mg/dL,70.0,100.0,NORMAL,,SCREENING,1,2024-08-28,-14
STUDY001,LB,STUDY001-SUBJ0003,6,L00006,BUN,Blood Urea Nitrogen,CHEMISTRY,10.45,mg/dL,7.0,20.0,10.45,10.45,mg/dL,7.0,20.0,NORMAL,,SCREENING,1,2024-08-28,-14
STUDY001,LB,STUDY001-SUBJ0003,7,L00007,CREAT,Creatinine,CHEMISTRY,0.72,mg/dL,0.6,1.2,0.72,0.72,mg/dL,0.6,1.2,NORMAL,,SCREENING,1,2024-08-28,-14
STUDY001,LB,STUDY001-SUBJ0003,8,L00008,BILI,Total Bilirubin,CHEMISTRY,1.12,mg/dL,0.1,1.2,1.12,1.12,mg/dL,0.1,1.2,NORMAL,,SCREENING,1,2024-08-28,-14
STUDY001,LB,STUDY001-SUBJ0003,9,L00009,ALP,Alkaline Phosphatase,CHEMISTRY,94.51,U/L,44.0,147.0,94.51,94.51,U/L,44.0,147.0,NORMAL,,SCREENING,1,2024-08-28,-14
STUDY001,LB,STUDY001-SUBJ0003,10,L00010,ALT,Alanine Aminotransferase,CHEMISTRY,22.5,U/L,7.0,56.0,22.5,22.5,U/L,7.0,56.0,NORMAL,,SCREENING,1,2024-08-28,-14
STUDY001,LB,STUDY001-SUBJ0003,11,L00011,HGB,Hemoglobin,HEMATOLOGY,15.46,g/dL,13.5,17.5,15.46,15.46,g/dL,13.5,17.5,NORMAL,Y,BASELINE,2,2024-09-11,1
STUDY001,LB,STUDY001-SUBJ0003,12,L00012,HCT,Hematocrit,HEMATOLOGY,47.46,%,41.0,51.0,47.46,47.46,%,41.0,51.0,NORMAL,Y,BASELINE,2,2024-09-11,1
STUDY001,LB,STUDY001-SUBJ0003,13,L00013,WBC,White Blood Cell Count,HEMATOLOGY,9.42,10^9/L,4.5,11.0,9.42,9.42,10^9/L,4.5,11.0,NORMAL,Y,BASELINE,2,2024-09-11,1
STUDY001,LB,STUDY001-SUBJ0003,14,L00014,PLT,Platelet Count,HEMATOLOGY,221.35,10^9/L,150.0,450.0,221.35,221.35,10^9/L,150.0,450.0,NORMAL,Y,BASELINE,2,2024-09-11,1
STUDY001,LB,STUDY001-SUBJ0003,15,L00015,GLUC,Glucose,CHEMISTRY,94.7,mg/dL,70.0,100.0,94.7,94.7,mg/dL,70.0,100.0,NORMAL,Y,BASELINE,2,2024-09-11,1
STUDY001,LB,STUDY001-SUBJ0003,16,L00016,BUN,Blood Urea Nitrogen,CHEMISTRY,9.98,mg/dL,7.0,20.0,9.98,9.98,mg/dL,7.0,20.0,NORMAL,Y,BASELINE,2,2024-09-11,1
STUDY001,LB,STUDY001-SUBJ0003,17,L00017,CREAT,Creatinine,CHEMISTRY,0.73,mg/dL,0.6,1.2,0.73,0.73,mg/dL,0.6,1.2,NORMAL,Y,BASELINE,2,2024-09-11,1
STUDY001,LB,STUDY001-SUBJ0003,18,L00018,BILI,Total Bilirubin,CHEMISTRY,1.11,mg/dL,0.1,1.2,1.11,1.11,mg/dL,0.1,1.2,NORMAL,Y,BASELINE,2,2024-09-11,1
STUDY001,LB,STUDY001-SUBJ0003,19,L00019,ALP,Alkaline Phosphatase,CHEMISTRY,96.09,U/L,44.0,147.0,96.09,96.09,U/L,44.0,147.0,NORMAL,Y,BASELINE,2,2024-09-11,1
STUDY001,LB,STUDY001-SUBJ0003,20,L00020,ALT,Alanine Aminotransferase,CHEMISTRY,21.51,U/L,7.0,56.0,21.51,21.51,U/L,7.0,56.0,NORMAL,Y,BASELINE,2,2024-09-11,1
STUDY001,LB,STUDY001-SUBJ0003,21,L00021,HGB,Hemoglobin,HEMATOLOGY,15.34,g/dL,13.5,17.5,15.34,15.34,g/dL,13.5,17.5,NORMAL,,WEEK 1,3,2024-09-17,7
STUDY001,LB,STUDY001-SUBJ0003,22,L00022,HCT,Hematocrit,HEMATOLOGY,47.67,%,41.0,51.0,47.67,47.67,%,41.0,51.0,NORMAL,,WEEK 1,3,2024-09-17,7
STUDY001,LB,STUDY001-SUBJ0003,23,L00023,WBC,White Blood Cell Count,HEMATOLOGY,9.34,10^9/L,4.5,11.0,9.34,9.34,10^9/L,4.5,11.0,NORMAL,,WEEK 1,3,2024-09-17,7
STUDY001,LB,STUDY001-SUBJ0003,24,L00024,PLT,Platelet Count,HEMATOLOGY,222.71,10^9/L,150.0,450.0,222.71,222.71,10^9/L,150.0,450.0,NORMAL,,WEEK 1,3,2024-09-17,7
STUDY001,LB,STUDY001-SUBJ0003,25,L00025,GLUC,Glucose,CHEMISTRY,93.81,mg/dL,70.0,100.0,93.81,93.81,mg/dL,70.0,100.0,NORMAL,,WEEK 1,3,2024-09-17,7
STUDY001,LB,STUDY001-SUBJ0003,26,L00026,BUN,Blood Urea Nitrogen,CHEMISTRY,10.28,mg/dL,7.0,20.0,10.28,10.28,mg/dL,7.0,20.0,NORMAL,,WEEK 1,3,2024-09-17,7
STUDY001,LB,STUDY001-SUBJ0003,27,L00027,CREAT,Creatinine,CHEMISTRY,0.71,mg/dL,0.6,1.2,0.71,0.71,mg/dL,0.6,1.2,NORMAL,,WEEK 1,3,2024-09-17,7
STUDY001,LB,STUDY001-SUBJ0003,28,L00028,BILI,Total Bilirubin,CHEMISTRY,1.1,mg/dL,0.1,1.2,1.1,1.1,mg/dL,0.1,1.2,NORMAL,,WEEK 1,3,2024-09-17,7
STUDY001,LB,STUDY001-SUBJ0003,29,L00029,ALP,Alkaline Phosphatase,CHEMISTRY,90.43,U/L,44.0,147.0,90.43,90.43,U/L,44.0,147.0,NORMAL,,WEEK 1,3,2024-09-17,7
STUDY001,LB,STUDY001-SUBJ0003,30,L00030,ALT,Alanine Aminotransferase,CHEMISTRY,23.51,U/L,7.0,56.0,23.51,23.51,U/L,7.0,56.0,NORMAL,,WEEK 1,3,2024-09-17,7
STUDY001,LB,STUDY001-SUBJ0003,31,L00031,HGB,Hemoglobin,HEMATOLOGY,15.3,g/dL,13.5,17.5,15.3,15.3,g/dL,13.5,17.5,NORMAL,,WEEK 2,4,2024-09-24,14
STUDY001,LB,STUDY001-SUBJ0003,32,L00032,HCT,Hematocrit,HEMATOLOGY,47.06,%,41.0,51.0,47.06,47.06,%,41.0,51.0,NORMAL,,WEEK 2,4,2024-09-24,14
STUDY001,LB,STUDY001-SUBJ0003,33,L00033,WBC,White Blood Cell Count,HEMATOLOGY,9.3,10^9/L,4.5,11.0,9.3,9.3,10^9/L,4.5,11.0,NORMAL,,WEEK 2,4,2024-09-24,14
STUDY001,LB,STUDY001-SUBJ0003,34,L00034,PLT,Platelet Count,HEMATOLOGY,224.49,10^9/L,150.0,450.0,224.49,224.49,10^9/L,150.0,450.0,NORMAL,,WEEK 2,4,2024-09-24,14
STUDY001,LB,STUDY001-SUBJ0003,35,L00035,GLUC,Glucose,CHEMISTRY,94.9,mg/dL,70.0,100.0,94.9,94.9,mg/dL,70.0,100.0,NORMAL,,WEEK 2,4,2024-09-24,14
STUDY001,LB,STUDY001-SUBJ0003,36,L00036,BUN,Blood Urea Nitrogen,CHEMISTRY,10.57,mg/dL,7.0,20.0,10.57,10.57,mg/dL,7.0,20.0,NORMAL,,WEEK 2,4,2024-09-24,14
STUDY001,LB,STUDY001-SUBJ0003,37,L00037,CREAT,Creatinine,CHEMISTRY,0.69,mg/dL,0.6,1.2,0.69,0.69,mg/dL,0.6,1.2,NORMAL,,WEEK 2,4,2024-09-24,14
STUDY001,LB,STUDY001-SUBJ0003,38,L00038,BILI,Total Bilirubin,CHEMISTRY,1.11,mg/dL,0.1,1.2,1.11,1.11,mg/dL,0.1,1.2,NORMAL,,WEEK 2,4,2024-09-24,14
STUDY001,LB,STUDY001-SUBJ0003,39,L00039,ALP,Alkaline Phosphatase,CHEMISTRY,99.08,U/L,44.0,147.0,99.08,99.08,U/L,44.0,147.0,NORMAL,,WEEK 2,4,2024-09-24,14
STUDY001,LB,STUDY001-SUBJ0003,40,L00040,ALT,Alanine Aminotransferase,CHEMISTRY,19.92,U/L,7.0,56.0,19.92,19.92,U/L,7.0,56.0,NORMAL,,WEEK 2,4,2024-09-24,14
STUDY001,LB,STUDY001-SUBJ0003,41,L00041,HGB,Hemoglobin,HEMATOLOGY,15.5,g/dL,13.5,17.5,15.5,15.5,g/dL,13.5,17.5,NORMAL,,WEEK 4,5,2024-10-08,28
STUDY001,LB,STUDY001-SUBJ0003,42,L00042,HCT,Hematocrit,HEMATOLOGY,46.7,%,41.0,51.0,46.7,46.7,%,41.0,51.0,NORMAL,,WEEK 4,5,2024-10-08,28
STUDY001,LB,STUDY001-SUBJ0003,43,L00043,WBC,White Blood Cell Count,HEMATOLOGY,9.38,10^9/L,4.5,11.0,9.38,9.38,10^9/L,4.5,11.0,NORMAL,,WEEK 4,5,2024-10-08,28
STUDY001,LB,STUDY001-SUBJ0003,44,L00044,PLT,Platelet Count,HEMATOLOGY,220.49,10^9/L,150.0,450.0,220.49,220.49,10^9/L,150.0,450.0,NORMAL,,WEEK 4,5,2024-10-08,28
STUDY001,LB,STUDY001-SUBJ0003,45,L00045,GLUC,Glucose,CHEMISTRY,94.71,mg/dL,70.0,100.0,94.71,94.71,mg/dL,70.0,100.0,NORMAL,,WEEK 4,5,2024-10-08,28
STUDY001,LB,STUDY001-SUBJ0003,46,L00046,BUN,Blood Urea Nitrogen,CHEMISTRY,10.42,mg/dL,7.0,20.0,10.42,10.42,mg/dL,7.0,20.0,NORMAL,,WEEK 4,5,2024-10-08,28
STUDY001,LB,STUDY001-SUBJ0003,47,L00047,CREAT,Creatinine,CHEMISTRY,0.71,mg/dL,0.6,1.2,0.71,0.71,mg/dL,0.6,1.2,NORMAL,,WEEK 4,5,2024-10-08,28
STUDY001,LB,STUDY001-SUBJ0003,48,L00048,BILI,Total Bilirubin,CHEMISTRY,1.12,mg/dL,0.1,1.2,1.12,1.12,mg/dL,0.1,1.2,NORMAL,,WEEK 4,5,2024-10-08,28
STUDY001,LB,STUDY001-SUBJ0003,49,L00049,ALP,Alkaline Phosphatase,CHEMISTRY,92.4,U/L,44.0,147.0,92.4,92.4,U/L,44.0,147.0,NORMAL,,WEEK 4,5,2024-10-08,28
STUDY001,LB,STUDY001-SUBJ0003,50,L00050,ALT,Alanine Aminotransferase,CHEMISTRY,20.49,U/L,7.0,56.0,20.49,20.49,U/L,7.0,56.0,NORMAL,,WEEK 4,5,2024-10-08,28
STUDY001,LB,STUDY001-SUBJ0003,51,L00051,HGB,Hemoglobin,HEMATOLOGY,15.49,g/dL,13.5,17.5,15.49,15.49,g/dL,13.5,17.5,NORMAL,,WEEK 8,6,2024-11-05,56
STUDY001,LB,STUDY001-SUBJ0003,52,L00052,HCT,Hematocrit,HEMATOLOGY,46.8,%,41.0,51.0,46.8,46.8,%,41.0,51.0,NORMAL,,WEEK 8,6,2024-11-05,56
STUDY001,LB,STUDY001-SUBJ0003,53,L00053,WBC,White Blood Cell Count,HEMATOLOGY,9.26,10^9/L,4.5,11.0,9.26,9.26,10^9/L,4.5,11.0,NORMAL,,WEEK 8,6,2024-11-05,56
STUDY001,LB,STUDY001-SUBJ0003,54,L00054,PLT,Platelet Count,HEMATOLOGY,219.35,10^9/L,150.0,450.0,219.35,219.35,10^9/L,150.0,450.0,NORMAL,,WEEK 8,6,2024-11-05,56
STUDY001,LB,STUDY001-SUBJ0003,55,L00055,GLUC,Glucose,CHEMISTRY,93.35,mg/dL,70.0,100.0,93.35,93.35,mg/dL,70.0,100.0,NORMAL,,WEEK 8,6,2024-11-05,56
STUDY001,LB,STUDY001-SUBJ0003,56,L00056,BUN,Blood Urea Nitrogen,CHEMISTRY,10.42,mg/dL,7.0,20.0,10.42,10.42,mg/dL,7.0,20.0,NORMAL,,WEEK 8,6,2024-11-05,56
STUDY001,LB,STUDY001-SUBJ0003,57,L00057,CREAT,Creatinine,CHEMISTRY,0.72,mg/dL,0.6,1.2,0.72,0.72,mg/dL,0.6,1.2,NORMAL,,WEEK 8,6,2024-11-05,56
STUDY001,LB,STUDY001-SUBJ0003,58,L00058,BILI,Total Bilirubin,CHEMISTRY,1.13,mg/dL,0.1,1.2,1.13,1.13,mg/dL,0.1,1.2,NORMAL,,WEEK 8,6,2024-11-05,56
STUDY001,LB,STUDY001-SUBJ0003,59,L00059,ALP,Alkaline Phosphatase,CHEMISTRY,92.74,U/L,44.0,147.0,92.74,92.74,U/L,44.0,147.0,NORMAL,,WEEK 8,6,2024-11-05,56
STUDY001,LB,STUDY001-SUBJ0003,60,L00060,ALT,Alanine Aminotransferase,CHEMISTRY,20.9,U/L,7.0,56.0,20.9,20.9,U/L,7.0,56.0,NORMAL,,WEEK 8,6,2024-11-05,56
STUDY001,LB,STUDY001-SUBJ0003,61,L00061,HGB,Hemoglobin,HEMATOLOGY,15.47,g/dL,13.5,17.5,15.47,15.47,g/dL,13.5,17.5,NORMAL,,WEEK 12,7,2024-12-03,84
STUDY001,LB,STUDY001-SUBJ0003,62,L00062,HCT,Hematocrit,HEMATOLOGY,47.35,%,41.0,51.0,47.35,47.35,%,41.0,51.0,NORMAL,,WEEK 12,7,2024-12-03,84
STUDY001,LB,STUDY001-SUBJ0003,63,L00063,WBC,White Blood Cell Count,HEMATOLOGY,9.54,10^9/L,4.5,11.0,9.54,9.54,10^9/L,4.5,11.0,NORMAL,,WEEK 12,7,2024-12-03,84
STUDY001,LB,STUDY001-SUBJ0003,64,L00064,PLT,Platelet Count,HEMATOLOGY,219.58,10^9/L,150.0,450.0,219.58,219.58,10^9/L,150.0,450.0,NORMAL,,WEEK 12,7,2024-12-03,84
STUDY001,LB,STUDY001-SUBJ0003,65,L00065,GLUC,Glucose,CHEMISTRY,95.45,mg/dL,70.0,100.0,95.45,95.45,mg/dL,70.0,100.0,NORMAL,,WEEK 12,7,2024-12-03,84
STUDY001,LB,STUDY001-SUBJ0003,66,L00066,BUN,Blood Urea Nitrogen,CHEMISTRY,10.16,mg/dL,7.0,20.0,10.16,10.16,mg/dL,7.0,20.0,NORMAL,,WEEK 12,7,2024-12-03,84
STUDY001,LB,STUDY001-SUBJ0003,67,L00067,CREAT,Creatinine,CHEMISTRY,0.73,mg/dL,0.6,1.2,0.73,0.73,mg/dL,0.6,1.2,NORMAL,,WEEK 12,7,2024-12-03,84
STUDY001,LB,STUDY001-SUBJ0003,68,L00068,BILI,Total Bilirubin,CHEMISTRY,1.1,mg/dL,0.1,1.2,1.1,1.1,mg/dL,0.1,1.2,NORMAL,,WEEK 12,7,2024-12-03,84
STUDY001,LB,STUDY001-SUBJ0003,69,L00069,ALP,Alkaline Phosphatase,CHEMISTRY,94.3,U/L,44.0,147.0,94.3,94.3,U/L,44.0,147.0,NORMAL,,WEEK 12,7,2024-12-03,84
STUDY001,LB,STUDY001-SUBJ0003,70,L00070,ALT,Alanine Aminotransferase,CHEMISTRY,21.53,U/L,7.0,56.0,21.53,21.53,U/L,7.0,56.0,NORMAL,,WEEK 12,7,2024-12-03,84
STUDY001,LB,STUDY001-SUBJ0003,71,L00071,HGB,Hemoglobin,HEMATOLOGY,15.52,g/dL,13.5,17.5,15.52,15.52,g/dL,13.5,17.5,NORMAL,,WEEK 16,8,2024-12-31,112
STUDY001,LB,STUDY001-SUBJ0003,72,L00072,HCT,Hematocrit,HEMATOLOGY,47.25,%,41.0,51.0,47.25,47.25,%,41.0,51.0,NORMAL,,WEEK 16,8,2024-12-31,112
STUDY001,LB,STUDY001-SUBJ0003,73,L00073,WBC,White Blood Cell Count,HEMATOLOGY,9.29,10^9/L,4.5,11.0,9.29,9.29,10^9/L,4.5,11.0,NORMAL,,WEEK 16,8,2024-12-31,112
STUDY001,LB,STUDY001-SUBJ0003,74,L00074,PLT,Platelet Count,HEMATOLOGY,224.66,10^9/L,150.0,450.0,224.66,224.66,10^9/L,150.0,450.0,NORMAL,,WEEK 16,8,2024-12-31,112
STUDY001,LB,STUDY001-SUBJ0003,75,L00075,GLUC,Glucose,CHEMISTRY,94.52,mg/dL,70.0,100.0,94.52,94.52,mg/dL,70.0,100.0,NORMAL,,WEEK 16,8,2024-12-31,112
STUDY001,LB,STUDY001-SUBJ0003,76,L00076,BUN,Blood Urea Nitrogen,CHEMISTRY,10.51,mg/dL,7.0,20.0,10.51,10.51,mg/dL,7.0,20.0,NORMAL,,WEEK 16,8,2024-12-31,112
STUDY001,LB,STUDY001-SUBJ0003,77,L00077,CREAT,Creatinine,CHEMISTRY,0.73,mg/dL,0.6,1.2,0.73,0.73,mg/dL,0.6,1.2,NORMAL,,WEEK 16,8,2024-12-31,112
STUDY001,LB,STUDY001-SUBJ0003,78,L00078,BILI,Total Bilirubin,CHEMISTRY,1.08,mg/dL,0.1,1.2,1.08,1.08,mg/dL,0.1,1.2,NORMAL,,WEEK 16,8,2024-12-31,112
STUDY001,LB,STUDY001-SUBJ0003,79,L00079,ALP,Alkaline Phosphatase,CHEMISTRY,93.79,U/L,44.0,147.0,93.79,93.79,U/L,44.0,147.0,NORMAL,,WEEK 16,8,2024-12-31,112
STUDY001,LB,STUDY001-SUBJ0003,80,L00080,ALT,Alanine Aminotransferase,CHEMISTRY,20.24,U/L,7.0,56.0,20.24,20.24,U/L,7.0,56.0,NORMAL,,WEEK 16,8,2024-12-31,112
STUDY001,LB,STUDY001-SUBJ0003,81,L00081,HGB,Hemoglobin,HEMATOLOGY,15.37,g/dL,13.5,17.5,15.37,15.37,g/dL,13.5,17.5,NORMAL,,END OF TREATMENT,9,2025-01-28,140
STUDY001,LB,STUDY001-SUBJ0003,82,L00082,HCT,Hematocrit,HEMATOLOGY,47.07,%,41.0,51.0,47.07,47.07,%,41.0,51.0,NORMAL,,END OF TREATMENT,9,2025-01-28,140
STUDY001,LB,STUDY001-SUBJ0003,83,L00083,WBC,White Blood Cell Count,HEMATOLOGY,9.05,10^9/L,4.5,11.0,9.05,9.05,10^9/L,4.5,11.0,NORMAL,,END OF TREATMENT,9,2025-01-28,140
STUDY001,LB,STUDY001-SUBJ0003,84,L00084,PLT,Platelet Count,HEMATOLOGY,219.2,10^9/L,150.0,450.0,219.2,219.2,10^9/L,150.0,450.0,NORMAL,,END OF TREATMENT,9,2025-01-28,140
STUDY001,LB,STUDY001-SUBJ0003,85,L00085,GLUC,Glucose,CHEMISTRY,94.62,mg/dL,70.0,100.0,94.62,94.62,mg/dL,70.0,100.0,NORMAL,,END OF TREATMENT,9,2025-01-28,140
STUDY001,LB,STUDY001-SUBJ0003,86,L00086,BUN,Blood Urea Nitrogen,CHEMISTRY,10.66,mg/dL,7.0,20.0,10.66,10.66,mg/dL,7.0,20.0,NORMAL,,END OF TREATMENT,9,2025-01-28,140
STUDY001,LB,STUDY001-SUBJ0003,87,L00087,CREAT,Creatinine,CHEMISTRY,0.69,mg/dL,0.6,1.2,0.69,0.69,mg/dL,0.6,1.2,NORMAL,,END OF TREATMENT,9,2025-01-28,140
STUDY001,LB,STUDY001-SUBJ0003,88,L00088,BILI,Total Bilirubin,CHEMISTRY,1.08,mg/dL,0.1,1.2,1.08,1.08,mg/dL,0.1,1.2,NORMAL,,END OF TREATMENT,9,2025-01-28,140
STUDY001,LB,STUDY001-SUBJ0003,89,L00089,ALP,Alkaline Phosphatase,CHEMISTRY,92.12,U/L,44.0,147.0,92.12,92.12,U/L,44.0,147.0,NORMAL,,END OF TREATMENT,9,2025-01-28,140
STUDY001,LB,STUDY001-SUBJ0003,90,L00090,ALT,Alanine Aminotransferase,CHEMISTRY,21.6,U/L,7.0,56.0,21.6,21.6,U/L,7.0,56.0,NORMAL,,END OF TREATMENT,9,2025-01-28,140
STUDY001,LB,STUDY001-SUBJ0004,1,L00001,HGB,Hemoglobin,HEMATOLOGY,16.67,g/dL,13.5,17.5,16.67,16.67,g/dL,13.5,17.5,NORMAL,,SCREENING,1,2024-10-09,-14
STUDY001,LB,STUDY001-SUBJ0004,2,L00002,HCT,Hematocrit,HEMATOLOGY,44.84,%,41.0,51.0,44.84,44.84,%,41.0,51.0,NORMAL,,SCREENING,1,2024-10-09,-14
STUDY001,LB,STUDY001-SUBJ0004,3,L00003,WBC,White Blood Cell Count,HEMATOLOGY,9.27,10^9/L,4.5,11.0,9.27,9.27,10^9/L,4.5,11.0,NORMAL,,SCREENING,1,2024-10-09,-14
STUDY001,LB,STUDY001-SUBJ0004,4,L00004,PLT,Platelet Count,HEMATOLOGY,291.9,10^9/L,150.0,450.0,291.9,291.9,10^9/L,150.0,450.0,NORMAL,,SCREENING,1,2024-10-09,-14
STUDY001,LB,STUDY001-SUBJ0004,5,L00005,GLUC,Glucose,CHEMISTRY,81.93,mg/dL,70.0,100.0,81.93,81.93,mg/dL,70.0,100.0,NORMAL,,SCREENING,1,2024-10-09,-14
STUDY001,LB,STUDY001-SUBJ0004,6,L00006,BUN,Blood Urea Nitrogen,CHEMISTRY,12.37,mg/dL,7.0,20.0,12.37,12.37,mg/dL,7.0,20.0,NORMAL,,SCREENING,1,2024-10-09,-14
STUDY001,LB,STUDY001-SUBJ0004,7,L00007,CREAT,Creatinine,CHEMISTRY,0.95,mg/dL,0.6,1.2,0.95,0.95,mg/dL,0.6,1.2,NORMAL,,SCREENING,1,2024-10-09,-14
STUDY001,LB,STUDY001-SUBJ0004,8,L00008,BILI,Total Bilirubin,CHEMISTRY,0.64,mg/dL,0.1,1.2,0.64,0.64,mg/dL,0.1,1.2,NORMAL,,SCREENING,1,2024-10-09,-14
STUDY001,LB,STUDY001-SUBJ0004,9,L00009,ALP,Alkaline Phosphatase,CHEMISTRY,71.25,U/L,44.0,147.0,71.25,71.25,U/L,44.0,147.0,NORMAL,,SCREENING,1,2024-10-09,-14
STUDY001,LB,STUDY001-SUBJ0004,10,L00010,ALT,Alanine Aminotransferase,CHEMISTRY,18.09,U/L,7.0,56.0,18.09,18.09,U/L,7.0,56.0,NORMAL,,SCREENING,1,2024-10-09,-14
STUDY001,LB,STUDY001-SUBJ0004,11,L00011,HGB,Hemoglobin,HEMATOLOGY,16.71,g/dL,13.5,17.5,16.71,16.71,g/dL,13.5,17.5,NORMAL,Y,BASELINE,2,2024-10-23,1
STUDY001,LB,STUDY001-SUBJ0004,12,L00012,HCT,Hematocrit,HEMATOLOGY,44.55,%,41.0,51.0,44.55,44.55,%,41.0,51.0,NORMAL,Y,BASELINE,2,2024-10-23,1
STUDY001,LB,STUDY001-SUBJ0004,13,L00013,WBC,White Blood Cell Count,HEMATOLOGY,9.23,10^9/L,4.5,11.0,9.23,9.23,10^9/L,4.5,11.0,NORMAL,Y,BASELINE,2,2024-10-23,1
STUDY001,LB,STUDY001-SUBJ0004,14,L00014,PLT,Platelet Count,HEMATOLOGY,289.73,10^9/L,150.0,450.0,289.73,289.73,10^9/L,150.0,450.0,NORMAL,Y,BASELINE,2,2024-10-23,1
STUDY001,LB,STUDY001-SUBJ0004,15,L00015,GLUC,Glucose,CHEMISTRY,80.82,mg/dL,70.0,100.0,80.82,80.82,mg/dL,70.0,100.0,NORMAL,Y,BASELINE,2,2024-10-23,1
STUDY001,LB,STUDY001-SUBJ0004,16,L00016,BUN,Blood Urea Nitrogen,CHEMISTRY,12.02,mg/dL,7.0,20.0,12.02,12.02,mg/dL,7.0,20.0,NORMAL,Y,BASELINE,2,2024-10-23,1
STUDY001,LB,STUDY001-SUBJ0004,17,L00017,CREAT,Creatinine,CHEMISTRY,0.94,mg/dL,0.6,1.2,0.94,0.94,mg/dL,0.6,1.2,NORMAL,Y,BASELINE,2,2024-10-23,1
STUDY001,LB,STUDY001-SUBJ0004,18,L00018,BILI,Total Bilirubin,CHEMISTRY,0.62,mg/dL,0.1,1.2,0.62,0.62,mg/dL,0.1,1.2,NORMAL,Y,BASELINE,2,2024-10-23,1
STUDY001,LB,STUDY001-SUBJ0004,19,L00019,ALP,Alkaline Phosphatase,CHEMISTRY,74.28,U/L,44.0,147.0,74.28,74.28,U/L,44.0,147.0,NORMAL,Y,BASELINE,2,2024-10-23,1
STUDY001,LB,STUDY001-SUBJ0004,20,L00020,ALT,Alanine Aminotransferase,CHEMISTRY,19.02,U/L,7.0,56.0,19.02,19.02,U/L,7.0,56.0,NORMAL,Y,BASELINE,2,2024-10-23,1
STUDY001,LB,STUDY001-SUBJ0004,21,L00021,HGB,Hemoglobin,HEMATOLOGY,16.76,g/dL,13.5,17.5,16.76,16.76,g/dL,13.5,17.5,NORMAL,,WEEK 1,3,2024-10-29,7
STUDY001,LB,STUDY001-SUBJ0004,22,L00022,HCT,Hematocrit,HEMATOLOGY,44.76,%,41.0,51.0,44.76,44.76,%,41.0,51.0,NORMAL,,WEEK 1,3,2024-10-29,7
STUDY001,LB,STUDY001-SUBJ0004,23,L00023,WBC,White Blood Cell Count,HEMATOLOGY,9.38,10^9/L,4.5,11.0,9.38,9.38,10^9/L,4.5,11.0,NORMAL,,WEEK 1,3,2024-10-29,7
STUDY001,LB,STUDY001-SUBJ0004,24,L00024,PLT,Platelet Count,HEMATOLOGY,284.06,10^9/L,150.0,450.0,284.06,284.06,10^9/L,150.0,450.0,NORMAL,,WEEK 1,3,2024-10-29,7
STUDY001,LB,STUDY001-SUBJ0004,25,L00025,GLUC,Glucose,CHEMISTRY,80.55,mg/dL,70.0,100.0,80.55,80.55,mg/dL,70.0,100.0,NORMAL,,WEEK 1,3,2024-10-29,7
STUDY001,LB,STUDY001-SUBJ0004,26,L00026,BUN,Blood Urea Nitrogen,CHEMISTRY,11.72,mg/dL,7.0,20.0,11.72,11.72,mg/dL,7.0,20.0,NORMAL,,WEEK 1,3,2024-10-29,7
STUDY001,LB,STUDY001-SUBJ0004,27,L00027,CREAT,Creatinine,CHEMISTRY,0.94,mg/dL,0.6,1.2,0.94,0.94,mg/dL,0.6,1.2,NORMAL,,WEEK 1,3,2024-10-29,7
STUDY001,LB,STUDY001-SUBJ0004,28,L00028,BILI,Total Bilirubin,CHEMISTRY,0.6,mg/dL,0.1,1.2,0.6,0.6,mg/dL,0.1,1.2,NORMAL,,WEEK 1,3,2024-10-29,7
STUDY001,LB,STUDY001-SUBJ0004,29,L00029,ALP,Alkaline Phosphatase,CHEMISTRY,73.46,U/L,44.0,147.0,73.46,73.46,U/L,44.0,147.0,NORMAL,,WEEK 1,3,2024-10-29,7
STUDY001,LB,STUDY001-SUBJ0004,30,L00030,ALT,Alanine Aminotransferase,CHEMISTRY,17.02,U/L,7.0,56.0,17.02,17.02,U/L,7.0,56.0,NORMAL,,WEEK 1,3,2024-10-29,7
STUDY001,LB,STUDY001-SUBJ0004,31,L00031,HGB,Hemoglobin,HEMATOLOGY,16.71,g/dL,13.5,17.5,16.71,16.71,g/dL,13.5,17.5,NORMAL,,WEEK 2,4,2024-11-05,14
STUDY001,LB,STUDY001-SUBJ0004,32,L00032,HCT,Hematocrit,HEMATOLOGY,44.59,%,41.0,51.0,44.59,44.59,%,41.0,51.0,NORMAL,,WEEK 2,4,2024-11-05,14
STUDY001,LB,STUDY001-SUBJ0004,33,L00033,WBC,White Blood Cell Count,HEMATOLOGY,8.9,10^9/L,4.5,11.0,8.9,8.9,10^9/L,4.5,11.0,NORMAL,,WEEK 2,4,2024-11-05,14
STUDY001,LB,STUDY001-SUBJ0004,34,L00034,PLT,Platelet Count,HEMATOLOGY,287.48,10^9/L,150.0,450.0,287.48,287.48,10^9/L,150.0,450.0,NORMAL,,WEEK 2,4,2024-11-05,14
STUDY001,LB,STUDY001-SUBJ0004,35,L00035,GLUC,Glucose,CHEMISTRY,81.65,mg/dL,70.0,100.0,81.65,81.65,mg/dL,70.0,100.0,NORMAL,,WEEK 2,4,2024-11-05,14
STUDY001,LB,STUDY001-SUBJ0004,36,L00036,BUN,Blood Urea Nitrogen,CHEMISTRY,11.84,mg/dL,7.0,20.0,11.84,11.84,mg/dL,7.0,20.0,NORMAL,,WEEK 2,4,2024-11-05,14
STUDY001,LB,STUDY001-SUBJ0004,37,L00037,CREAT,Creatinine,CHEMISTRY,0.96,mg/dL,0.6,1.2,0.96,0.96,mg/dL,0.6,1.2,NORMAL,,WEEK 2,4,2024-11-05,14
STUDY001,LB,STUDY001-SUBJ0004,38,L00038,BILI,Total Bilirubin,CHEMISTRY,0.66,mg/dL,0.1,1.2,0.66,0.66,mg/dL,0.1,1.2,NORMAL,,WEEK 2,4,2024-11-05,14
STUDY001,LB,STUDY001-SUBJ0004,39,L00039,ALP,Alkaline Phosphatase,CHEMISTRY,74.13,U/L,44.0,147.0,74.13,74.13,U/L,44.0,147.0,NORMAL,,WEEK 2,4,2024-11-05,14
STUDY001,LB,STUDY001-SUBJ0004,40,L00040,ALT,Alanine Aminotransferase,CHEMISTRY,16.56,U/L,7.0,56.0,16.56,16.56,U/L,7.0,56.0,NORMAL,,WEEK 2,4,2024-11-05,14
STUDY001,LB,STUDY001-SUBJ0004,41,L00041,HGB,Hemoglobin,HEMATOLOGY,16.75,g/dL,13.5,17.5,16.75,16.75,g/dL,13.5,17.5,NORMAL,,WEEK 4,5,2024-11-19,28
STUDY001,LB,STUDY001-SUBJ0004,42,L00042,HCT,Hematocrit,HEMATOLOGY,44.61,%,41.0,51.0,44.61,44.61,%,41.0,51.0,NORMAL,,WEEK 4,5,2024-11-19,28
STUDY001,LB,STUDY001-SUBJ0004,43,L00043,WBC,White Blood Cell Count,HEMATOLOGY,9.31,10^9/L,4.5,11.0,9.31,9.31,10^9/L,4.5,11.0,NORMAL,,WEEK 4,5,2024-11-19,28
STUDY001,LB,STUDY001-SUBJ0004,44,L00044,PLT,Platelet Count,HEMATOLOGY,286.26,10^9/L,150.0,450.0,286.26,286.26,10^9/L,150.0,450.0,NORMAL,,WEEK 4,5,2024-11-19,28
STUDY001,LB,STUDY001-SUBJ0004,45,L00045,GLUC,Glucose,CHEMISTRY,80.57,mg/dL,70.0,100.0,80.57,80.57,mg/dL,70.0,100.0,NORMAL,,WEEK 4,5,2024-11-19,28
STUDY001,LB,STUDY001-SUBJ0004,46,L00046,BUN,Blood Urea Nitrogen,CHEMISTRY,11.69,mg/dL,7.0,20.0,11.69,11.69,mg/dL,7.0,20.0,NORMAL,,WEEK 4,5,2024-11-19,28
STUDY001,LB,STUDY001-SUBJ0004,47,L00047,CREAT,Creatinine,CHEMISTRY,0.93,mg/dL,0.6,1.2,0.93,0.93,mg/dL,0.6,1.2,NORMAL,,WEEK 4,5,2024-11-19,28
STUDY001,LB,STUDY001-SUBJ0004,48,L00048,BILI,Total Bilirubin,CHEMISTRY,0.63,mg/dL,0.1,1.2,0.63,0.63,mg/dL,0.1,1.2,NORMAL,,WEEK 4,5,2024-11-19,28
STUDY001,LB,STUDY001-SUBJ0004,49,L00049,ALP,Alkaline Phosphatase,CHEMISTRY,72.73,U/L,44.0,147.0,72.73,72.73,U/L,44.0,147.0,NORMAL,,WEEK 4,5,2024-11-19,28
STUDY001,LB,STUDY001-SUBJ0004,50,L00050,ALT,Alanine Aminotransferase,CHEMISTRY,18.43,U/L,7.0,56.0,18.43,18.43,U/L,7.0,56.0,NORMAL,,WEEK 4,5,2024-11-19,28
STUDY001,LB,STUDY001-SUBJ0004,51,L00051,HGB,Hemoglobin,HEMATOLOGY,16.7,g/dL,13.5,17.5,16.7,16.7,g/dL,13.5,17.5,NORMAL,,WEEK 8,6,2024-12-17,56
STUDY001,LB,STUDY001-SUBJ0004,52,L00052,HCT,Hematocrit,HEMATOLOGY,44.29,%,41.0,51.0,44.29,44.29,%,41.0,51.0,NORMAL,,WEEK 8,6,2024-12-17,56
STUDY001,LB,STUDY001-SUBJ0004,53,L00053,WBC,White Blood Cell Count,HEMATOLOGY,8.93,10^9/L,4.5,11.0,8.93,8.93,10^9/L,4.5,11.0,NORMAL,,WEEK 8,6,2024-12-17,56
STUDY001,LB,STUDY001-SUBJ0004,54,L00054,PLT,Platelet Count,HEMATOLOGY,294.64,10^9/L,150.0,450.0,294.64,294.64,10^9/L,150.0,450.0,NORMAL,,WEEK 8,6,2024-12-17,56
STUDY001,LB,STUDY001-SUBJ0004,55,L00055,GLUC,Glucose,CHEMISTRY,79.02,mg/dL,70.0,100.0,79.02,79.02,mg/dL,70.0,100.0,NORMAL,,WEEK 8,6,2024-12-17,56
STUDY001,LB,STUDY001-SUBJ0004,56,L00056,BUN,Blood Urea Nitrogen,CHEMISTRY,12.09,mg/dL,7.0,20.0,12.09,12.09,mg/dL,7.0,20.0,NORMAL,,WEEK 8,6,2024-12-17,56
STUDY001,LB,STUDY001-SUBJ0004,57,L00057,CREAT,Creatinine,CHEMISTRY,0.94,mg/dL,0.6,1.2,0.94,0.94,mg/dL,0.6,1.2,NORMAL,,WEEK 8,6,2024-12-17,56
STUDY001,LB,STUDY001-SUBJ0004,58,L00058,BILI,Total Bilirubin,CHEMISTRY,0.61,mg/dL,0.1,1.2,0.61,0.61,mg/dL,0.1,1.2,NORMAL,,WEEK 8,6,2024-12-17,56
STUDY001,LB,STUDY001-SUBJ0004,59,L00059,ALP,Alkaline Phosphatase,CHEMISTRY,72.61,U/L,44.0,147.0,72.61,72.61,U/L,44.0,147.0,NORMAL,,WEEK 8,6,2024-12-17,56
STUDY001,LB,STUDY001-SUBJ0004,60,L00060,ALT,Alanine Aminotransferase,CHEMISTRY,17.91,U/L,7.0,56.0,17.91,17.91,U/L,7.0,56.0,NORMAL,,WEEK 8,6,2024-12-17,56
STUDY001,LB,STUDY001-SUBJ0004,61,L00061,HGB,Hemoglobin,HEMATOLOGY,16.65,g/dL,13.5,17.5,16.65,16.65,g/dL,13.5,17.5,NORMAL,,WEEK 12,7,2025-01-14,84
STUDY001,LB,STUDY001-SUBJ0004,62,L00062,HCT,Hematocrit,HEMATOLOGY,44.58,%,41.0,51.0,44.58,44.58,%,41.0,51.0,NORMAL,,WEEK 12,7,2025-01-14,84
STUDY001,LB,STUDY001-SUBJ0004,63,L00063,WBC,White Blood Cell Count,HEMATOLOGY,9.19,10^9/L,4.5,11.0,9.19,9.19,10^9/L,4.5,11.0,NORMAL,,WEEK 12,7,2025-01-14,84
STUDY001,LB,STUDY001-SUBJ0004,64,L00064,PLT,Platelet Count,HEMATOLOGY,284.27,10^9/L,150.0,450.0,284.27,284.27,10^9/L,150.0,450.0,NORMAL,,WEEK 12,7,2025-01-14,84
STUDY001,LB,STUDY001-SUBJ0004,65,L00065,GLUC,Glucose,CHEMISTRY,80.57,mg/dL,70.0,100.0,80.57,80.57,mg/dL,70.0,100.0,NORMAL,,WEEK 12,7,2025-01-14,84
STUDY001,LB,STUDY001-SUBJ0004,66,L00066,BUN,Blood Urea Nitrogen,CHEMISTRY,12.08,mg/dL,7.0,20.0,12.08,12.08,mg/dL,7.0,20.0,NORMAL,,WEEK 12,7,2025-01-14,84
STUDY001,LB,STUDY001-SUBJ0004,67,L00067,CREAT,Creatinine,CHEMISTRY,0.94,mg/dL,0.6,1.2,0.94,0.94,mg/dL,0.6,1.2,NORMAL,,WEEK 12,7,2025-01-14,84
STUDY001,LB,STUDY001-SUBJ0004,68,L00068,BILI,Total Bilirubin,CHEMISTRY,0.68,mg/dL,0.1,1.2,0.68,0.68,mg/dL,0.1,1.2,NORMAL,,WEEK 12,7,2025-01-14,84
STUDY001,LB,STUDY001-SUBJ0004,69,L00069,ALP,Alkaline Phosphatase,CHEMISTRY,72.32,U/L,44.0,147.0,72.32,72.32,U/L,44.0,147.0,NORMAL,,WEEK 12,7,2025-01-14,84
STUDY001,LB,STUDY001-SUBJ0004,70,L00070,ALT,Alanine Aminotransferase,CHEMISTRY,19.15,U/L,7.0,56.0,19.15,19.15,U/L,7.0,56.0,NORMAL,,WEEK 12,7,2025-01-14,84
STUDY001,LB,STUDY001-SUBJ0004,71,L00071,HGB,Hemoglobin,HEMATOLOGY,16.71,g/dL,13.5,17.5,16.71,16.71,g/dL,13.5,17.5,NORMAL,,WEEK 16,8,2025-02-11,112
STUDY001,LB,STUDY001-SUBJ0004,72,L00072,HCT,Hematocrit,HEMATOLOGY,44.9,%,41.0,51.0,44.9,44.9,%,41.0,51.0,NORMAL,,WEEK 16,8,2025-02-11,112
STUDY001,LB,STUDY001-SUBJ0004,73,L00073,WBC,White Blood Cell Count,HEMATOLOGY,9.28,10^9/L,4.5,11.0,9.28,9.28,10^9/L,4.5,11.0,NORMAL,,WEEK 16,8,2025-02-11,112
STUDY001,LB,STUDY001-SUBJ0004,74,L00074,PLT,Platelet Count,HEMATOLOGY,291.21,10^9/L,150.0,450.0,291.21,291.21,10^9/L,150.0,450.0,NORMAL,,WEEK 16,8,2025-02-11,112
STUDY001,LB,STUDY001-SUBJ0004,75,L00075,GLUC,Glucose,CHEMISTRY,82.08,mg/dL,70.0,100.0,82.08,82.08,mg/dL,70.0,100.0,NORMAL,,WEEK 16,8,2025-02-11,112
STUDY001,LB,STUDY001-SUBJ0004,76,L00076,BUN,Blood Urea Nitrogen,CHEMISTRY,11.86,mg/dL,7.0,20.0,11.86,11.86,mg/dL,7.0,20.0,NORMAL,,WEEK 16,8,2025-02-11,112
STUDY001,LB,STUDY001-SUBJ0004,77,L00077,CREAT,Creatinine,CHEMISTRY,0.91,mg/dL,0.6,1.2,0.91,0.91,mg/dL,0.6,1.2,NORMAL,,WEEK 16,8,2025-02-11,112
STUDY001,LB,STUDY001-SUBJ0004,78,L00078,BILI,Total Bilirubin,CHEMISTRY,0.6,mg/dL,0.1,1.2,0.6,0.6,mg/dL,0.1,1.2,NORMAL,,WEEK 16,8,2025-02-11,112
STUDY001,LB,STUDY001-SUBJ0004,79,L00079,ALP,Alkaline Phosphatase,CHEMISTRY,72.05,U/L,44.0,147.0,72.05,72.05,U/L,44.0,147.0,NORMAL,,WEEK 16,8,2025-02-11,112
STUDY001,LB,STUDY001-SUBJ0004,80,L00080,ALT,Alanine Aminotransferase,CHEMISTRY,17.64,U/L,7.0,56.0,17.64,17.64,U/L,7.0,56.0,NORMAL,,WEEK 16,8,2025-02-11,112
STUDY001,LB,STUDY001-SUBJ0004,81,L00081,HGB,Hemoglobin,HEMATOLOGY,16.6,g/dL,13.5,17.5,16.6,16.6,g/dL,13.5,17.5,NORMAL,,END OF TREATMENT,9,2025-03-11,140
STUDY001,LB,STUDY001-SUBJ0004,82,L00082,HCT,Hematocrit,HEMATOLOGY,44.74,%,41.0,51.0,44.74,44.74,%,41.0,51.0,NORMAL,,END OF TREATMENT,9,2025-03-11,140
STUDY001,LB,STUDY001-SUBJ0004,83,L00083,WBC,White Blood Cell Count,HEMATOLOGY,9.13,10^9/L,4.5,11.0,9.13,9.13,10^9/L,4.5,11.0,NORMAL,,END OF TREATMENT,9,2025-03-11,140
STUDY001,LB,STUDY001-SUBJ0004,84,L00084,PLT,Platelet Count,HEMATOLOGY,283.38,10^9/L,150.0,450.0,283.38,283.38,10^9/L,150.0,450.0,NORMAL,,END OF TREATMENT,9,2025-03-11,140
STUDY001,LB,STUDY001-SUBJ0004,85,L00085,GLUC,Glucose,CHEMISTRY,79.68,mg/dL,70.0,100.0,79.68,79.68,mg/dL,70.0,100.0,NORMAL,,END OF TREATMENT,9,2025-03-11,140
STUDY001,LB,STUDY001-SUBJ0004,86,L00086,BUN,Blood Urea Nitrogen,CHEMISTRY,12.18,mg/dL,7.0,20.0,12.18,12.18,mg/dL,7.0,20.0,NORMAL,,END OF TREATMENT,9,2025-03-11,140
STUDY001,LB,STUDY001-SUBJ0004,87,L00087,CREAT,Creatinine,CHEMISTRY,0.95,mg/dL,0.6,1.2,0.95,0.95,mg/dL,0.6,1.2,NORMAL,,END OF TREATMENT,9,2025-03-11,140
STUDY001,LB,STUDY001-SUBJ0004,88,L00088,BILI,Total Bilirubin,CHEMISTRY,0.68,mg/dL,0.1,1.2,0.68,0.68,mg/dL,0.1,1.2,NORMAL,,END OF TREATMENT,9,2025-03-11,140
STUDY001,LB,STUDY001-SUBJ0004,89,L00089,ALP,Alkaline Phosphatase,CHEMISTRY,73.16,U/L,44.0,147.0,73.16,73.16,U/L,44.0,147.0,NORMAL,,END OF TREATMENT,9,2025-03-11,140
STUDY001,LB,STUDY001-SUBJ0004,90,L00090,ALT,Alanine Aminotransferase,CHEMISTRY,19.35,U/L,7.0,56.0,19.35,19.35,U/L,7.0,56.0,NORMAL,,END OF TREATMENT,9,2025-03-11,140
STUDY001,LB,STUDY001-SUBJ0005,1,L00001,HGB,Hemoglobin,HEMATOLOGY,13.33,g/dL,13.5,17.5,13.33,13.33,g/dL,13.5,17.5,LOW,,SCREENING,1,2024-09-16,-14
STUDY001,LB,STUDY001-SUBJ0005,2,L00002,HCT,Hematocrit,HEMATOLOGY,47.05,%,41.0,51.0,47.05,47.05,%,41.0,51.0,NORMAL,,SCREENING,1,2024-09-16,-14
STUDY001,LB,STUDY001-SUBJ0005,3,L00003,WBC,White Blood Cell Count,HEMATOLOGY,6.35,10^9/L,4.5,11.0,6.35,6.35,10^9/L,4.5,11.0,NORMAL,,SCREENING,1,2024-09-16,-14
STUDY001,LB,STUDY001-SUBJ0005,4,L00004,PLT,Platelet Count,HEMATOLOGY,253.74,10^9/L,150.0,450.0,253.74,253.74,10^9/L,150.0,450.0,NORMAL,,SCREENING,1,2024-09-16,-14
STUDY001,LB,STUDY001-SUBJ0005,5,L00005,GLUC,Glucose,CHEMISTRY,96.02,mg/dL,70.0,100.0,96.02,96.02,mg/dL,70.0,100.0,NORMAL,,SCREENING,1,2024-09-16,-14
STUDY001,LB,STUDY001-SUBJ0005,6,L00006,BUN,Blood Urea Nitrogen,CHEMISTRY,19.0,mg/dL,7.0,20.0,19.0,19.0,mg/dL,7.0,20.0,NORMAL,,SCREENING,1,2024-09-16,-14
STUDY001,LB,STUDY001-SUBJ0005,7,L00007,CREAT,Creatinine,CHEMISTRY,1.04,mg/dL,0.6,1.2,1.04,1.04,mg/dL,0.6,1.2,NORMAL,,SCREENING,1,2024-09-16,-14
STUDY001,LB,STUDY001-SUBJ0005,8,L00008,BILI,Total Bilirubin,CHEMISTRY,0.82,mg/dL,0.1,1.2,0.82,0.82,mg/dL,0.1,1.2,NORMAL,,SCREENING,1,2024-09-16,-14
STUDY001,LB,STUDY001-SUBJ0005,9,L00009,ALP,Alkaline Phosphatase,CHEMISTRY,133.96,U/L,44.0,147.0,133.96,133.96,U/L,44.0,147.0,NORMAL,,SCREENING,1,2024-09-16,-14
STUDY001,LB,STUDY001-SUBJ0005,10,L00010,ALT,Alanine Aminotransferase,CHEMISTRY,18.52,U/L,7.0,56.0,18.52,18.52,U/L,7.0,56.0,NORMAL,,SCREENING,1,2024-09-16,-14
STUDY001,LB,STUDY001-SUBJ0005,11,L00011,HGB,Hemoglobin,HEMATOLOGY,13.48,g/dL,13.5,17.5,13.48,13.48,g/dL,13.5,17.5,LOW,Y,BASELINE,2,2024-09-30,1
STUDY001,LB,STUDY001-SUBJ0005,12,L00012,HCT,Hematocrit,HEMATOLOGY,46.88,%,41.0,51.0,46.88,46.88,%,41.0,51.0,NORMAL,Y,BASELINE,2,2024-09-30,1
STUDY001,LB,STUDY001-SUBJ0005,13,L00013,WBC,White Blood Cell Count,HEMATOLOGY,6.42,10^9/L,4.5,11.0,6.42,6.42,10^9/L,4.5,11.0,NORMAL,Y,BASELINE,2,2024-09-30,1
STUDY001,LB,STUDY001-SUBJ0005,14,L00014,PLT,Platelet Count,HEMATOLOGY,251.73,10^9/L,150.0,450.0,251.73,251.73,10^9/L,150.0,450.0,NORMAL,Y,BASELINE,2,2024-09-30,1
STUDY001,LB,STUDY001-SUBJ0005,15,L00015,GLUC,Glucose,CHEMISTRY,96.3,mg/dL,70.0,100.0,96.3,96.3,mg/dL,70.0,100.0,NORMAL,Y,BASELINE,2,2024-09-30,1
STUDY001,LB,STUDY001-SUBJ0005,16,L00016,BUN,Blood Urea Nitrogen,CHEMISTRY,19.06,mg/dL,7.0,20.0,19.06,19.06,mg/dL,7.0,20.0,NORMAL,Y,BASELINE,2,2024-09-30,1
STUDY001,LB,STUDY001-SUBJ0005,17,L00017,CREAT,Creatinine,CHEMISTRY,1.1,mg/dL,0.6,1.2,1.1,1.1,mg/dL,0.6,1.2,NORMAL,Y,BASELINE,2,2024-09-30,1
STUDY001,LB,STUDY001-SUBJ0005,18,L00018,BILI,Total Bilirubin,CHEMISTRY,0.85,mg/dL,0.1,1.2,0.85,0.85,mg/dL,0.1,1.2,NORMAL,Y,BASELINE,2,2024-09-30,1
STUDY001,LB,STUDY001-SUBJ0005,19,L00019,ALP,Alkaline Phosphatase,CHEMISTRY,130.07,U/L,44.0,147.0,130.07,130.07,U/L,44.0,147.0,NORMAL,Y,BASELINE,2,2024-09-30,1
STUDY001,LB,STUDY001-SUBJ0005,20,L00020,ALT,Alanine Aminotransferase,CHEMISTRY,18.12,U/L,7.0,56.0,18.12,18.12,U/L,7.0,56.0,NORMAL,Y,BASELINE,2,2024-09-30,1
STUDY001,LB,STUDY001-SUBJ0005,21,L00021,HGB,Hemoglobin,HEMATOLOGY,13.58,g/dL,13.5,17.5,13.58,13.58,g/dL,13.5,17.5,NORMAL,,WEEK 1,3,2024-10-06,7
STUDY001,LB,STUDY001-SUBJ0005,22,L00022,HCT,Hematocrit,HEMATOLOGY,46.68,%,41.0,51.0,46.68,46.68,%,41.0,51.0,NORMAL,,WEEK 1,3,2024-10-06,7
STUDY001,LB,STUDY001-SUBJ0005,23,L00023,WBC,White Blood Cell Count,HEMATOLOGY,6.36,10^9/L,4.5,11.0,6.36,6.36,10^9/L,4.5,11.0,NORMAL,,WEEK 1,3,2024-10-06,7
STUDY001,LB,STUDY001-SUBJ0005,24,L00024,PLT,Platelet Count,HEMATOLOGY,257.24,10^9/L,150.0,450.0,257.24,257.24,10^9/L,150.0,450.0,NORMAL,,WEEK 1,3,2024-10-06,7
STUDY001,LB,STUDY001-SUBJ0005,25,L00025,GLUC,Glucose,CHEMISTRY,96.66,mg/dL,70.0,100.0,96.66,96.66,mg/dL,70.0,100.0,NORMAL,,WEEK 1,3,2024-10-06,7
STUDY001,LB,STUDY001-SUBJ0005,26,L00026,BUN,Blood Urea Nitrogen,CHEMISTRY,18.51,mg/dL,7.0,20.0,18.51,18.51,mg/dL,7.0,20.0,NORMAL,,WEEK 1,3,2024-10-06,7
STUDY001,LB,STUDY001-SUBJ0005,27,L00027,CREAT,Creatinine,CHEMISTRY,1.11,mg/dL,0.6,1.2,1.11,1.11,mg/dL,0.6,1.2,NORMAL,,WEEK 1,3,2024-10-06,7
STUDY001,LB,STUDY001-SUBJ0005,28,L00028,BILI,Total Bilirubin,CHEMISTRY,0.86,mg/dL,0.1,1.2,0.86,0.86,mg/dL,0.1,1.2,NORMAL,,WEEK 1,3,2024-10-06,7
STUDY001,LB,STUDY001-SUBJ0005,29,L00029,ALP,Alkaline Phosphatase,CHEMISTRY,130.81,U/L,44.0,147.0,130.81,130.81,U/L,44.0,147.0,NORMAL,,WEEK 1,3,2024-10-06,7
STUDY001,LB,STUDY001-SUBJ0005,30,L00030,ALT,Alanine Aminotransferase,CHEMISTRY,17.91,U/L,7.0,56.0,17.91,17.91,U/L,7.0,56.0,NORMAL,,WEEK 1,3,2024-10-06,7
STUDY001,LB,STUDY001-SUBJ0005,31,L00031,HGB,Hemoglobin,HEMATOLOGY,13.33,g/dL,13.5,17.5,13.33,13.33,g/dL,13.5,17.5,LOW,,WEEK 2,4,2024-10-13,14
STUDY001,LB,STUDY001-SUBJ0005,32,L00032,HCT,Hematocrit,HEMATOLOGY,46.69,%,41.0,51.0,46.69,46.69,%,41.0,51.0,NORMAL,,WEEK 2,4,2024-10-13,14
STUDY001,LB,STUDY001-SUBJ0005,33,L00033,WBC,White Blood Cell Count,HEMATOLOGY,6.44,10^9/L,4.5,11.0,6.44,6.44,10^9/L,4.5,11.0,NORMAL,,WEEK 2,4,2024-10-13,14
STUDY001,LB,STUDY001-SUBJ0005,34,L00034,PLT,Platelet Count,HEMATOLOGY,254.09,10^9/L,150.0,450.0,254.09,254.09,10^9/L,150.0,450.0,NORMAL,,WEEK 2,4,2024-10-13,14
STUDY001,LB,STUDY001-SUBJ0005,35,L00035,GLUC,Glucose,CHEMISTRY,95.5,mg/dL,70.0,100.0,95.5,95.5,mg/dL,70.0,100.0,NORMAL,,WEEK 2,4,2024-10-13,14
STUDY001,LB,STUDY001-SUBJ0005,36,L00036,BUN,Blood Urea Nitrogen,CHEMISTRY,19.42,mg/dL,7.0,20.0,19.42,19.42,mg/dL,7.0,20.0,NORMAL,,WEEK 2,4,2024-10-13,14
STUDY001,LB,STUDY001-SUBJ0005,37,L00037,CREAT,Creatinine,CHEMISTRY,1.09,mg/dL,0.6,1.2,1.09,1.09,mg/dL,0.6,1.2,NORMAL,,WEEK 2,4,2024-10-13,14
STUDY001,LB,STUDY001-SUBJ0005,38,L00038,BILI,Total Bilirubin,CHEMISTRY,0.81,mg/dL,0.1,1.2,0.81,0.81,mg/dL,0.1,1.2,NORMAL,,WEEK 2,4,2024-10-13,14
STUDY001,LB,STUDY001-SUBJ0005,39,L00039,ALP,Alkaline Phosphatase,CHEMISTRY,132.78,U/L,44.0,147.0,132.78,132.78,U/L,44.0,147.0,NORMAL,,WEEK 2,4,2024-10-13,14
STUDY001,LB,STUDY001-SUBJ0005,40,L00040,ALT,Alanine Aminotransferase,CHEMISTRY,17.75,U/L,7.0,56.0,17.75,17.75,U/L,7.0,56.0,NORMAL,,WEEK 2,4,2024-10-13,14
STUDY001,LB,STUDY001-SUBJ0005,41,L00041,HGB,Hemoglobin,HEMATOLOGY,13.33,g/dL,13.5,17.5,13.33,13.33,g/dL,13.5,17.5,LOW,,WEEK 4,5,2024-10-27,28
STUDY001,LB,STUDY001-SUBJ0005,42,L00042,HCT,Hematocrit,HEMATOLOGY,47.45,%,41.0,51.0,47.45,47.45,%,41.0,51.0,NORMAL,,WEEK 4,5,2024-10-27,28
STUDY001,LB,STUDY001-SUBJ0005,43,L00043,WBC,White Blood Cell Count,HEMATOLOGY,6.41,10^9/L,4.5,11.0,6.41,6.41,10^9/L,4.5,11.0,NORMAL,,WEEK 4,5,2024-10-27,28
STUDY001,LB,STUDY001-SUBJ0005,44,L00044,PLT,Platelet Count,HEMATOLOGY,259.89,10^9/L,150.0,450.0,259.89,259.89,10^9/L,150.0,450.0,NORMAL,,WEEK 4,5,2024-10-27,28
STUDY001,LB,STUDY001-SUBJ0005,45,L00045,GLUC,Glucose,CHEMISTRY,95.35,mg/dL,70.0,100.0,95.35,95.35,mg/dL,70.0,100.0,NORMAL,,WEEK 4,5,2024-10-27,28
STUDY001,LB,STUDY001-SUBJ0005,46,L00046,BUN,Blood Urea Nitrogen,CHEMISTRY,19.51,mg/dL,7.0,20.0,19.51,19.51,mg/dL,7.0,20.0,NORMAL,,WEEK 4,5,2024-10-27,28
STUDY001,LB,STUDY001-SUBJ0005,47,L00047,CREAT,Creatinine,CHEMISTRY,1.09,mg/dL,0.6,1.2,1.09,1.09,mg/dL,0.6,1.2,NORMAL,,WEEK 4,5,2024-10-27,28
STUDY001,LB,STUDY001-SUBJ0005,48,L00048,BILI,Total Bilirubin,CHEMISTRY,0.84,mg/dL,0.1,1.2,0.84,0.84,mg/dL,0.1,1.2,NORMAL,,WEEK 4,5,2024-10-27,28
STUDY001,LB,STUDY001-SUBJ0005,49,L00049,ALP,Alkaline Phosphatase,CHEMISTRY,131.98,U/L,44.0,147.0,131.98,131.98,U/L,44.0,147.0,NORMAL,,WEEK 4,5,2024-10-27,28
STUDY001,LB,STUDY001-SUBJ0005,50,L00050,ALT,Alanine Aminotransferase,CHEMISTRY,17.76,U/L,7.0,56.0,17.76,17.76,U/L,7.0,56.0,NORMAL,,WEEK 4,5,2024-10-27,28
STUDY001,LB,STUDY001-SUBJ0005,51,L00051,HGB,Hemoglobin,HEMATOLOGY,13.55,g/dL,13.5,17.5,13.55,13.55,g/dL,13.5,17.5,NORMAL,,WEEK 8,6,2024-11-24,56
STUDY001,LB,STUDY001-SUBJ0005,52,L00052,HCT,Hematocrit,HEMATOLOGY,46.36,%,41.0,51.0,46.36,46.36,%,41.0,51.0,NORMAL,,WEEK 8,6,2024-11-24,56
STUDY001,LB,STUDY001-SUBJ0005,53,L00053,WBC,White Blood Cell Count,HEMATOLOGY,6.39,10^9/L,4.5,11.0,6.39,6.39,10^9/L,4.5,11.0,NORMAL,,WEEK 8,6,2024-11-24,56
STUDY001,LB,STUDY001-SUBJ0005,54,L00054,PLT,Platelet Count,HEMATOLOGY,253.82,10^9/L,150.0,450.0,253.82,253.82,10^9/L,150.0,450.0,NORMAL,,WEEK 8,6,2024-11-24,56
STUDY001,LB,STUDY001-SUBJ0005,55,L00055,GLUC,Glucose,CHEMISTRY,95.88,mg/dL,70.0,100.0,95.88,95.88,mg/dL,70.0,100.0,NORMAL,,WEEK 8,6,2024-11-24,56
STUDY001,LB,STUDY001-SUBJ0005,56,L00056,BUN,Blood Urea Nitrogen,CHEMISTRY,19.14,mg/dL,7.0,20.0,19.14,19.14,mg/dL,7.0,20.0,NORMAL,,WEEK 8,6,2024-11-24,56
STUDY001,LB,STUDY001-SUBJ0005,57,L00057,CREAT,Creatinine,CHEMISTRY,1.06,mg/dL,0.6,1.2,1.06,1.06,mg/dL,0.6,1.2,NORMAL,,WEEK 8,6,2024-11-24,56
STUDY001,LB,STUDY001-SUBJ0005,58,L00058,BILI,Total Bilirubin,CHEMISTRY,0.85,mg/dL,0.1,1.2,0.85,0.85,mg/dL,0.1,1.2,NORMAL,,WEEK 8,6,2024-11-24,56
STUDY001,LB,STUDY001-SUBJ0005,59,L00059,ALP,Alkaline Phosphatase,CHEMISTRY,132.08,U/L,44.0,147.0,132.08,132.08,U/L,44.0,147.0,NORMAL,,WEEK 8,6,2024-11-24,56
STUDY001,LB,STUDY001-SUBJ0005,60,L00060,ALT,Alanine Aminotransferase,CHEMISTRY,17.56,U/L,7.0,56.0,17.56,17.56,U/L,7.0,56.0,NORMAL,,WEEK 8,6,2024-11-24,56
STUDY001,LB,STUDY001-SUBJ0005,61,L00061,HGB,Hemoglobin,HEMATOLOGY,13.27,g/dL,13.5,17.5,13.27,13.27,g/dL,13.5,17.5,LOW,,WEEK 12,7,2024-12-22,84
STUDY001,LB,STUDY001-SUBJ0005,62,L00062,HCT,Hematocrit,HEMATOLOGY,47.14,%,41.0,51.0,47.14,47.14,%,41.0,51.0,NORMAL,,WEEK 12,7,2024-12-22,84
STUDY001,LB,STUDY001-SUBJ0005,63,L00063,WBC,White Blood Cell Count,HEMATOLOGY,6.52,10^9/L,4.5,11.0,6.52,6.52,10^9/L,4.5,11.0,NORMAL,,WEEK 12,7,2024-12-22,84
STUDY001,LB,STUDY001-SUBJ0005,64,L00064,PLT,Platelet Count,HEMATOLOGY,250.91,10^9/L,150.0,450.0,250.91,250.91,10^9/L,150.0,450.0,NORMAL,,WEEK 12,7,2024-12-22,84
STUDY001,LB,STUDY001-SUBJ0005,65,L00065,GLUC,Glucose,CHEMISTRY,96.16,mg/dL,70.0,100.0,96.16,96.16,mg/dL,70.0,100.0,NORMAL,,WEEK 12,7,2024-12-22,84
STUDY001,LB,STUDY001-SUBJ0005,66,L00066,BUN,Blood Urea Nitrogen,CHEMISTRY,18.66,mg/dL,7.0,20.0,18.66,18.66,mg/dL,7.0,20.0,NORMAL,,WEEK 12,7,2024-12-22,84
STUDY001,LB,STUDY001-SUBJ0005,67,L00067,CREAT,Creatinine,CHEMISTRY,1.08,mg/dL,0.6,1.2,1.08,1.08,mg/dL,0.6,1.2,NORMAL,,WEEK 12,7,2024-12-22,84
STUDY001,LB,STUDY001-SUBJ0005,68,L00068,BILI,Total Bilirubin,CHEMISTRY,0.81,mg/dL,0.1,1.2,0.81,0.81,mg/dL,0.1,1.2,NORMAL,,WEEK 12,7,2024-12-22,84
STUDY001,LB,STUDY001-SUBJ0005,69,L00069,ALP,Alkaline Phosphatase,CHEMISTRY,132.55,U/L,44.0,147.0,132.55,132.55,U/L,44.0,147.0,NORMAL,,WEEK 12,7,2024-12-22,84
STUDY001,LB,STUDY001-SUBJ0005,70,L00070,ALT,Alanine Aminotransferase,CHEMISTRY,16.63,U/L,7.0,56.0,16.63,16.63,U/L,7.0,56.0,NORMAL,,WEEK 12,7,2024-12-22,84
STUDY001,LB,STUDY001-SUBJ0005,71,L00071,HGB,Hemoglobin,HEMATOLOGY,13.41,g/dL,13.5,17.5,13.41,13.41,g/dL,13.5,17.5,LOW,,WEEK 16,8,2025-01-19,112
STUDY001,LB,STUDY001-SUBJ0005,72,L00072,HCT,Hematocrit,HEMATOLOGY,46.91,%,41.0,51.0,46.91,46.91,%,41.0,51.0,NORMAL,,WEEK 16,8,2025-01-19,112
STUDY001,LB,STUDY001-SUBJ0005,73,L00073,WBC,White Blood Cell Count,HEMATOLOGY,6.42,10^9/L,4.5,11.0,6.42,6.42,10^9/L,4.5,11.0,NORMAL,,WEEK 16,8,2025-01-19,112
STUDY001,LB,STUDY001-SUBJ0005,74,L00074,PLT,Platelet Count,HEMATOLOGY,252.35,10^9/L,150.0,450.0,252.35,252.35,10^9/L,150.0,450.0,NORMAL,,WEEK 16,8,2025-01-19,112
STUDY001,LB,STUDY001-SUBJ0005,75,L00075,GLUC,Glucose,CHEMISTRY,97.58,mg/dL,70.0,100.0,97.58,97.58,mg/dL,70.0,100.0,NORMAL,,WEEK 16,8,2025-01-19,112
STUDY001,LB,STUDY001-SUBJ0005,76,L00076,BUN,Blood Urea Nitrogen,CHEMISTRY,19.52,mg/dL,7.0,20.0,19.52,19.52,mg/dL,7.0,20.0,NORMAL,,WEEK 16,8,2025-01-19,112
STUDY001,LB,STUDY001-SUBJ0005,77,L00077,CREAT,Creatinine,CHEMISTRY,1.09,mg/dL,0.6,1.2,1.09,1.09,mg/dL,0.6,1.2,NORMAL,,WEEK 16,8,2025-01-19,112
STUDY001,LB,STUDY001-SUBJ0005,78,L00078,BILI,Total Bilirubin,CHEMISTRY,0.83,mg/dL,0.1,1.2,0.83,0.83,mg/dL,0.1,1.2,NORMAL,,WEEK 16,8,2025-01-19,112
STUDY001,LB,STUDY001-SUBJ0005,79,L00079,ALP,Alkaline Phosphatase,CHEMISTRY,135.61,U/L,44.0,147.0,135.61,135.61,U/L,44.0,147.0,NORMAL,,WEEK 16,8,2025-01-19,112
STUDY001,LB,STUDY001-SUBJ0005,80,L00080,ALT,Alanine Aminotransferase,CHEMISTRY,17.64,U/L,7.0,56.0,17.64,17.64,U/L,7.0,56.0,NORMAL,,WEEK 16,8,2025-01-19,112
STUDY001,LB,STUDY001-SUBJ0005,81,L00081,HGB,Hemoglobin,HEMATOLOGY,13.57,g/dL,13.5,17.5,13.57,13.57,g/dL,13.5,17.5,NORMAL,,END OF TREATMENT,9,2025-02-16,140
STUDY001,LB,STUDY001-SUBJ0005,82,L00082,HCT,Hematocrit,HEMATOLOGY,47.12,%,41.0,51.0,47.12,47.12,%,41.0,51.0,NORMAL,,END OF TREATMENT,9,2025-02-16,140
STUDY001,LB,STUDY001-SUBJ0005,83,L00083,WBC,White Blood Cell Count,HEMATOLOGY,6.44,10^9/L,4.5,11.0,6.44,6.44,10^9/L,4.5,11.0,NORMAL,,END OF TREATMENT,9,2025-02-16,140
STUDY001,LB,STUDY001-SUBJ0005,84,L00084,PLT,Platelet Count,HEMATOLOGY,250.13,10^9/L,150.0,450.0,250.13,250.13,10^9/L,150.0,450.0,NORMAL,,END OF TREATMENT,9,2025-02-16,140
STUDY001,LB,STUDY001-SUBJ0005,85,L00085,GLUC,Glucose,CHEMISTRY,97.19,mg/dL,70.0,100.0,97.19,97.19,mg/dL,70.0,100.0,NORMAL,,END OF TREATMENT,9,2025-02-16,140
STUDY001,LB,STUDY001-SUBJ0005,86,L00086,BUN,Blood Urea Nitrogen,CHEMISTRY,19.54,mg/dL,7.0,20.0,19.54,19.54,mg/dL,7.0,20.0,NORMAL,,END OF TREATMENT,9,2025-02-16,140
STUDY001,LB,STUDY001-SUBJ0005,87,L00087,CREAT,Creatinine,CHEMISTRY,1.08,mg/dL,0.6,1.2,1.08,1.08,mg/dL,0.6,1.2,NORMAL,,END OF TREATMENT,9,2025-02-16,140
STUDY001,LB,STUDY001-SUBJ0005,88,L00088,BILI,Total Bilirubin,CHEMISTRY,0.79,mg/dL,0.1,1.2,0.79,0.79,mg/dL,0.1,1.2,NORMAL,,END OF TREATMENT,9,2025-02-16,140
STUDY001,LB,STUDY001-SUBJ0005,89,L00089,ALP,Alkaline Phosphatase,CHEMISTRY,132.14,U/L,44.0,147.0,132.14,132.14,U/L,44.0,147.0,NORMAL,,END OF TREATMENT,9,2025-02-16,140
STUDY001,LB,STUDY001-SUBJ0005,90,L00090,ALT,Alanine Aminotransferase,CHEMISTRY,17.52,U/L,7.0,56.0,17.52,17.52,U/L,7.0,56.0,NORMAL,,END OF TREATMENT,9,2025-02-16,140
STUDY001,LB,STUDY001-SUBJ0006,1,L00001,HGB,Hemoglobin,HEMATOLOGY,15.02,g/dL,13.5,17.5,15.02,15.02,g/dL,13.5,17.5,NORMAL,,SCREENING,1,2025-06-30,-14
STUDY001,LB,STUDY001-SUBJ0006,2,L00002,HCT,Hematocrit,HEMATOLOGY,48.13,%,41.0,51.0,48.13,48.13,%,41.0,51.0,NORMAL,,SCREENING,1,2025-06-30,-14
STUDY001,LB,STUDY001-SUBJ0006,3,L00003,WBC,White Blood Cell Count,HEMATOLOGY,6.52,10^9/L,4.5,11.0,6.52,6.52,10^9/L,4.5,11.0,NORMAL,,SCREENING,1,2025-06-30,-14
STUDY001,LB,STUDY001-SUBJ0006,4,L00004,PLT,Platelet Count,HEMATOLOGY,356.23,10^9/L,150.0,450.0,356.23,356.23,10^9/L,150.0,450.0,NORMAL,,SCREENING,1,2025-06-30,-14
STUDY001,LB,STUDY001-SUBJ0006,5,L00005,GLUC,Glucose,CHEMISTRY,65.27,mg/dL,70.0,100.0,65.27,65.27,mg/dL,70.0,100.0,LOW,,SCREENING,1,2025-06-30,-14
STUDY001,LB,STUDY001-SUBJ0006,6,L00006,BUN,Blood Urea Nitrogen,CHEMISTRY,16.24,mg/dL,7.0,20.0,16.24,16.24,mg/dL,7.0,20.0,NORMAL,,SCREENING,1,2025-06-30,-14
STUDY001,LB,STUDY001-SUBJ0006,7,L00007,CREAT,Creatinine,CHEMISTRY,0.88,mg/dL,0.6,1.2,0.88,0.88,mg/dL,0.6,1.2,NORMAL,,SCREENING,1,2025-06-30,-14
STUDY001,LB,STUDY001-SUBJ0006,8,L00008,BILI,Total Bilirubin,CHEMISTRY,0.41,mg/dL,0.1,1.2,0.41,0.41,mg/dL,0.1,1.2,NORMAL,,SCREENING,1,2025-06-30,-14
STUDY001,LB,STUDY001-SUBJ0006,9,L00009,ALP,Alkaline Phosphatase,CHEMISTRY,151.09,U/L,44.0,147.0,151.09,151.09,U/L,44.0,147.0,HIGH,,SCREENING,1,2025-06-30,-14
STUDY001,LB,STUDY001-SUBJ0006,10,L00010,ALT,Alanine Aminotransferase,CHEMISTRY,37.64,U/L,7.0,56.0,37.64,37.64,U/L,7.0,56.0,NORMAL,,SCREENING,1,2025-06-30,-14
STUDY001,LB,STUDY001-SUBJ0006,11,L00011,HGB,Hemoglobin,HEMATOLOGY,15.02,g/dL,13.5,17.5,15.02,15.02,g/dL,13.5,17.5,NORMAL,Y,BASELINE,2,2025-07-14,1
STUDY001,LB,STUDY001-SUBJ0006,12,L00012,HCT,Hematocrit,HEMATOLOGY,47.68,%,41.0,51.0,47.68,47.68,%,41.0,51.0,NORMAL,Y,BASELINE,2,2025-07-14,1
STUDY001,LB,STUDY001-SUBJ0006,13,L00013,WBC,White Blood Cell Count,HEMATOLOGY,6.97,10^9/L,4.5,11.0,6.97,6.97,10^9/L,4.5,11.0,NORMAL,Y,BASELINE,2,2025-07-14,1
STUDY001,LB,STUDY001-SUBJ0006,14,L00014,PLT,Platelet Count,HEMATOLOGY,362.05,10^9/L,150.0,450.0,362.05,362.05,10^9/L,150.0,450.0,NORMAL,Y,BASELINE,2,2025-07-14,1
STUDY001,LB,STUDY001-SUBJ0006,15,L00015,GLUC,Glucose,CHEMISTRY,63.85,mg/dL,70.0,100.0,63.85,63.85,mg/dL,70.0,100.0,LOW,Y,BASELINE,2,2025-07-14,1
STUDY001,LB,STUDY001-SUBJ0006,16,L00016,BUN,Blood Urea Nitrogen,CHEMISTRY,16.01,mg/dL,7.0,20.0,16.01,16.01,mg/dL,7.0,20.0,NORMAL,Y,BASELINE,2,2025-07-14,1
STUDY001,LB,STUDY001-SUBJ0006,17,L00017,CREAT,Creatinine,CHEMISTRY,0.93,mg/dL,0.6,1.2,0.93,0.93,mg/dL,0.6,1.2,NORMAL,Y,BASELINE,2,2025-07-14,1
STUDY001,LB,STUDY001-SUBJ0006,18,L00018,BILI,Total Bilirubin,CHEMISTRY,0.38,mg/dL,0.1,1.2,0.38,0.38,mg/dL,0.1,1.2,NORMAL,Y,BASELINE,2,2025-07-14,1
STUDY001,LB,STUDY001-SUBJ0006,19,L00019,ALP,Alkaline Phosphatase,CHEMISTRY,152.36,U/L,44.0,147.0,152.36,152.36,U/L,44.0,147.0,HIGH,Y,BASELINE,2,2025-07-14,1
STUDY001,LB,STUDY001-SUBJ0006,20,L00020,ALT,Alanine Aminotransferase,CHEMISTRY,36.13,U/L,7.0,56.0,36.13,36.13,U/L,7.0,56.0,NORMAL,Y,BASELINE,2,2025-07-14,1
STUDY001,LB,STUDY001-SUBJ0006,21,L00021,HGB,Hemoglobin,HEMATOLOGY,14.89,g/dL,13.5,17.5,14.89,14.89,g/dL,13.5,17.5,NORMAL,,WEEK 1,3,2025-07-20,7
STUDY001,LB,STUDY001-SUBJ0006,22,L00022,HCT,Hematocrit,HEMATOLOGY,47.42,%,41.0,51.0,47.42,47.42,%,41.0,51.0,NORMAL,,WEEK 1,3,2025-07-20,7
STUDY001,LB,STUDY001-SUBJ0006,23,L00023,WBC,White Blood Cell Count,HEMATOLOGY,6.79,10^9/L,4.5,11.0,6.79,6.79,10^9/L,4.5,11.0,NORMAL,,WEEK 1,3,2025-07-20,7
STUDY001,LB,STUDY001-SUBJ0006,24,L00024,PLT,Platelet Count,HEMATOLOGY,354.0,10^9/L,150.0,450.0,354.0,354.0,10^9/L,150.0,450.0,NORMAL,,WEEK 1,3,2025-07-20,7
STUDY001,LB,STUDY001-SUBJ0006,25,L00025,GLUC,Glucose,CHEMISTRY,64.98,mg/dL,70.0,100.0,64.98,64.98,mg/dL,70.0,100.0,LOW,,WEEK 1,3,2025-07-20,7
STUDY001,LB,STUDY001-SUBJ0006,26,L00026,BUN,Blood Urea Nitrogen,CHEMISTRY,16.69,mg/dL,7.0,20.0,16.69,16.69,mg/dL,7.0,20.0,NORMAL,,WEEK 1,3,2025-07-20,7
STUDY001,LB,STUDY001-SUBJ0006,27,L00027,CREAT,Creatinine,CHEMISTRY,0.91,mg/dL,0.6,1.2,0.91,0.91,mg/dL,0.6,1.2,NORMAL,,WEEK 1,3,2025-07-20,7
STUDY001,LB,STUDY001-SUBJ0006,28,L00028,BILI,Total Bilirubin,CHEMISTRY,0.4,mg/dL,0.1,1.2,0.4,0.4,mg/dL,0.1,1.2,NORMAL,,WEEK 1,3,2025-07-20,7
STUDY001,LB,STUDY001-SUBJ0006,29,L00029,ALP,Alkaline Phosphatase,CHEMISTRY,154.21,U/L,44.0,147.0,154.21,154.21,U/L,44.0,147.0,HIGH,,WEEK 1,3,2025-07-20,7
STUDY001,LB,STUDY001-SUBJ0006,30,L00030,ALT,Alanine Aminotransferase,CHEMISTRY,37.5,U/L,7.0,56.0,37.5,37.5,U/L,7.0,56.0,NORMAL,,WEEK 1,3,2025-07-20,7
STUDY001,LB,STUDY001-SUBJ0006,31,L00031,HGB,Hemoglobin,HEMATOLOGY,15.16,g/dL,13.5,17.5,15.16,15.16,g/dL,13.5,17.5,NORMAL,,WEEK 2,4,2025-07-27,14
STUDY001,LB,STUDY001-SUBJ0006,32,L00032,HCT,Hematocrit,HEMATOLOGY,47.83,%,41.0,51.0,47.83,47.83,%,41.0,51.0,NORMAL,,WEEK 2,4,2025-07-27,14
STUDY001,LB,STUDY001-SUBJ0006,33,L00033,WBC,White Blood Cell Count,HEMATOLOGY,6.94,10^9/L,4.5,11.0,6.94,6.94,10^9/L,4.5,11.0,NORMAL,,WEEK 2,4,2025-07-27,14
STUDY001,LB,STUDY001-SUBJ0006,34,L00034,PLT,Platelet Count,HEMATOLOGY,356.37,10^9/L,150.0,450.0,356.37,356.37,10^9/L,150.0,450.0,NORMAL,,WEEK 2,4,2025-07-27,14
STUDY001,LB,STUDY001-SUBJ0006,35,L00035,GLUC,Glucose,CHEMISTRY,65.4,mg/dL,70.0,100.0,65.4,65.4,mg/dL,70.0,100.0,LOW,,WEEK 2,4,2025-07-27,14
STUDY001,LB,STUDY001-SUBJ0006,36,L00036,BUN,Blood Urea Nitrogen,CHEMISTRY,16.09,mg/dL,7.0,20.0,16.09,16.09,mg/dL,7.0,20.0,NORMAL,,WEEK 2,4,2025-07-27,14
STUDY001,LB,STUDY001-SUBJ0006,37,L00037,CREAT,Creatinine,CHEMISTRY,0.92,mg/dL,0.6,1.2,0.92,0.92,mg/dL,0.6,1.2,NORMAL,,WEEK 2,4,2025-07-27,14
STUDY001,LB,STUDY001-SUBJ0006,38,L00038,BILI,Total Bilirubin,CHEMISTRY,0.43,mg/dL,0.1,1.2,0.43,0.43,mg/dL,0.1,1.2,NORMAL,,WEEK 2,4,2025-07-27,14
STUDY001,LB,STUDY001-SUBJ0006,39,L00039,ALP,Alkaline Phosphatase,CHEMISTRY,152.6,U/L,44.0,147.0,152.6,152.6,U/L,44.0,147.0,HIGH,,WEEK 2,4,2025-07-27,14
STUDY001,LB,STUDY001-SUBJ0006,40,L00040,ALT,Alanine Aminotransferase,CHEMISTRY,37.9,U/L,7.0,56.0,37.9,37.9,U/L,7.0,56.0,NORMAL,,WEEK 2,4,2025-07-27,14
STUDY001,LB,STUDY001-SUBJ0006,41,L00041,HGB,Hemoglobin,HEMATOLOGY,15.08,g/dL,13.5,17.5,15.08,15.08,g/dL,13.5,17.5,NORMAL,,WEEK 4,5,2025-08-10,28
STUDY001,LB,STUDY001-SUBJ0006,42,L00042,HCT,Hematocrit,HEMATOLOGY,47.84,%,41.0,51.0,47.84,47.84,%,41.0,51.0,NORMAL,,WEEK 4,5,2025-08-10,28
STUDY001,LB,STUDY001-SUBJ0006,43,L00043,WBC,White Blood Cell Count,HEMATOLOGY,6.81,10^9/L,4.5,11.0,6.81,6.81,10^9/L,4.5,11.0,NORMAL,,WEEK 4,5,2025-08-10,28
STUDY001,LB,STUDY001-SUBJ0006,44,L00044,PLT,Platelet Count,HEMATOLOGY,359.96,10^9/L,150.0,450.0,359.96,359.96,10^9/L,150.0,450.0,NORMAL,,WEEK 4,5,2025-08-10,28
STUDY001,LB,STUDY001-SUBJ0006,45,L00045,GLUC,Glucose,CHEMISTRY,66.06,mg/dL,70.0,100.0,66.06,66.06,mg/dL,70.0,100.0,LOW,,WEEK 4,5,2025-08-10,28
STUDY001,LB,STUDY001-SUBJ0006,46,L00046,BUN,Blood Urea Nitrogen,CHEMISTRY,16.84,mg/dL,7.0,20.0,16.84,16.84,mg/dL,7.0,20.0,NORMAL,,WEEK 4,5,2025-08-10,28
STUDY001,LB,STUDY001-SUBJ0006,47,L00047,CREAT,Creatinine,CHEMISTRY,0.92,mg/dL,0.6,1.2,0.92,0.92,mg/dL,0.6,1.2,NORMAL,,WEEK 4,5,2025-08-10,28
STUDY001,LB,STUDY001-SUBJ0006,48,L00048,BILI,Total Bilirubin,CHEMISTRY,0.41,mg/dL,0.1,1.2,0.41,0.41,mg/dL,0.1,1.2,NORMAL,,WEEK 4,5,2025-08-10,28
STUDY001,LB,STUDY001-SUBJ0006,49,L00049,ALP,Alkaline Phosphatase,CHEMISTRY,151.49,U/L,44.0,147.0,151.49,151.49,U/L,44.0,147.0,HIGH,,WEEK 4,5,2025-08-10,28
STUDY001,LB,STUDY001-SUBJ0006,50,L00050,ALT,Alanine Aminotransferase,CHEMISTRY,35.55,U/L,7.0,56.0,35.55,35.55,U/L,7.0,56.0,NORMAL,,WEEK 4,5,2025-08-10,28
STUDY001,LB,STUDY001-SUBJ0006,51,L00051,HGB,Hemoglobin,HEMATOLOGY,15.06,g/dL,13.5,17.5,15.06,15.06,g/dL,13.5,17.5,NORMAL,,WEEK 8,6,2025-09-07,56
STUDY001,LB,STUDY001-SUBJ0006,52,L00052,HCT,Hematocrit,HEMATOLOGY,48.05,%,41.0,51.0,48.05,48.05,%,41.0,51.0,NORMAL,,WEEK 8,6,2025-09-07,56
STUDY001,LB,STUDY001-SUBJ0006,53,L00053,WBC,White Blood Cell Count,HEMATOLOGY,6.88,10^9/L,4.5,11.0,6.88,6.88,10^9/L,4.5,11.0,NORMAL,,WEEK 8,6,2025-09-07,56
STUDY001,LB,STUDY001-SUBJ0006,54,L00054,PLT,Platelet Count,HEMATOLOGY,364.35,10^9/L,150.0,450.0,364.35,364.35,10^9/L,150.0,450.0,NORMAL,,WEEK 8,6,2025-09-07,56
STUDY001,LB,STUDY001-SUBJ0006,55,L00055,GLUC,Glucose,CHEMISTRY,63.01,mg/dL,70.0,100.0,63.01,63.01,mg/dL,70.0,100.0,LOW,,WEEK 8,6,2025-09-07,56
STUDY001,LB,STUDY001-SUBJ0006,56,L00056,BUN,Blood Urea Nitrogen,CHEMISTRY,15.81,mg/dL,7.0,20.0,15.81,15.81,mg/dL,7.0,20.0,NORMAL,,WEEK 8,6,2025-09-07,56
STUDY001,LB,STUDY001-SUBJ0006,57,L00057,CREAT,Creatinine,CHEMISTRY,0.9,mg/dL,0.6,1.2,0.9,0.9,mg/dL,0.6,1.2,NORMAL,,WEEK 8,6,2025-09-07,56
STUDY001,LB,STUDY001-SUBJ0006,58,L00058,BILI,Total Bilirubin,CHEMISTRY,0.41,mg/dL,0.1,1.2,0.41,0.41,mg/dL,0.1,1.2,NORMAL,,WEEK 8,6,2025-09-07,56
STUDY001,LB,STUDY001-SUBJ0006,59,L00059,ALP,Alkaline Phosphatase,CHEMISTRY,151.57,U/L,44.0,147.0,151.57,151.57,U/L,44.0,147.0,HIGH,,WEEK 8,6,2025-09-07,56
STUDY001,LB,STUDY001-SUBJ0006,60,L00060,ALT,Alanine Aminotransferase,CHEMISTRY,35.97,U/L,7.0,56.0,35.97,35.97,U/L,7.0,56.0,NORMAL,,WEEK 8,6,2025-09-07,56
STUDY001,LB,STUDY001-SUBJ0006,61,L00061,HGB,Hemoglobin,HEMATOLOGY,14.92,g/dL,13.5,17.5,14.92,14.92,g/dL,13.5,17.5,NORMAL,,WEEK 12,7,2025-10-05,84
STUDY001,LB,STUDY001-SUBJ0006,62,L00062,HCT,Hematocrit,HEMATOLOGY,47.21,%,41.0,51.0,47.21,47.21,%,41.0,51.0,NORMAL,,WEEK 12,7,2025-10-05,84
STUDY001,LB,STUDY001-SUBJ0006,63,L00063,WBC,White Blood Cell Count,HEMATOLOGY,7.01,10^9/L,4.5,11.0,7.01,7.01,10^9/L,4.5,11.0,NORMAL,,WEEK 12,7,2025-10-05,84
STUDY001,LB,STUDY001-SUBJ0006,64,L00064,PLT,Platelet Count,HEMATOLOGY,357.56,10^9/L,150.0,450.0,357.56,357.56,10^9/L,150.0,450.0,NORMAL,,WEEK 12,7,2025-10-05,84
STUDY001,LB,STUDY001-SUBJ0006,65,L00065,GLUC,Glucose,CHEMISTRY,65.77,mg/dL,70.0,100.0,65.77,65.77,mg/dL,70.0,100.0,LOW,,WEEK 12,7,2025-10-05,84
STUDY001,LB,STUDY001-SUBJ0006,66,L00066,BUN,Blood Urea Nitrogen,CHEMISTRY,16.01,mg/dL,7.0,20.0,16.01,16.01,mg/dL,7.0,20.0,NORMAL,,WEEK 12,7,2025-10-05,84
STUDY001,LB,STUDY001-SUBJ0006,67,L00067,CREAT,Creatinine,CHEMISTRY,0.92,mg/dL,0.6,1.2,0.92,0.92,mg/dL,0.6,1.2,NORMAL,,WEEK 12,7,2025-10-05,84
STUDY001,LB,STUDY001-SUBJ0006,68,L00068,BILI,Total Bilirubin,CHEMISTRY,0.41,mg/dL,0.1,1.2,0.41,0.41,mg/dL,0.1,1.2,NORMAL,,WEEK 12,7,2025-10-05,84
STUDY001,LB,STUDY001-SUBJ0006,69,L00069,ALP,Alkaline Phosphatase,CHEMISTRY,149.34,U/L,44.0,147.0,149.34,149.34,U/L,44.0,147.0,HIGH,,WEEK 12,7,2025-10-05,84
STUDY001,LB,STUDY001-SUBJ0006,70,L00070,ALT,Alanine Aminotransferase,CHEMISTRY,37.25,U/L,7.0,56.0,37.25,37.25,U/L,7.0,56.0,NORMAL,,WEEK 12,7,2025-10-05,84
STUDY001,LB,STUDY001-SUBJ0006,71,L00071,HGB,Hemoglobin,HEMATOLOGY,14.78,g/dL,13.5,17.5,14.78,14.78,g/dL,13.5,17.5,NORMAL,,WEEK 16,8,2025-11-02,112
STUDY001,LB,STUDY001-SUBJ0006,72,L00072,HCT,Hematocrit,HEMATOLOGY,48.03,%,41.0,51.0,48.03,48.03,%,41.0,51.0,NORMAL,,WEEK 16,8,2025-11-02,112
STUDY001,LB,STUDY001-SUBJ0006,73,L00073,WBC,White Blood Cell Count,HEMATOLOGY,6.8,10^9/L,4.5,11.0,6.8,6.8,10^9/L,4.5,11.0,NORMAL,,WEEK 16,8,2025-11-02,112
STUDY001,LB,STUDY001-SUBJ0006,74,L00074,PLT,Platelet Count,HEMATOLOGY,360.28,10^9/L,150.0,450.0,360.28,360.28,10^9/L,150.0,450.0,NORMAL,,WEEK 16,8,2025-11-02,112
STUDY001,LB,STUDY001-SUBJ0006,75,L00075,GLUC,Glucose,CHEMISTRY,66.86,mg/dL,70.0,100.0,66.86,66.86,mg/dL,70.0,100.0,LOW,,WEEK 16,8,2025-11-02,112
STUDY001,LB,STUDY001-SUBJ0006,76,L00076,BUN,Blood Urea Nitrogen,CHEMISTRY,16.07,mg/dL,7.0,20.0,16.07,16.07,mg/dL,7.0,20.0,NORMAL,,WEEK 16,8,2025-11-02,112
STUDY001,LB,STUDY001-SUBJ0006,77,L00077,CREAT,Creatinine,CHEMISTRY,0.9,mg/dL,0.6,1.2,0.9,0.9,mg/dL,0.6,1.2,NORMAL,,WEEK 16,8,2025-11-02,112
STUDY001,LB,STUDY001-SUBJ0006,78,L00078,BILI,Total Bilirubin,CHEMISTRY,0.35,mg/dL,0.1,1.2,0.35,0.35,mg/dL,0.1,1.2,NORMAL,,WEEK 16,8,2025-11-02,112
STUDY001,LB,STUDY001-SUBJ0006,79,L00079,ALP,Alkaline Phosphatase,CHEMISTRY,152.59,U/L,44.0,147.0,152.59,152.59,U/L,44.0,147.0,HIGH,,WEEK 16,8,2025-11-02,112
STUDY001,LB,STUDY001-SUBJ0006,80,L00080,ALT,Alanine Aminotransferase,CHEMISTRY,36.98,U/L,7.0,56.0,36.98,36.98,U/L,7.0,56.0,NORMAL,,WEEK 16,8,2025-11-02,112
STUDY001,LB,STUDY001-SUBJ0006,81,L00081,HGB,Hemoglobin,HEMATOLOGY,15.05,g/dL,13.5,17.5,15.05,15.05,g/dL,13.5,17.5,NORMAL,,END OF TREATMENT,9,2025-11-30,140
STUDY001,LB,STUDY001-SUBJ0006,82,L00082,HCT,Hematocrit,HEMATOLOGY,47.78,%,41.0,51.0,47.78,47.78,%,41.0,51.0,NORMAL,,END OF TREATMENT,9,2025-11-30,140
STUDY001,LB,STUDY001-SUBJ0006,83,L00083,WBC,White Blood Cell Count,HEMATOLOGY,6.92,10^9/L,4.5,11.0,6.92,6.92,10^9/L,4.5,11.0,NORMAL,,END OF TREATMENT,9,2025-11-30,140
STUDY001,LB,STUDY001-SUBJ0006,84,L00084,PLT,Platelet Count,HEMATOLOGY,354.01,10^9/L,150.0,450.0,354.01,354.01,10^9/L,150.0,450.0,NORMAL,,END OF TREATMENT,9,2025-11-30,140
STUDY001,LB,STUDY001-SUBJ0006,85,L00085,GLUC,Glucose,CHEMISTRY,65.09,mg/dL,70.0,100.0,65.09,65.09,mg/dL,70.0,100.0,LOW,,END OF TREATMENT,9,2025-11-30,140
STUDY001,LB,STUDY001-SUBJ0006,86,L00086,BUN,Blood Urea Nitrogen,CHEMISTRY,16.16,mg/dL,7.0,20.0,16.16,16.16,mg/dL,7.0,20.0,NORMAL,,END OF TREATMENT,9,2025-11-30,140
STUDY001,LB,STUDY001-SUBJ0006,87,L00087,CREAT,Creatinine,CHEMISTRY,0.91,mg/dL,0.6,1.2,0.91,0.91,mg/dL,0.6,1.2,NORMAL,,END OF TREATMENT,9,2025-11-30,140
STUDY001,LB,STUDY001-SUBJ0006,88,L00088,BILI,Total Bilirubin,CHEMISTRY,0.43,mg/dL,0.1,1.2,0.43,0.43,mg/dL,0.1,1.2,NORMAL,,END OF TREATMENT,9,2025-11-30,140
STUDY001,LB,STUDY001-SUBJ0006,89,L00089,ALP,Alkaline Phosphatase,CHEMISTRY,155.81,U/L,44.0,147.0,155.81,155.81,U/L,44.0,147.0,HIGH,,END OF TREATMENT,9,2025-11-30,140
STUDY001,LB,STUDY001-SUBJ0006,90,L00090,ALT,Alanine Aminotransferase,CHEMISTRY,38.31,U/L,7.0,56.0,38.31,38.31,U/L,7.0,56.0,NORMAL,,END OF TREATMENT,9,2025-11-30,140
STUDY001,LB,STUDY001-SUBJ0007,1,L00001,HGB,Hemoglobin,HEMATOLOGY,14.63,g/dL,13.5,17.5,14.63,14.63,g/dL,13.5,17.5,NORMAL,,SCREENING,1,2025-03-23,-14
STUDY001,LB,STUDY001-SUBJ0007,2,L00002,HCT,Hematocrit,HEMATOLOGY,48.58,%,41.0,51.0,48.58,48.58,%,41.0,51.0,NORMAL,,SCREENING,1,2025-03-23,-14
STUDY001,LB,STUDY001-SUBJ0007,3,L00003,WBC,White Blood Cell Count,HEMATOLOGY,6.53,10^9/L,4.5,11.0,6.53,6.53,10^9/L,4.5,11.0,NORMAL,,SCREENING,1,2025-03-23,-14
STUDY001,LB,STUDY001-SUBJ0007,4,L00004,PLT,Platelet Count,HEMATOLOGY,298.94,10^9/L,150.0,450.0,298.94,298.94,10^9/L,150.0,450.0,NORMAL,,SCREENING,1,2025-03-23,-14
STUDY001,LB,STUDY001-SUBJ0007,5,L00005,GLUC,Glucose,CHEMISTRY,76.45,mg/dL,70.0,100.0,76.45,76.45,mg/dL,70.0,100.0,NORMAL,,SCREENING,1,2025-03-23,-14
STUDY001,LB,STUDY001-SUBJ0007,6,L00006,BUN,Blood Urea Nitrogen,CHEMISTRY,14.43,mg/dL,7.0,20.0,14.43,14.43,mg/dL,7.0,20.0,NORMAL,,SCREENING,1,2025-03-23,-14
STUDY001,LB,STUDY001-SUBJ0007,7,L00007,CREAT,Creatinine,CHEMISTRY,0.82,mg/dL,0.6,1.2,0.82,0.82,mg/dL,0.6,1.2,NORMAL,,SCREENING,1,2025-03-23,-14
STUDY001,LB,STUDY001-SUBJ0007,8,L00008,BILI,Total Bilirubin,CHEMISTRY,0.68,mg/dL,0.1,1.2,0.68,0.68,mg/dL,0.1,1.2,NORMAL,,SCREENING,1,2025-03-23,-14
STUDY001,LB,STUDY001-SUBJ0007,9,L00009,ALP,Alkaline Phosphatase,CHEMISTRY,100.72,U/L,44.0,147.0,100.72,100.72,U/L,44.0,147.0,NORMAL,,SCREENING,1,2025-03-23,-14
STUDY001,LB,STUDY001-SUBJ0007,10,L00010,ALT,Alanine Aminotransferase,CHEMISTRY,36.13,U/L,7.0,56.0,36.13,36.13,U/L,7.0,56.0,NORMAL,,SCREENING,1,2025-03-23,-14
STUDY001,LB,STUDY001-SUBJ0007,11,L00011,HGB,Hemoglobin,HEMATOLOGY,14.79,g/dL,13.5,17.5,14.79,14.79,g/dL,13.5,17.5,NORMAL,Y,BASELINE,2,2025-04-06,1
STUDY001,LB,STUDY001-SUBJ0007,12,L00012,HCT,Hematocrit,HEMATOLOGY,48.37,%,41.0,51.0,48.37,48.37,%,41.0,51.0,NORMAL,Y,BASELINE,2,2025-04-06,1
STUDY001,LB,STUDY001-SUBJ0007,13,L00013,WBC,White Blood Cell Count,HEMATOLOGY,6.64,10^9/L,4.5,11.0,6.64,6.64,10^9/L,4.5,11.0,NORMAL,Y,BASELINE,2,2025-04-06,1
STUDY001,LB,STUDY001-SUBJ0007,14,L00014,PLT,Platelet Count,HEMATOLOGY,297.58,10^9/L,150.0,450.0,297.58,297.58,10^9/L,150.0,450.0,NORMAL,Y,BASELINE,2,2025-04-06,1
STUDY001,LB,STUDY001-SUBJ0007,15,L00015,GLUC,Glucose,CHEMISTRY,75.6,mg/dL,70.0,100.0,75.6,75.6,mg/dL,70.0,100.0,NORMAL,Y,BASELINE,2,2025-04-06,1
STUDY001,LB,STUDY001-SUBJ0007,16,L00016,BUN,Blood Urea Nitrogen,CHEMISTRY,14.14,mg/dL,7.0,20.0,14.14,14.14,mg/dL,7.0,20.0,NORMAL,Y,BASELINE,2,2025-04-06,1
STUDY001,LB,STUDY001-SUBJ0007,17,L00017,CREAT,Creatinine,CHEMISTRY,0.81,mg/dL,0.6,1.2,0.81,0.81,mg/dL,0.6,1.2,NORMAL,Y,BASELINE,2,2025-04-06,1
STUDY001,LB,STUDY001-SUBJ0007,18,L00018,BILI,Total Bilirubin,CHEMISTRY,0.71,mg/dL,0.1,1.2,0.71,0.71,mg/dL,0.1,1.2,NORMAL,Y,BASELINE,2,2025-04-06,1
STUDY001,LB,STUDY001-SUBJ0007,19,L00019,ALP,Alkaline Phosphatase,CHEMISTRY,102.69,U/L,44.0,147.0,102.69,102.69,U/L,44.0,147.0,NORMAL,Y,BASELINE,2,2025-04-06,1
STUDY001,LB,STUDY001-SUBJ0007,20,L00020,ALT,Alanine Aminotransferase,CHEMISTRY,34.32,U/L,7.0,56.0,34.32,34.32,U/L,7.0,56.0,NORMAL,Y,BASELINE,2,2025-04-06,1
STUDY001,LB,STUDY001-SUBJ0007,21,L00021,HGB,Hemoglobin,HEMATOLOGY,14.59,g/dL,13.5,17.5,14.59,14.59,g/dL,13.5,17.5,NORMAL,,WEEK 1,3,2025-04-12,7
STUDY001,LB,STUDY001-SUBJ0007,22,L00022,HCT,Hematocrit,HEMATOLOGY,48.78,%,41.0,51.0,48.78,48.78,%,41.0,51.0,NORMAL,,WEEK 1,3,2025-04-12,7
STUDY001,LB,STUDY001-SUBJ0007,23,L00023,WBC,White Blood Cell Count,HEMATOLOGY,6.63,10^9/L,4.5,11.0,6.63,6.63,10^9/L,4.5,11.0,NORMAL,,WEEK 1,3,2025-04-12,7
STUDY001,LB,STUDY001-SUBJ0007,24,L00024,PLT,Platelet Count,HEMATOLOGY,294.34,10^9/L,150.0,450.0,294.34,294.34,10^9/L,150.0,450.0,NORMAL,,WEEK 1,3,2025-04-12,7
STUDY001,LB,STUDY001-SUBJ0007,25,L00025,GLUC,Glucose,CHEMISTRY,78.82,mg/dL,70.0,100.0,78.82,78.82,mg/dL,70.0,100.0,NORMAL,,WEEK 1,3,2025-04-12,7
STUDY001,LB,STUDY001-SUBJ0007,26,L00026,BUN,Blood Urea Nitrogen,CHEMISTRY,14.42,mg/dL,7.0,20.0,14.42,14.42,mg/dL,7.0,20.0,NORMAL,,WEEK 1,3,2025-04-12,7
STUDY001,LB,STUDY001-SUBJ0007,27,L00027,CREAT,Creatinine,CHEMISTRY,0.82,mg/dL,0.6,1.2,0.82,0.82,mg/dL,0.6,1.2,NORMAL,,WEEK 1,3,2025-04-12,7
STUDY001,LB,STUDY001-SUBJ0007,28,L00028,BILI,Total Bilirubin,CHEMISTRY,0.68,mg/dL,0.1,1.2,0.68,0.68,mg/dL,0.1,1.2,NORMAL,,WEEK 1,3,2025-04-12,7
STUDY001,LB,STUDY001-SUBJ0007,29,L00029,ALP,Alkaline Phosphatase,CHEMISTRY,98.22,U/L,44.0,147.0,98.22,98.22,U/L,44.0,147.0,NORMAL,,WEEK 1,3,2025-04-12,7
STUDY001,LB,STUDY001-SUBJ0007,30,L00030,ALT,Alanine Aminotransferase,CHEMISTRY,35.83,U/L,7.0,56.0,35.83,35.83,U/L,7.0,56.0,NORMAL,,WEEK 1,3,2025-04-12,7
STUDY001,LB,STUDY001-SUBJ0007,31,L00031,HGB,Hemoglobin,HEMATOLOGY,14.73,g/dL,13.5,17.5,14.73,14.73,g/dL,13.5,17.5,NORMAL,,WEEK 2,4,2025-04-19,14
STUDY001,LB,STUDY001-SUBJ0007,32,L00032,HCT,Hematocrit,HEMATOLOGY,48.62,%,41.0,51.0,48.62,48.62,%,41.0,51.0,NORMAL,,WEEK 2,4,2025-04-19,14
STUDY001,LB,STUDY001-SUBJ0007,33,L00033,WBC,White Blood Cell Count,HEMATOLOGY,6.8,10^9/L,4.5,11.0,6.8,6.8,10^9/L,4.5,11.0,NORMAL,,WEEK 2,4,2025-04-19,14
STUDY001,LB,STUDY001-SUBJ0007,34,L00034,PLT,Platelet Count,HEMATOLOGY,298.58,10^9/L,150.0,450.0,298.58,298.58,10^9/L,150.0,450.0,NORMAL,,WEEK 2,4,2025-04-19,14
STUDY001,LB,STUDY001-SUBJ0007,35,L00035,GLUC,Glucose,CHEMISTRY,75.64,mg/dL,70.0,100.0,75.64,75.64,mg/dL,70.0,100.0,NORMAL,,WEEK 2,4,2025-04-19,14
STUDY001,LB,STUDY001-SUBJ0007,36,L00036,BUN,Blood Urea Nitrogen,CHEMISTRY,14.64,mg/dL,7.0,20.0,14.64,14.64,mg/dL,7.0,20.0,NORMAL,,WEEK 2,4,2025-04-19,14
STUDY001,LB,STUDY001-SUBJ0007,37,L00037,CREAT,Creatinine,CHEMISTRY,0.81,mg/dL,0.6,1.2,0.81,0.81,mg/dL,0.6,1.2,NORMAL,,WEEK 2,4,2025-04-19,14
STUDY001,LB,STUDY001-SUBJ0007,38,L00038,BILI,Total Bilirubin,CHEMISTRY,0.65,mg/dL,0.1,1.2,0.65,0.65,mg/dL,0.1,1.2,NORMAL,,WEEK 2,4,2025-04-19,14
STUDY001,LB,STUDY001-SUBJ0007,39,L00039,ALP,Alkaline Phosphatase,CHEMISTRY,99.81,U/L,44.0,147.0,99.81,99.81,U/L,44.0,147.0,NORMAL,,WEEK 2,4,2025-04-19,14
STUDY001,LB,STUDY001-SUBJ0007,40,L00040,ALT,Alanine Aminotransferase,CHEMISTRY,35.21,U/L,7.0,56.0,35.21,35.21,U/L,7.0,56.0,NORMAL,,WEEK 2,4,2025-04-19,14
STUDY001,LB,STUDY001-SUBJ0007,41,L00041,HGB,Hemoglobin,HEMATOLOGY,14.68,g/dL,13.5,17.5,14.68,14.68,g/dL,13.5,17.5,NORMAL,,WEEK 4,5,2025-05-03,28
STUDY001,LB,STUDY001-SUBJ0007,42,L00042,HCT,Hematocrit,HEMATOLOGY,48.71,%,41.0,51.0,48.71,48.71,%,41.0,51.0,NORMAL,,WEEK 4,5,2025-05-03,28
STUDY001,LB,STUDY001-SUBJ0007,43,L00043,WBC,White Blood Cell Count,HEMATOLOGY,6.78,10^9/L,4.5,11.0,6.78,6.78,10^9/L,4.5,11.0,NORMAL,,WEEK 4,5,2025-05-03,28
STUDY001,LB,STUDY001-SUBJ0007,44,L00044,PLT,Platelet Count,HEMATOLOGY,303.58,10^9/L,150.0,450.0,303.58,303.58,10^9/L,150.0,450.0,NORMAL,,WEEK 4,5,2025-05-03,28
STUDY001,LB,STUDY001-SUBJ0007,45,L00045,GLUC,Glucose,CHEMISTRY,75.69,mg/dL,70.0,100.0,75.69,75.69,mg/dL,70.0,100.0,NORMAL,,WEEK 4,5,2025-05-03,28
STUDY001,LB,STUDY001-SUBJ0007,46,L00046,BUN,Blood Urea Nitrogen,CHEMISTRY,14.12,mg/dL,7.0,20.0,14.12,14.12,mg/dL,7.0,20.0,NORMAL,,WEEK 4,5,2025-05-03,28
STUDY001,LB,STUDY001-SUBJ0007,47,L00047,CREAT,Creatinine,CHEMISTRY,0.81,mg/dL,0.6,1.2,0.81,0.81,mg/dL,0.6,1.2,NORMAL,,WEEK 4,5,2025-05-03,28
STUDY001,LB,STUDY001-SUBJ0007,48,L00048,BILI,Total Bilirubin,CHEMISTRY,0.7,mg/dL,0.1,1.2,0.7,0.7,mg/dL,0.1,1.2,NORMAL,,WEEK 4,5,2025-05-03,28
STUDY001,LB,STUDY001-SUBJ0007,49,L00049,ALP,Alkaline Phosphatase,CHEMISTRY,99.25,U/L,44.0,147.0,99.25,99.25,U/L,44.0,147.0,NORMAL,,WEEK 4,5,2025-05-03,28
STUDY001,LB,STUDY001-SUBJ0007,50,L00050,ALT,Alanine Aminotransferase,CHEMISTRY,37.51,U/L,7.0,56.0,37.51,37.51,U/L,7.0,56.0,NORMAL,,WEEK 4,5,2025-05-03,28
STUDY001,LB,STUDY001-SUBJ0007,51,L00051,HGB,Hemoglobin,HEMATOLOGY,14.74,g/dL,13.5,17.5,14.74,14.74,g/dL,13.5,17.5,NORMAL,,WEEK 8,6,2025-05-31,56
STUDY001,LB,STUDY001-SUBJ0007,52,L00052,HCT,Hematocrit,HEMATOLOGY,48.67,%,41.0,51.0,48.67,48.67,%,41.0,51.0,NORMAL,,WEEK 8,6,2025-05-31,56
STUDY001,LB,STUDY001-SUBJ0007,53,L00053,WBC,White Blood Cell Count,HEMATOLOGY,6.61,10^9/L,4.5,11.0,6.61,6.61,10^9/L,4.5,11.0,NORMAL,,WEEK 8,6,2025-05-31,56
STUDY001,LB,STUDY001-SUBJ0007,54,L00054,PLT,Platelet Count,HEMATOLOGY,298.8,10^9/L,150.0,450.0,298.8,298.8,10^9/L,150.0,450.0,NORMAL,,WEEK 8,6,2025-05-31,56
STUDY001,LB,STUDY001-SUBJ0007,55,L00055,GLUC,Glucose,CHEMISTRY,77.53,mg/dL,70.0,100.0,77.53,77.53,mg/dL,70.0,100.0,NORMAL,,WEEK 8,6,2025-05-31,56
STUDY001,LB,STUDY001-SUBJ0007,56,L00056,BUN,Blood Urea Nitrogen,CHEMISTRY,14.76,mg/dL,7.0,20.0,14.76,14.76,mg/dL,7.0,20.0,NORMAL,,WEEK 8,6,2025-05-31,56
STUDY001,LB,STUDY001-SUBJ0007,57,L00057,CREAT,Creatinine,CHEMISTRY,0.79,mg/dL,0.6,1.2,0.79,0.79,mg/dL,0.6,1.2,NORMAL,,WEEK 8,6,2025-05-31,56
STUDY001,LB,STUDY001-SUBJ0007,58,L00058,BILI,Total Bilirubin,CHEMISTRY,0.66,mg/dL,0.1,1.2,0.66,0.66,mg/dL,0.1,1.2,NORMAL,,WEEK 8,6,2025-05-31,56
STUDY001,LB,STUDY001-SUBJ0007,59,L00059,ALP,Alkaline Phosphatase,CHEMISTRY,95.99,U/L,44.0,147.0,95.99,95.99,U/L,44.0,147.0,NORMAL,,WEEK 8,6,2025-05-31,56
STUDY001,LB,STUDY001-SUBJ0007,60,L00060,ALT,Alanine Aminotransferase,CHEMISTRY,38.61,U/L,7.0,56.0,38.61,38.61,U/L,7.0,56.0,NORMAL,,WEEK 8,6,2025-05-31,56
STUDY001,LB,STUDY001-SUBJ0007,61,L00061,HGB,Hemoglobin,HEMATOLOGY,14.68,g/dL,13.5,17.5,14.68,14.68,g/dL,13.5,17.5,NORMAL,,WEEK 12,7,2025-06-28,84
STUDY001,LB,STUDY001-SUBJ0007,62,L00062,HCT,Hematocrit,HEMATOLOGY,48.6,%,41.0,51.0,48.6,48.6,%,41.0,51.0,NORMAL,,WEEK 12,7,2025-06-28,84
STUDY001,LB,STUDY001-SUBJ0007,63,L00063,WBC,White Blood Cell Count,HEMATOLOGY,6.61,10^9/L,4.5,11.0,6.61,6.61,10^9/L,4.5,11.0,NORMAL,,WEEK 12,7,2025-06-28,84
STUDY001,LB,STUDY001-SUBJ0007,64,L00064,PLT,Platelet Count,HEMATOLOGY,298.69,10^9/L,150.0,450.0,298.69,298.69,10^9/L,150.0,450.0,NORMAL,,WEEK 12,7,2025-06-28,84
STUDY001,LB,STUDY001-SUBJ0007,65,L00065,GLUC,Glucose,CHEMISTRY,75.77,mg/dL,70.0,100.0,75.77,75.77,mg/dL,70.0,100.0,NORMAL,,WEEK 12,7,2025-06-28,84
STUDY001,LB,STUDY001-SUBJ0007,66,L00066,BUN,Blood Urea Nitrogen,CHEMISTRY,14.23,mg/dL,7.0,20.0,14.23,14.23,mg/dL,7.0,20.0,NORMAL,,WEEK 12,7,2025-06-28,84
STUDY001,LB,STUDY001-SUBJ0007,67,L00067,CREAT,Creatinine,CHEMISTRY,0.85,mg/dL,0.6,1.2,0.85,0.85,mg/dL,0.6,1.2,NORMAL,,WEEK 12,7,2025-06-28,84
STUDY001,LB,STUDY001-SUBJ0007,68,L00068,BILI,Total Bilirubin,CHEMISTRY,0.65,mg/dL,0.1,1.2,0.65,0.65,mg/dL,0.1,1.2,NORMAL,,WEEK 12,7,2025-06-28,84
STUDY001,LB,STUDY001-SUBJ0007,69,L00069,ALP,Alkaline Phosphatase,CHEMISTRY,100.38,U/L,44.0,147.0,100.38,100.38,U/L,44.0,147.0,NORMAL,,WEEK 12,7,2025-06-28,84
STUDY001,LB,STUDY001-SUBJ0007,70,L00070,ALT,Alanine Aminotransferase,CHEMISTRY,35.8,U/L,7.0,56.0,35.8,35.8,U/L,7.0,56.0,NORMAL,,WEEK 12,7,2025-06-28,84
STUDY001,LB,STUDY001-SUBJ0007,71,L00071,HGB,Hemoglobin,HEMATOLOGY,14.71,g/dL,13.5,17.5,14.71,14.71,g/dL,13.5,17.5,NORMAL,,WEEK 16,8,2025-07-26,112
STUDY001,LB,STUDY001-SUBJ0007,72,L00072,HCT,Hematocrit,HEMATOLOGY,48.85,%,41.0,51.0,48.85,48.85,%,41.0,51.0,NORMAL,,WEEK 16,8,2025-07-26,112
STUDY001,LB,STUDY001-SUBJ0007,73,L00073,WBC,White Blood Cell Count,HEMATOLOGY,6.67,10^9/L,4.5,11.0,6.67,6.67,10^9/L,4.5,11.0,NORMAL,,WEEK 16,8,2025-07-26,112
STUDY001,LB,STUDY001-SUBJ0007,74,L00074,PLT,Platelet Count,HEMATOLOGY,308.39,10^9/L,150.0,450.0,308.39,308.39,10^9/L,150.0,450.0,NORMAL,,WEEK 16,8,2025-07-26,112
STUDY001,LB,STUDY001-SUBJ0007,75,L00075,GLUC,Glucose,CHEMISTRY,77.52,mg/dL,70.0,100.0,77.52,77.52,mg/dL,70.0,100.0,NORMAL,,WEEK 16,8,2025-07-26,112
STUDY001,LB,STUDY001-SUBJ0007,76,L00076,BUN,Blood Urea Nitrogen,CHEMISTRY,14.37,mg/dL,7.0,20.0,14.37,14.37,mg/dL,7.0,20.0,NORMAL,,WEEK 16,8,2025-07-26,112
STUDY001,LB,STUDY001-SUBJ0007,77,L00077,CREAT,Creatinine,CHEMISTRY,0.81,mg/dL,0.6,1.2,0.81,0.81,mg/dL,0.6,1.2,NORMAL,,WEEK 16,8,2025-07-26,112
STUDY001,LB,STUDY001-SUBJ0007,78,L00078,BILI,Total Bilirubin,CHEMISTRY,0.69,mg/dL,0.1,1.2,0.69,0.69,mg/dL,0.1,1.2,NORMAL,,WEEK 16,8,2025-07-26,112
STUDY001,LB,STUDY001-SUBJ0007,79,L00079,ALP,Alkaline Phosphatase,CHEMISTRY,101.78,U/L,44.0,147.0,101.78,101.78,U/L,44.0,147.0,NORMAL,,WEEK 16,8,2025-07-26,112
STUDY001,LB,STUDY001-SUBJ0007,80,L00080,ALT,Alanine Aminotransferase,CHEMISTRY,36.5,U/L,7.0,56.0,36.5,36.5,U/L,7.0,56.0,NORMAL,,WEEK 16,8,2025-07-26,112
STUDY001,LB,STUDY001-SUBJ0007,81,L00081,HGB,Hemoglobin,HEMATOLOGY,14.58,g/dL,13.5,17.5,14.58,14.58,g/dL,13.5,17.5,NORMAL,,END OF TREATMENT,9,2025-08-23,140
STUDY001,LB,STUDY001-SUBJ0007,82,L00082,HCT,Hematocrit,HEMATOLOGY,48.79,%,41.0,51.0,48.79,48.79,%,41.0,51.0,NORMAL,,END OF TREATMENT,9,2025-08-23,140
STUDY001,LB,STUDY001-SUBJ0007,83,L00083,WBC,White Blood Cell Count,HEMATOLOGY,6.8,10^9/L,4.5,11.0,6.8,6.8,10^9/L,4.5,11.0,NORMAL,,END OF TREATMENT,9,2025-08-23,140
STUDY001,LB,STUDY001-SUBJ0007,84,L00084,PLT,Platelet Count,HEMATOLOGY,291.65,10^9/L,150.0,450.0,291.65,291.65,10^9/L,150.0,450.0,NORMAL,,END OF TREATMENT,9,2025-08-23,140
STUDY001,LB,STUDY001-SUBJ0007,85,L00085,GLUC,Glucose,CHEMISTRY,74.4,mg/dL,70.0,100.0,74.4,74.4,mg/dL,70.0,100.0,NORMAL,,END OF TREATMENT,9,2025-08-23,140
STUDY001,LB,STUDY001-SUBJ0007,86,L00086,BUN,Blood Urea Nitrogen,CHEMISTRY,14.18,mg/dL,7.0,20.0,14.18,14.18,mg/dL,7.0,20.0,NORMAL,,END OF TREATMENT,9,2025-08-23,140
STUDY001,LB,STUDY001-SUBJ0007,87,L00087,CREAT,Creatinine,CHEMISTRY,0.82,mg/dL,0.6,1.2,0.82,0.82,mg/dL,0.6,1.2,NORMAL,,END OF TREATMENT,9,2025-08-23,140
STUDY001,LB,STUDY001-SUBJ0007,88,L00088,BILI,Total Bilirubin,CHEMISTRY,0.69,mg/dL,0.1,1.2,0.69,0.69,mg/dL,0.1,1.2,NORMAL,,END OF TREATMENT,9,2025-08-23,140
STUDY001,LB,STUDY001-SUBJ0007,89,L00089,ALP,Alkaline Phosphatase,CHEMISTRY,104.4,U/L,44.0,147.0,104.4,104.4,U/L,44.0,147.0,NORMAL,,END OF TREATMENT,9,2025-08-23,140
STUDY001,LB,STUDY001-SUBJ0007,90,L00090,ALT,Alanine Aminotransferase,CHEMISTRY,36.58,U/L,7.0,56.0,36.58,36.58,U/L,7.0,56.0,NORMAL,,END OF TREATMENT,9,2025-08-23,140
STUDY001,LB,STUDY001-SUBJ0008,1,L00001,HGB,Hemoglobin,HEMATOLOGY,14.46,g/dL,13.5,17.5,14.46,14.46,g/dL,13.5,17.5,NORMAL,,SCREENING,1,2025-02-18,-14
STUDY001,LB,STUDY001-SUBJ0008,2,L00002,HCT,Hematocrit,HEMATOLOGY,45.77,%,41.0,51.0,45.77,45.77,%,41.0,51.0,NORMAL,,SCREENING,1,2025-02-18,-14
STUDY001,LB,STUDY001-SUBJ0008,3,L00003,WBC,White Blood Cell Count,HEMATOLOGY,5.01,10^9/L,4.5,11.0,5.01,5.01,10^9/L,4.5,11.0,NORMAL,,SCREENING,1,2025-02-18,-14
STUDY001,LB,STUDY001-SUBJ0008,4,L00004,PLT,Platelet Count,HEMATOLOGY,287.1,10^9/L,150.0,450.0,287.1,287.1,10^9/L,150.0,450.0,NORMAL,,SCREENING,1,2025-02-18,-14
STUDY001,LB,STUDY001-SUBJ0008,5,L00005,GLUC,Glucose,CHEMISTRY,74.2,mg/dL,70.0,100.0,74.2,74.2,mg/dL,70.0,100.0,NORMAL,,SCREENING,1,2025-02-18,-14
STUDY001,LB,STUDY001-SUBJ0008,6,L00006,BUN,Blood Urea Nitrogen,CHEMISTRY,12.22,mg/dL,7.0,20.0,12.22,12.22,mg/dL,7.0,20.0,NORMAL,,SCREENING,1,2025-02-18,-14
STUDY001,LB,STUDY001-SUBJ0008,7,L00007,CREAT,Creatinine,CHEMISTRY,0.96,mg/dL,0.6,1.2,0.96,0.96,mg/dL,0.6,1.2,NORMAL,,SCREENING,1,2025-02-18,-14
STUDY001,LB,STUDY001-SUBJ0008,8,L00008,BILI,Total Bilirubin,CHEMISTRY,0.54,mg/dL,0.1,1.2,0.54,0.54,mg/dL,0.1,1.2,NORMAL,,SCREENING,1,2025-02-18,-14
STUDY001,LB,STUDY001-SUBJ0008,9,L00009,ALP,Alkaline Phosphatase,CHEMISTRY,106.38,U/L,44.0,147.0,106.38,106.38,U/L,44.0,147.0,NORMAL,,SCREENING,1,2025-02-18,-14
STUDY001,LB,STUDY001-SUBJ0008,10,L00010,ALT,Alanine Aminotransferase,CHEMISTRY,21.28,U/L,7.0,56.0,21.28,21.28,U/L,7.0,56.0,NORMAL,,SCREENING,1,2025-02-18,-14
STUDY001,LB,STUDY001-SUBJ0008,11,L00011,HGB,Hemoglobin,HEMATOLOGY,14.54,g/dL,13.5,17.5,14.54,14.54,g/dL,13.5,17.5,NORMAL,Y,BASELINE,2,2025-03-04,1
STUDY001,LB,STUDY001-SUBJ0008,12,L00012,HCT,Hematocrit,HEMATOLOGY,45.57,%,41.0,51.0,45.57,45.57,%,41.0,51.0,NORMAL,Y,BASELINE,2,2025-03-04,1
STUDY001,LB,STUDY001-SUBJ0008,13,L00013,WBC,White Blood Cell Count,HEMATOLOGY,5.03,10^9/L,4.5,11.0,5.03,5.03,10^9/L,4.5,11.0,NORMAL,Y,BASELINE,2,2025-03-04,1
STUDY001,LB,STUDY001-SUBJ0008,14,L00014,PLT,Platelet Count,HEMATOLOGY,280.18,10^9/L,150.0,450.0,280.18,280.18,10^9/L,150.0,450.0,NORMAL,Y,BASELINE,2,2025-03-04,1
STUDY001,LB,STUDY001-SUBJ0008,15,L00015,GLUC,Glucose,CHEMISTRY,72.07,mg/dL,70.0,100.0,72.07,72.07,mg/dL,70.0,100.0,NORMAL,Y,BASELINE,2,2025-03-04,1
STUDY001,LB,STUDY001-SUBJ0008,16,L00016,BUN,Blood Urea Nitrogen,CHEMISTRY,11.85,mg/dL,7.0,20.0,11.85,11.85,mg/dL,7.0,20.0,NORMAL,Y,BASELINE,2,2025-03-04,1
STUDY001,LB,STUDY001-SUBJ0008,17,L00017,CREAT,Creatinine,CHEMISTRY,0.95,mg/dL,0.6,1.2,0.95,0.95,mg/dL,0.6,1.2,NORMAL,Y,BASELINE,2,2025-03-04,1
STUDY001,LB,STUDY001-SUBJ0008,18,L00018,BILI,Total Bilirubin,CHEMISTRY,0.56,mg/dL,0.1,1.2,0.56,0.56,mg/dL,0.1,1.2,NORMAL,Y,BASELINE,2,2025-03-04,1
STUDY001,LB,STUDY001-SUBJ0008,19,L00019,ALP,Alkaline Phosphatase,CHEMISTRY,104.39,U/L,44.0,147.0,104.39,104.39,U/L,44.0,147.0,NORMAL,Y,BASELINE,2,2025-03-04,1
STUDY001,LB,STUDY001-SUBJ0008,20,L00020,ALT,Alanine Aminotransferase,CHEMISTRY,24.04,U/L,7.0,56.0,24.04,24.04,U/L,7.0,56.0,NORMAL,Y,BASELINE,2,2025-03-04,1
STUDY001,LB,STUDY001-SUBJ0008,21,L00021,HGB,Hemoglobin,HEMATOLOGY,14.35,g/dL,13.5,17.5,14.35,14.35,g/dL,13.5,17.5,NORMAL,,WEEK 1,3,2025-03-10,7
STUDY001,LB,STUDY001-SUBJ0008,22,L00022,HCT,Hematocrit,HEMATOLOGY,45.7,%,41.0,51.0,45.7,45.7,%,41.0,51.0,NORMAL,,WEEK 1,3,2025-03-10,7
STUDY001,LB,STUDY001-SUBJ0008,23,L00023,WBC,White Blood Cell Count,HEMATOLOGY,5.03,10^9/L,4.5,11.0,5.03,5.03,10^9/L,4.5,11.0,NORMAL,,WEEK 1,3,2025-03-10,7
STUDY001,LB,STUDY001-SUBJ0008,24,L00024,PLT,Platelet Count,HEMATOLOGY,281.11,10^9/L,150.0,450.0,281.11,281.11,10^9/L,150.0,450.0,NORMAL,,WEEK 1,3,2025-03-10,7
STUDY001,LB,STUDY001-SUBJ0008,25,L00025,GLUC,Glucose,CHEMISTRY,72.39,mg/dL,70.0,100.0,72.39,72.39,mg/dL,70.0,100.0,NORMAL,,WEEK 1,3,2025-03-10,7
STUDY001,LB,STUDY001-SUBJ0008,26,L00026,BUN,Blood Urea Nitrogen,CHEMISTRY,12.34,mg/dL,7.0,20.0,12.34,12.34,mg/dL,7.0,20.0,NORMAL,,WEEK 1,3,2025-03-10,7
STUDY001,LB,STUDY001-SUBJ0008,27,L00027,CREAT,Creatinine,CHEMISTRY,0.94,mg/dL,0.6,1.2,0.94,0.94,mg/dL,0.6,1.2,NORMAL,,WEEK 1,3,2025-03-10,7
STUDY001,LB,STUDY001-SUBJ0008,28,L00028,BILI,Total Bilirubin,CHEMISTRY,0.55,mg/dL,0.1,1.2,0.55,0.55,mg/dL,0.1,1.2,NORMAL,,WEEK 1,3,2025-03-10,7
STUDY001,LB,STUDY001-SUBJ0008,29,L00029,ALP,Alkaline Phosphatase,CHEMISTRY,106.97,U/L,44.0,147.0,106.97,106.97,U/L,44.0,147.0,NORMAL,,WEEK 1,3,2025-03-10,7
STUDY001,LB,STUDY001-SUBJ0008,30,L00030,ALT,Alanine Aminotransferase,CHEMISTRY,20.13,U/L,7.0,56.0,20.13,20.13,U/L,7.0,56.0,NORMAL,,WEEK 1,3,2025-03-10,7
STUDY001,LB,STUDY001-SUBJ0008,31,L00031,HGB,Hemoglobin,HEMATOLOGY,14.11,g/dL,13.5,17.5,14.11,14.11,g/dL,13.5,17.5,NORMAL,,WEEK 2,4,2025-03-17,14
STUDY001,LB,STUDY001-SUBJ0008,32,L00032,HCT,Hematocrit,HEMATOLOGY,45.48,%,41.0,51.0,45.48,45.48,%,41.0,51.0,NORMAL,,WEEK 2,4,2025-03-17,14
STUDY001,LB,STUDY001-SUBJ0008,33,L00033,WBC,White Blood Cell Count,HEMATOLOGY,5.2,10^9/L,4.5,11.0,5.2,5.2,10^9/L,4.5,11.0,NORMAL,,WEEK 2,4,2025-03-17,14
STUDY001,LB,STUDY001-SUBJ0008,34,L00034,PLT,Platelet Count,HEMATOLOGY,275.63,10^9/L,150.0,450.0,275.63,275.63,10^9/L,150.0,450.0,NORMAL,,WEEK 2,4,2025-03-17,14
STUDY001,LB,STUDY001-SUBJ0008,35,L00035,GLUC,Glucose,CHEMISTRY,75.19,mg/dL,70.0,100.0,75.19,75.19,mg/dL,70.0,100.0,NORMAL,,WEEK 2,4,2025-03-17,14
STUDY001,LB,STUDY001-SUBJ0008,36,L00036,BUN,Blood Urea Nitrogen,CHEMISTRY,12.37,mg/dL,7.0,20.0,12.37,12.37,mg/dL,7.0,20.0,NORMAL,,WEEK 2,4,2025-03-17,14
STUDY001,LB,STUDY001-SUBJ0008,37,L00037,CREAT,Creatinine,CHEMISTRY,0.94,mg/dL,0.6,1.2,0.94,0.94,mg/dL,0.6,1.2,NORMAL,,WEEK 2,4,2025-03-17,14
STUDY001,LB,STUDY001-SUBJ0008,38,L00038,BILI,Total Bilirubin,CHEMISTRY,0.5,mg/dL,0.1,1.2,0.5,0.5,mg/dL,0.1,1.2,NORMAL,,WEEK 2,4,2025-03-17,14
STUDY001,LB,STUDY001-SUBJ0008,39,L00039,ALP,Alkaline Phosphatase,CHEMISTRY,104.9,U/L,44.0,147.0,104.9,104.9,U/L,44.0,147.0,NORMAL,,WEEK 2,4,2025-03-17,14
STUDY001,LB,STUDY001-SUBJ0008,40,L00040,ALT,Alanine Aminotransferase,CHEMISTRY,21.28,U/L,7.0,56.0,21.28,21.28,U/L,7.0,56.0,NORMAL,,WEEK 2,4,2025-03-17,14
STUDY001,LB,STUDY001-SUBJ0008,41,L00041,HGB,Hemoglobin,HEMATOLOGY,14.21,g/dL,13.5,17.5,14.21,14.21,g/dL,13.5,17.5,NORMAL,,WEEK 4,5,2025-03-31,28
STUDY001,LB,STUDY001-SUBJ0008,42,L00042,HCT,Hematocrit,HEMATOLOGY,45.65,%,41.0,51.0,45.65,45.65,%,41.0,51.0,NORMAL,,WEEK 4,5,2025-03-31,28
STUDY001,LB,STUDY001-SUBJ0008,43,L00043,WBC,White Blood Cell Count,HEMATOLOGY,5.11,10^9/L,4.5,11.0,5.11,5.11,10^9/L,4.5,11.0,NORMAL,,WEEK 4,5,2025-03-31,28
STUDY001,LB,STUDY001-SUBJ0008,44,L00044,PLT,Platelet Count,HEMATOLOGY,292.8,10^9/L,150.0,450.0,292.8,292.8,10^9/L,150.0,450.0,NORMAL,,WEEK 4,5,2025-03-31,28
STUDY001,LB,STUDY001-SUBJ0008,45,L00045,GLUC,Glucose,CHEMISTRY,73.55,mg/dL,70.0,100.0,73.55,73.55,mg/dL,70.0,100.0,NORMAL,,WEEK 4,5,2025-03-31,28
STUDY001,LB,STUDY001-SUBJ0008,46,L00046,BUN,Blood Urea Nitrogen,CHEMISTRY,12.49,mg/dL,7.0,20.0,12.49,12.49,mg/dL,7.0,20.0,NORMAL,,WEEK 4,5,2025-03-31,28
STUDY001,LB,STUDY001-SUBJ0008,47,L00047,CREAT,Creatinine,CHEMISTRY,0.96,mg/dL,0.6,1.2,0.96,0.96,mg/dL,0.6,1.2,NORMAL,,WEEK 4,5,2025-03-31,28
STUDY001,LB,STUDY001-SUBJ0008,48,L00048,BILI,Total Bilirubin,CHEMISTRY,0.52,mg/dL,0.1,1.2,0.52,0.52,mg/dL,0.1,1.2,NORMAL,,WEEK 4,5,2025-03-31,28
STUDY001,LB,STUDY001-SUBJ0008,49,L00049,ALP,Alkaline Phosphatase,CHEMISTRY,104.85,U/L,44.0,147.0,104.85,104.85,U/L,44.0,147.0,NORMAL,,WEEK 4,5,2025-03-31,28
STUDY001,LB,STUDY001-SUBJ0008,50,L00050,ALT,Alanine Aminotransferase,CHEMISTRY,21.86,U/L,7.0,56.0,21.86,21.86,U/L,7.0,56.0,NORMAL,,WEEK 4,5,2025-03-31,28
STUDY001,LB,STUDY001-SUBJ0008,51,L00051,HGB,Hemoglobin,HEMATOLOGY,14.12,g/dL,13.5,17.5,14.12,14.12,g/dL,13.5,17.5,NORMAL,,WEEK 8,6,2025-04-28,56
STUDY001,LB,STUDY001-SUBJ0008,52,L00052,HCT,Hematocrit,HEMATOLOGY,45.9,%,41.0,51.0,45.9,45.9,%,41.0,51.0,NORMAL,,WEEK 8,6,2025-04-28,56
STUDY001,LB,STUDY001-SUBJ0008,53,L00053,WBC,White Blood Cell Count,HEMATOLOGY,4.93,10^9/L,4.5,11.0,4.93,4.93,10^9/L,4.5,11.0,NORMAL,,WEEK 8,6,2025-04-28,56
STUDY001,LB,STUDY001-SUBJ0008,54,L00054,PLT,Platelet Count,HEMATOLOGY,279.05,10^9/L,150.0,450.0,279.05,279.05,10^9/L,150.0,450.0,NORMAL,,WEEK 8,6,2025-04-28,56
STUDY001,LB,STUDY001-SUBJ0008,55,L00055,GLUC,Glucose,CHEMISTRY,71.48,mg/dL,70.0,100.0,71.48,71.48,mg/dL,70.0,100.0,NORMAL,,WEEK 8,6,2025-04-28,56
STUDY001,LB,STUDY001-SUBJ0008,56,L00056,BUN,Blood Urea Nitrogen,CHEMISTRY,12.01,mg/dL,7.0,20.0,12.01,12.01,mg/dL,7.0,20.0,NORMAL,,WEEK 8,6,2025-04-28,56
STUDY001,LB,STUDY001-SUBJ0008,57,L00057,CREAT,Creatinine,CHEMISTRY,0.96,mg/dL,0.6,1.2,0.96,0.96,mg/dL,0.6,1.2,NORMAL,,WEEK 8,6,2025-04-28,56
STUDY001,LB,STUDY001-SUBJ0008,58,L00058,BILI,Total Bilirubin,CHEMISTRY,0.56,mg/dL,0.1,1.2,0.56,0.56,mg/dL,0.1,1.2,NORMAL,,WEEK 8,6,2025-04-28,56
STUDY001,LB,STUDY001-SUBJ0008,59,L00059,ALP,Alkaline Phosphatase,CHEMISTRY,102.85,U/L,44.0,147.0,102.85,102.85,U/L,44.0,147.0,NORMAL,,WEEK 8,6,2025-04-28,56
STUDY001,LB,STUDY001-SUBJ0008,60,L00060,ALT,Alanine Aminotransferase,CHEMISTRY,20.86,U/L,7.0,56.0,20.86,20.86,U/L,7.0,56.0,NORMAL,,WEEK 8,6,2025-04-28,56
STUDY001,LB,STUDY001-SUBJ0008,61,L00061,HGB,Hemoglobin,HEMATOLOGY,14.23,g/dL,13.5,17.5,14.23,14.23,g/dL,13.5,17.5,NORMAL,,WEEK 12,7,2025-05-26,84
STUDY001,LB,STUDY001-SUBJ0008,62,L00062,HCT,Hematocrit,HEMATOLOGY,45.62,%,41.0,51.0,45.62,45.62,%,41.0,51.0,NORMAL,,WEEK 12,7,2025-05-26,84
STUDY001,LB,STUDY001-SUBJ0008,63,L00063,WBC,White Blood Cell Count,HEMATOLOGY,4.82,10^9/L,4.5,11.0,4.82,4.82,10^9/L,4.5,11.0,NORMAL,,WEEK 12,7,2025-05-26,84
STUDY001,LB,STUDY001-SUBJ0008,64,L00064,PLT,Platelet Count,HEMATOLOGY,272.45,10^9/L,150.0,450.0,272.45,272.45,10^9/L,150.0,450.0,NORMAL,,WEEK 12,7,2025-05-26,84
STUDY001,LB,STUDY001-SUBJ0008,65,L00065,GLUC,Glucose,CHEMISTRY,72.86,mg/dL,70.0,100.0,72.86,72.86,mg/dL,70.0,100.0,NORMAL,,WEEK 12,7,2025-05-26,84
STUDY001,LB,STUDY001-SUBJ0008,66,L00066,BUN,Blood Urea Nitrogen,CHEMISTRY,12.3,mg/dL,7.0,20.0,12.3,12.3,mg/dL,7.0,20.0,NORMAL,,WEEK 12,7,2025-05-26,84
STUDY001,LB,STUDY001-SUBJ0008,67,L00067,CREAT,Creatinine,CHEMISTRY,0.96,mg/dL,0.6,1.2,0.96,0.96,mg/dL,0.6,1.2,NORMAL,,WEEK 12,7,2025-05-26,84
STUDY001,LB,STUDY001-SUBJ0008,68,L00068,BILI,Total Bilirubin,CHEMISTRY,0.53,mg/dL,0.1,1.2,0.53,0.53,mg/dL,0.1,1.2,NORMAL,,WEEK 12,7,2025-05-26,84
STUDY001,LB,STUDY001-SUBJ0008,69,L00069,ALP,Alkaline Phosphatase,CHEMISTRY,107.67,U/L,44.0,147.0,107.67,107.67,U/L,44.0,147.0,NORMAL,,WEEK 12,7,2025-05-26,84
STUDY001,LB,STUDY001-SUBJ0008,70,L00070,ALT,Alanine Aminotransferase,CHEMISTRY,21.22,U/L,7.0,56.0,21.22,21.22,U/L,7.0,56.0,NORMAL,,WEEK 12,7,2025-05-26,84
STUDY001,LB,STUDY001-SUBJ0008,71,L00071,HGB,Hemoglobin,HEMATOLOGY,14.19,g/dL,13.5,17.5,14.19,14.19,g/dL,13.5,17.5,NORMAL,,WEEK 16,8,2025-06-23,112
STUDY001,LB,STUDY001-SUBJ0008,72,L00072,HCT,Hematocrit,HEMATOLOGY,45.99,%,41.0,51.0,45.99,45.99,%,41.0,51.0,NORMAL,,WEEK 16,8,2025-06-23,112
STUDY001,LB,STUDY001-SUBJ0008,73,L00073,WBC,White Blood Cell Count,HEMATOLOGY,5.05,10^9/L,4.5,11.0,5.05,5.05,10^9/L,4.5,11.0,NORMAL,,WEEK 16,8,2025-06-23,112
STUDY001,LB,STUDY001-SUBJ0008,74,L00074,PLT,Platelet Count,HEMATOLOGY,274.1,10^9/L,150.0,450.0,274.1,274.1,10^9/L,150.0,450.0,NORMAL,,WEEK 16,8,2025-06-23,112
STUDY001,LB,STUDY001-SUBJ0008,75,L00075,GLUC,Glucose,CHEMISTRY,73.84,mg/dL,70.0,100.0,73.84,73.84,mg/dL,70.0,100.0,NORMAL,,WEEK 16,8,2025-06-23,112
STUDY001,LB,STUDY001-SUBJ0008,76,L00076,BUN,Blood Urea Nitrogen,CHEMISTRY,12.29,mg/dL,7.0,20.0,12.29,12.29,mg/dL,7.0,20.0,NORMAL,,WEEK 16,8,2025-06-23,112
STUDY001,LB,STUDY001-SUBJ0008,77,L00077,CREAT,Creatinine,CHEMISTRY,0.96,mg/dL,0.6,1.2,0.96,0.96,mg/dL,0.6,1.2,NORMAL,,WEEK 16,8,2025-06-23,112
STUDY001,LB,STUDY001-SUBJ0008,78,L00078,BILI,Total Bilirubin,CHEMISTRY,0.58,mg/dL,0.1,1.2,0.58,0.58,mg/dL,0.1,1.2,NORMAL,,WEEK 16,8,2025-06-23,112
STUDY001,LB,STUDY001-SUBJ0008,79,L00079,ALP,Alkaline Phosphatase,CHEMISTRY,105.85,U/L,44.0,147.0,105.85,105.85,U/L,44.0,147.0,NORMAL,,WEEK 16,8,2025-06-23,112
STUDY001,LB,STUDY001-SUBJ0008,80,L00080,ALT,Alanine Aminotransferase,CHEMISTRY,20.56,U/L,7.0,56.0,20.56,20.56,U/L,7.0,56.0,NORMAL,,WEEK 16,8,2025-06-23,112
STUDY001,LB,STUDY001-SUBJ0008,81,L00081,HGB,Hemoglobin,HEMATOLOGY,14.32,g/dL,13.5,17.5,14.32,14.32,g/dL,13.5,17.5,NORMAL,,END OF TREATMENT,9,2025-07-21,140
STUDY001,LB,STUDY001-SUBJ0008,82,L00082,HCT,Hematocrit,HEMATOLOGY,45.78,%,41.0,51.0,45.78,45.78,%,41.0,51.0,NORMAL,,END OF TREATMENT,9,2025-07-21,140
STUDY001,LB,STUDY001-SUBJ0008,83,L00083,WBC,White Blood Cell Count,HEMATOLOGY,4.69,10^9/L,4.5,11.0,4.69,4.69,10^9/L,4.5,11.0,NORMAL,,END OF TREATMENT,9,2025-07-21,140
STUDY001,LB,STUDY001-SUBJ0008,84,L00084,PLT,Platelet Count,HEMATOLOGY,274.89,10^9/L,150.0,450.0,274.89,274.89,10^9/L,150.0,450.0,NORMAL,,END OF TREATMENT,9,2025-07-21,140
STUDY001,LB,STUDY001-SUBJ0008,85,L00085,GLUC,Glucose,CHEMISTRY,74.71,mg/dL,70.0,100.0,74.71,74.71,mg/dL,70.0,100.0,NORMAL,,END OF TREATMENT,9,2025-07-21,140
STUDY001,LB,STUDY001-SUBJ0008,86,L00086,BUN,Blood Urea Nitrogen,CHEMISTRY,12.54,mg/dL,7.0,20.0,12.54,12.54,mg/dL,7.0,20.0,NORMAL,,END OF TREATMENT,9,2025-07-21,140
STUDY001,LB,STUDY001-SUBJ0008,87,L00087,CREAT,Creatinine,CHEMISTRY,0.92,mg/dL,0.6,1.2,0.92,0.92,mg/dL,0.6,1.2,NORMAL,,END OF TREATMENT,9,2025-07-21,140
STUDY001,LB,STUDY001-SUBJ0008,88,L00088,BILI,Total Bilirubin,CHEMISTRY,0.53,mg/dL,0.1,1.2,0.53,0.53,mg/dL,0.1,1.2,NORMAL,,END OF TREATMENT,9,2025-07-21,140
STUDY001,LB,STUDY001-SUBJ0008,89,L00089,ALP,Alkaline Phosphatase,CHEMISTRY,103.48,U/L,44.0,147.0,103.48,103.48,U/L,44.0,147.0,NORMAL,,END OF TREATMENT,9,2025-07-21,140
STUDY001,LB,STUDY001-SUBJ0008,90,L00090,ALT,Alanine Aminotransferase,CHEMISTRY,20.16,U/L,7.0,56.0,20.16,20.16,U/L,7.0,56.0,NORMAL,,END OF TREATMENT,9,2025-07-21,140
STUDY001,LB,STUDY001-SUBJ0009,1,L00001,HGB,Hemoglobin,HEMATOLOGY,16.17,g/dL,13.5,17.5,16.17,16.17,g/dL,13.5,17.5,NORMAL,,SCREENING,1,2025-02-25,-14
STUDY001,LB,STUDY001-SUBJ0009,2,L00002,HCT,Hematocrit,HEMATOLOGY,39.55,%,41.0,51.0,39.55,39.55,%,41.0,51.0,LOW,,SCREENING,1,2025-02-25,-14
STUDY001,LB,STUDY001-SUBJ0009,3,L00003,WBC,White Blood Cell Count,HEMATOLOGY,6.03,10^9/L,4.5,11.0,6.03,6.03,10^9/L,4.5,11.0,NORMAL,,SCREENING,1,2025-02-25,-14
STUDY001,LB,STUDY001-SUBJ0009,4,L00004,PLT,Platelet Count,HEMATOLOGY,341.16,10^9/L,150.0,450.0,341.16,341.16,10^9/L,150.0,450.0,NORMAL,,SCREENING,1,2025-02-25,-14
STUDY001,LB,STUDY001-SUBJ0009,5,L00005,GLUC,Glucose,CHEMISTRY,82.19,mg/dL,70.0,100.0,82.19,82.19,mg/dL,70.0,100.0,NORMAL,,SCREENING,1,2025-02-25,-14
STUDY001,LB,STUDY001-SUBJ0009,6,L00006,BUN,Blood Urea Nitrogen,CHEMISTRY,15.83,mg/dL,7.0,20.0,15.83,15.83,mg/dL,7.0,20.0,NORMAL,,SCREENING,1,2025-02-25,-14
STUDY001,LB,STUDY001-SUBJ0009,7,L00007,CREAT,Creatinine,CHEMISTRY,0.75,mg/dL,0.6,1.2,0.75,0.75,mg/dL,0.6,1.2,NORMAL,,SCREENING,1,2025-02-25,-14
STUDY001,LB,STUDY001-SUBJ0009,8,L00008,BILI,Total Bilirubin,CHEMISTRY,0.77,mg/dL,0.1,1.2,0.77,0.77,mg/dL,0.1,1.2,NORMAL,,SCREENING,1,2025-02-25,-14
STUDY001,LB,STUDY001-SUBJ0009,9,L00009,ALP,Alkaline Phosphatase,CHEMISTRY,97.54,U/L,44.0,147.0,97.54,97.54,U/L,44.0,147.0,NORMAL,,SCREENING,1,2025-02-25,-14
STUDY001,LB,STUDY001-SUBJ0009,10,L00010,ALT,Alanine Aminotransferase,CHEMISTRY,43.14,U/L,7.0,56.0,43.14,43.14,U/L,7.0,56.0,NORMAL,,SCREENING,1,2025-02-25,-14
STUDY001,LB,STUDY001-SUBJ0009,11,L00011,HGB,Hemoglobin,HEMATOLOGY,16.21,g/dL,13.5,17.5,16.21,16.21,g/dL,13.5,17.5,NORMAL,Y,BASELINE,2,2025-03-11,1
STUDY001,LB,STUDY001-SUBJ0009,12,L00012,HCT,Hematocrit,HEMATOLOGY,39.76,%,41.0,51.0,39.76,39.76,%,41.0,51.0,LOW,Y,BASELINE,2,2025-03-11,1
STUDY001,LB,STUDY001-SUBJ0009,13,L00013,WBC,White Blood Cell Count,HEMATOLOGY,5.93,10^9/L,4.5,11.0,5.93,5.93,10^9/L,4.5,11.0,NORMAL,Y,BASELINE,2,2025-03-11,1
STUDY001,LB,STUDY001-SUBJ0009,14,L00014,PLT,Platelet Count,HEMATOLOGY,341.82,10^9/L,150.0,450.0,341.82,341.82,10^9/L,150.0,450.0,NORMAL,Y,BASELINE,2,2025-03-11,1
STUDY001,LB,STUDY001-SUBJ0009,15,L00015,GLUC,Glucose,CHEMISTRY,79.63,mg/dL,70.0,100.0,79.63,79.63,mg/dL,70.0,100.0,NORMAL,Y,BASELINE,2,2025-03-11,1
STUDY001,LB,STUDY001-SUBJ0009,16,L00016,BUN,Blood Urea Nitrogen,CHEMISTRY,15.15,mg/dL,7.0,20.0,15.15,15.15,mg/dL,7.0,20.0,NORMAL,Y,BASELINE,2,2025-03-11,1
STUDY001,LB,STUDY001-SUBJ0009,17,L00017,CREAT,Creatinine,CHEMISTRY,0.75,mg/dL,0.6,1.2,0.75,0.75,mg/dL,0.6,1.2,NORMAL,Y,BASELINE,2,2025-03-11,1
STUDY001,LB,STUDY001-SUBJ0009,18,L00018,BILI,Total Bilirubin,CHEMISTRY,0.75,mg/dL,0.1,1.2,0.75,0.75,mg/dL,0.1,1.2,NORMAL,Y,BASELINE,2,2025-03-11,1
STUDY001,LB,STUDY001-SUBJ0009,19,L00019,ALP,Alkaline Phosphatase,CHEMISTRY,96.67,U/L,44.0,147.0,96.67,96.67,U/L,44.0,147.0,NORMAL,Y,BASELINE,2,2025-03-11,1
STUDY001,LB,STUDY001-SUBJ0009,20,L00020,ALT,Alanine Aminotransferase,CHEMISTRY,39.69,U/L,7.0,56.0,39.69,39.69,U/L,7.0,56.0,NORMAL,Y,BASELINE,2,2025-03-11,1
STUDY001,LB,STUDY001-SUBJ0009,21,L00021,HGB,Hemoglobin,HEMATOLOGY,16.25,g/dL,13.5,17.5,16.25,16.25,g/dL,13.5,17.5,NORMAL,,WEEK 1,3,2025-03-17,7
STUDY001,LB,STUDY001-SUBJ0009,22,L00022,HCT,Hematocrit,HEMATOLOGY,39.99,%,41.0,51.0,39.99,39.99,%,41.0,51.0,LOW,,WEEK 1,3,2025-03-17,7
STUDY001,LB,STUDY001-SUBJ0009,23,L00023,WBC,White Blood Cell Count,HEMATOLOGY,5.82,10^9/L,4.5,11.0,5.82,5.82,10^9/L,4.5,11.0,NORMAL,,WEEK 1,3,2025-03-17,7
STUDY001,LB,STUDY001-SUBJ0009,24,L00024,PLT,Platelet Count,HEMATOLOGY,341.07,10^9/L,150.0,450.0,341.07,341.07,10^9/L,150.0,450.0,NORMAL,,WEEK 1,3,2025-03-17,7
STUDY001,LB,STUDY001-SUBJ0009,25,L00025,GLUC,Glucose,CHEMISTRY,82.64,mg/dL,70.0,100.0,82.64,82.64,mg/dL,70.0,100.0,NORMAL,,WEEK 1,3,2025-03-17,7
STUDY001,LB,STUDY001-SUBJ0009,26,L00026,BUN,Blood Urea Nitrogen,CHEMISTRY,15.29,mg/dL,7.0,20.0,15.29,15.29,mg/dL,7.0,20.0,NORMAL,,WEEK 1,3,2025-03-17,7
STUDY001,LB,STUDY001-SUBJ0009,27,L00027,CREAT,Creatinine,CHEMISTRY,0.75,mg/dL,0.6,1.2,0.75,0.75,mg/dL,0.6,1.2,NORMAL,,WEEK 1,3,2025-03-17,7
STUDY001,LB,STUDY001-SUBJ0009,28,L00028,BILI,Total Bilirubin,CHEMISTRY,0.71,mg/dL,0.1,1.2,0.71,0.71,mg/dL,0.1,1.2,NORMAL,,WEEK 1,3,2025-03-17,7
STUDY001,LB,STUDY001-SUBJ0009,29,L00029,ALP,Alkaline Phosphatase,CHEMISTRY,95.71,U/L,44.0,147.0,95.71,95.71,U/L,44.0,147.0,NORMAL,,WEEK 1,3,2025-03-17,7
STUDY001,LB,STUDY001-SUBJ0009,30,L00030,ALT,Alanine Aminotransferase,CHEMISTRY,42.9,U/L,7.0,56.0,42.9,42.9,U/L,7.0,56.0,NORMAL,,WEEK 1,3,2025-03-17,7
STUDY001,LB,STUDY001-SUBJ0009,31,L00031,HGB,Hemoglobin,HEMATOLOGY,16.24,g/dL,13.5,17.5,16.24,16.24,g/dL,13.5,17.5,NORMAL,,WEEK 2,4,2025-03-24,14
STUDY001,LB,STUDY001-SUBJ0009,32,L00032,HCT,Hematocrit,HEMATOLOGY,39.88,%,41.0,51.0,39.88,39.88,%,41.0,51.0,LOW,,WEEK 2,4,2025-03-24,14
STUDY001,LB,STUDY001-SUBJ0009,33,L00033,WBC,White Blood Cell Count,HEMATOLOGY,5.73,10^9/L,4.5,11.0,5.73,5.73,10^9/L,4.5,11.0,NORMAL,,WEEK 2,4,2025-03-24,14
STUDY001,LB,STUDY001-SUBJ0009,34,L00034,PLT,Platelet Count,HEMATOLOGY,339.68,10^9/L,150.0,450.0,339.68,339.68,10^9/L,150.0,450.0,NORMAL,,WEEK 2,4,2025-03-24,14
STUDY001,LB,STUDY001-SUBJ0009,35,L00035,GLUC,Glucose,CHEMISTRY,81.03,mg/dL,70.0,100.0,81.03,81.03,mg/dL,70.0,100.0,NORMAL,,WEEK 2,4,2025-03-24,14
STUDY001,LB,STUDY001-SUBJ0009,36,L00036,BUN,Blood Urea Nitrogen,CHEMISTRY,15.53,mg/dL,7.0,20.0,15.53,15.53,mg/dL,7.0,20.0,NORMAL,,WEEK 2,4,2025-03-24,14
STUDY001,LB,STUDY001-SUBJ0009,37,L00037,CREAT,Creatinine,CHEMISTRY,0.72,mg/dL,0.6,1.2,0.72,0.72,mg/dL,0.6,1.2,NORMAL,,WEEK 2,4,2025-03-24,14
STUDY001,LB,STUDY001-SUBJ0009,38,L00038,BILI,Total Bilirubin,CHEMISTRY,0.77,mg/dL,0.1,1.2,0.77,0.77,mg/dL,0.1,1.2,NORMAL,,WEEK 2,4,2025-03-24,14
STUDY001,LB,STUDY001-SUBJ0009,39,L00039,ALP,Alkaline Phosphatase,CHEMISTRY,100.1,U/L,44.0,147.0,100.1,100.1,U/L,44.0,147.0,NORMAL,,WEEK 2,4,2025-03-24,14
STUDY001,LB,STUDY001-SUBJ0009,40,L00040,ALT,Alanine Aminotransferase,CHEMISTRY,41.07,U/L,7.0,56.0,41.07,41.07,U/L,7.0,56.0,NORMAL,,WEEK 2,4,2025-03-24,14
STUDY001,LB,STUDY001-SUBJ0009,41,L00041,HGB,Hemoglobin,HEMATOLOGY,16.48,g/dL,13.5,17.5,16.48,16.48,g/dL,13.5,17.5,NORMAL,,WEEK 4,5,2025-04-07,28
STUDY001,LB,STUDY001-SUBJ0009,42,L00042,HCT,Hematocrit,HEMATOLOGY,39.43,%,41.0,51.0,39.43,39.43,%,41.0,51.0,LOW,,WEEK 4,5,2025-04-07,28
STUDY001,LB,STUDY001-SUBJ0009,43,L00043,WBC,White Blood Cell Count,HEMATOLOGY,5.97,10^9/L,4.5,11.0,5.97,5.97,10^9/L,4.5,11.0,NORMAL,,WEEK 4,5,2025-04-07,28
STUDY001,LB,STUDY001-SUBJ0009,44,L00044,PLT,Platelet Count,HEMATOLOGY,331.92,10^9/L,150.0,450.0,331.92,331.92,10^9/L,150.0,450.0,NORMAL,,WEEK 4,5,2025-04-07,28
STUDY001,LB,STUDY001-SUBJ0009,45,L00045,GLUC,Glucose,CHEMISTRY,81.48,mg/dL,70.0,100.0,81.48,81.48,mg/dL,70.0,100.0,NORMAL,,WEEK 4,5,2025-04-07,28
STUDY001,LB,STUDY001-SUBJ0009,46,L00046,BUN,Blood Urea Nitrogen,CHEMISTRY,15.6,mg/dL,7.0,20.0,15.6,15.6,mg/dL,7.0,20.0,NORMAL,,WEEK 4,5,2025-04-07,28
STUDY001,LB,STUDY001-SUBJ0009,47,L00047,CREAT,Creatinine,CHEMISTRY,0.74,mg/dL,0.6,1.2,0.74,0.74,mg/dL,0.6,1.2,NORMAL,,WEEK 4,5,2025-04-07,28
STUDY001,LB,STUDY001-SUBJ0009,48,L00048,BILI,Total Bilirubin,CHEMISTRY,0.79,mg/dL,0.1,1.2,0.79,0.79,mg/dL,0.1,1.2,NORMAL,,WEEK 4,5,2025-04-07,28
STUDY001,LB,STUDY001-SUBJ0009,49,L00049,ALP,Alkaline Phosphatase,CHEMISTRY,97.58,U/L,44.0,147.0,97.58,97.58,U/L,44.0,147.0,NORMAL,,WEEK 4,5,2025-04-07,28
STUDY001,LB,STUDY001-SUBJ0009,50,L00050,ALT,Alanine Aminotransferase,CHEMISTRY,43.07,U/L,7.0,56.0,43.07,43.07,U/L,7.0,56.0,NORMAL,,WEEK 4,5,2025-04-07,28
STUDY001,LB,STUDY001-SUBJ0009,51,L00051,HGB,Hemoglobin,HEMATOLOGY,16.11,g/dL,13.5,17.5,16.11,16.11,g/dL,13.5,17.5,NORMAL,,WEEK 8,6,2025-05-05,56
STUDY001,LB,STUDY001-SUBJ0009,52,L00052,HCT,Hematocrit,HEMATOLOGY,40.65,%,41.0,51.0,40.65,40.65,%,41.0,51.0,LOW,,WEEK 8,6,2025-05-05,56
STUDY001,LB,STUDY001-SUBJ0009,53,L00053,WBC,White Blood Cell Count,HEMATOLOGY,6.11,10^9/L,4.5,11.0,6.11,6.11,10^9/L,4.5,11.0,NORMAL,,WEEK 8,6,2025-05-05,56
STUDY001,LB,STUDY001-SUBJ0009,54,L00054,PLT,Platelet Count,HEMATOLOGY,332.6,10^9/L,150.0,450.0,332.6,332.6,10^9/L,150.0,450.0,NORMAL,,WEEK 8,6,2025-05-05,56
STUDY001,LB,STUDY001-SUBJ0009,55,L00055,GLUC,Glucose,CHEMISTRY,81.21,mg/dL,70.0,100.0,81.21,81.21,mg/dL,70.0,100.0,NORMAL,,WEEK 8,6,2025-05-05,56
STUDY001,LB,STUDY001-SUBJ0009,56,L00056,BUN,Blood Urea Nitrogen,CHEMISTRY,15.8,mg/dL,7.0,20.0,15.8,15.8,mg/dL,7.0,20.0,NORMAL,,WEEK 8,6,2025-05-05,56
STUDY001,LB,STUDY001-SUBJ0009,57,L00057,CREAT,Creatinine,CHEMISTRY,0.72,mg/dL,0.6,1.2,0.72,0.72,mg/dL,0.6,1.2,NORMAL,,WEEK 8,6,2025-05-05,56
STUDY001,LB,STUDY001-SUBJ0009,58,L00058,BILI,Total Bilirubin,CHEMISTRY,0.77,mg/dL,0.1,1.2,0.77,0.77,mg/dL,0.1,1.2,NORMAL,,WEEK 8,6,2025-05-05,56
STUDY001,LB,STUDY001-SUBJ0009,59,L00059,ALP,Alkaline Phosphatase,CHEMISTRY,98.05,U/L,44.0,147.0,98.05,98.05,U/L,44.0,147.0,NORMAL,,WEEK 8,6,2025-05-05,56
STUDY001,LB,STUDY001-SUBJ0009,60,L00060,ALT,Alanine Aminotransferase,CHEMISTRY,42.72,U/L,7.0,56.0,42.72,42.72,U/L,7.0,56.0,NORMAL,,WEEK 8,6,2025-05-05,56
STUDY001,LB,STUDY001-SUBJ0009,61,L00061,HGB,Hemoglobin,HEMATOLOGY,16.23,g/dL,13.5,17.5,16.23,16.23,g/dL,13.5,17.5,NORMAL,,WEEK 12,7,2025-06-02,84
STUDY001,LB,STUDY001-SUBJ0009,62,L00062,HCT,Hematocrit,HEMATOLOGY,40.12,%,41.0,51.0,40.12,40.12,%,41.0,51.0,LOW,,WEEK 12,7,2025-06-02,84
STUDY001,LB,STUDY001-SUBJ0009,63,L00063,WBC,White Blood Cell Count,HEMATOLOGY,6.04,10^9/L,4.5,11.0,6.04,6.04,10^9/L,4.5,11.0,NORMAL,,WEEK 12,7,2025-06-02,84
STUDY001,LB,STUDY001-SUBJ0009,64,L00064,PLT,Platelet Count,HEMATOLOGY,342.01,10^9/L,150.0,450.0,342.01,342.01,10^9/L,150.0,450.0,NORMAL,,WEEK 12,7,2025-06-02,84
STUDY001,LB,STUDY001-SUBJ0009,65,L00065,GLUC,Glucose,CHEMISTRY,82.38,mg/dL,70.0,100.0,82.38,82.38,mg/dL,70.0,100.0,NORMAL,,WEEK 12,7,2025-06-02,84
STUDY001,LB,STUDY001-SUBJ0009,66,L00066,BUN,Blood Urea Nitrogen,CHEMISTRY,15.49,mg/dL,7.0,20.0,15.49,15.49,mg/dL,7.0,20.0,NORMAL,,WEEK 12,7,2025-06-02,84
STUDY001,LB,STUDY001-SUBJ0009,67,L00067,CREAT,Creatinine,CHEMISTRY,0.75,mg/dL,0.6,1.2,0.75,0.75,mg/dL,0.6,1.2,NORMAL,,WEEK 12,7,2025-06-02,84
STUDY001,LB,STUDY001-SUBJ0009,68,L00068,BILI,Total Bilirubin,CHEMISTRY,0.77,mg/dL,0.1,1.2,0.77,0.77,mg/dL,0.1,1.2,NORMAL,,WEEK 12,7,2025-06-02,84
STUDY001,LB,STUDY001-SUBJ0009,69,L00069,ALP,Alkaline Phosphatase,CHEMISTRY,100.81,U/L,44.0,147.0,100.81,100.81,U/L,44.0,147.0,NORMAL,,WEEK 12,7,2025-06-02,84
STUDY001,LB,STUDY001-SUBJ0009,70,L00070,ALT,Alanine Aminotransferase,CHEMISTRY,41.75,U/L,7.0,56.0,41.75,41.75,U/L,7.0,56.0,NORMAL,,WEEK 12,7,2025-06-02,84
STUDY001,LB,STUDY001-SUBJ0009,71,L00071,HGB,Hemoglobin,HEMATOLOGY,16.22,g/dL,13.5,17.5,16.22,16.22,g/dL,13.5,17.5,NORMAL,,WEEK 16,8,2025-06-30,112
STUDY001,LB,STUDY001-SUBJ0009,72,L00072,HCT,Hematocrit,HEMATOLOGY,40.05,%,41.0,51.0,40.05,40.05,%,41.0,51.0,LOW,,WEEK 16,8,2025-06-30,112
STUDY001,LB,STUDY001-SUBJ0009,73,L00073,WBC,White Blood Cell Count,HEMATOLOGY,5.91,10^9/L,4.5,11.0,5.91,5.91,10^9/L,4.5,11.0,NORMAL,,WEEK 16,8,2025-06-30,112
STUDY001,LB,STUDY001-SUBJ0009,74,L00074,PLT,Platelet Count,HEMATOLOGY,342.02,10^9/L,150.0,450.0,342.02,342.02,10^9/L,150.0,450.0,NORMAL,,WEEK 16,8,2025-06-30,112
STUDY001,LB,STUDY001-SUBJ0009,75,L00075,GLUC,Glucose,CHEMISTRY,81.51,mg/dL,70.0,100.0,81.51,81.51,mg/dL,70.0,100.0,NORMAL,,WEEK 16,8,2025-06-30,112
STUDY001,LB,STUDY001-SUBJ0009,76,L00076,BUN,Blood Urea Nitrogen,CHEMISTRY,16.21,mg/dL,7.0,20.0,16.21,16.21,mg/dL,7.0,20.0,NORMAL,,WEEK 16,8,2025-06-30,112
STUDY001,LB,STUDY001-SUBJ0009,77,L00077,CREAT,Creatinine,CHEMISTRY,0.73,mg/dL,0.6,1.2,0.73,0.73,mg/dL,0.6,1.2,NORMAL,,WEEK 16,8,2025-06-30,112
STUDY001,LB,STUDY001-SUBJ0009,78,L00078,BILI,Total Bilirubin,CHEMISTRY,0.73,mg/dL,0.1,1.2,0.73,0.73,mg/dL,0.1,1.2,NORMAL,,WEEK 16,8,2025-06-30,112
STUDY001,LB,STUDY001-SUBJ0009,79,L00079,ALP,Alkaline Phosphatase,CHEMISTRY,97.53,U/L,44.0,147.0,97.53,97.53,U/L,44.0,147.0,NORMAL,,WEEK 16,8,2025-06-30,112
STUDY001,LB,STUDY001-SUBJ0009,80,L00080,ALT,Alanine Aminotransferase,CHEMISTRY,43.17,U/L,7.0,56.0,43.17,43.17,U/L,7.0,56.0,NORMAL,,WEEK 16,8,2025-06-30,112
STUDY001,LB,STUDY001-SUBJ0009,81,L00081,HGB,Hemoglobin,HEMATOLOGY,16.18,g/dL,13.5,17.5,16.18,16.18,g/dL,13.5,17.5,NORMAL,,END OF TREATMENT,9,2025-07-28,140
STUDY001,LB,STUDY001-SUBJ0009,82,L00082,HCT,Hematocrit,HEMATOLOGY,39.78,%,41.0,51.0,39.78,39.78,%,41.0,51.0,LOW,,END OF TREATMENT,9,2025-07-28,140
STUDY001,LB,STUDY001-SUBJ0009,83,L00083,WBC,White Blood Cell Count,HEMATOLOGY,6.06,10^9/L,4.5,11.0,6.06,6.06,10^9/L,4.5,11.0,NORMAL,,END OF TREATMENT,9,2025-07-28,140
STUDY001,LB,STUDY001-SUBJ0009,84,L00084,PLT,Platelet Count,HEMATOLOGY,345.24,10^9/L,150.0,450.0,345.24,345.24,10^9/L,150.0,450.0,NORMAL,,END OF TREATMENT,9,2025-07-28,140
STUDY001,LB,STUDY001-SUBJ0009,85,L00085,GLUC,Glucose,CHEMISTRY,80.34,mg/dL,70.0,100.0,80.34,80.34,mg/dL,70.0,100.0,NORMAL,,END OF TREATMENT,9,2025-07-28,140
STUDY001,LB,STUDY001-SUBJ0009,86,L00086,BUN,Blood Urea Nitrogen,CHEMISTRY,16.24,mg/dL,7.0,20.0,16.24,16.24,mg/dL,7.0,20.0,NORMAL,,END OF TREATMENT,9,2025-07-28,140
STUDY001,LB,STUDY001-SUBJ0009,87,L00087,CREAT,Creatinine,CHEMISTRY,0.76,mg/dL,0.6,1.2,0.76,0.76,mg/dL,0.6,1.2,NORMAL,,END OF TREATMENT,9,2025-07-28,140
STUDY001,LB,STUDY001-SUBJ0009,88,L00088,BILI,Total Bilirubin,CHEMISTRY,0.79,mg/dL,0.1,1.2,0.79,0.79,mg/dL,0.1,1.2,NORMAL,,END OF TREATMENT,9,2025-07-28,140
STUDY001,LB,STUDY001-SUBJ0009,89,L00089,ALP,Alkaline Phosphatase,CHEMISTRY,97.38,U/L,44.0,147.0,97.38,97.38,U/L,44.0,147.0,NORMAL,,END OF TREATMENT,9,2025-07-28,140
STUDY001,LB,STUDY001-SUBJ0009,90,L00090,ALT,Alanine Aminotransferase,CHEMISTRY,41.95,U/L,7.0,56.0,41.95,41.95,U/L,7.0,56.0,NORMAL,,END OF TREATMENT,9,2025-07-28,140
STUDY001,LB,STUDY001-SUBJ0010,1,L00001,HGB,Hemoglobin,HEMATOLOGY,15.87,g/dL,13.5,17.5,15.87,15.87,g/dL,13.5,17.5,NORMAL,,SCREENING,1,2024-10-31,-14
STUDY001,LB,STUDY001-SUBJ0010,2,L00002,HCT,Hematocrit,HEMATOLOGY,46.77,%,41.0,51.0,46.77,46.77,%,41.0,51.0,NORMAL,,SCREENING,1,2024-10-31,-14
STUDY001,LB,STUDY001-SUBJ0010,3,L00003,WBC,White Blood Cell Count,HEMATOLOGY,6.49,10^9/L,4.5,11.0,6.49,6.49,10^9/L,4.5,11.0,NORMAL,,SCREENING,1,2024-10-31,-14
STUDY001,LB,STUDY001-SUBJ0010,4,L00004,PLT,Platelet Count,HEMATOLOGY,307.59,10^9/L,150.0,450.0,307.59,307.59,10^9/L,150.0,450.0,NORMAL,,SCREENING,1,2024-10-31,-14
STUDY001,LB,STUDY001-SUBJ0010,5,L00005,GLUC,Glucose,CHEMISTRY,84.99,mg/dL,70.0,100.0,84.99,84.99,mg/dL,70.0,100.0,NORMAL,,SCREENING,1,2024-10-31,-14
STUDY001,LB,STUDY001-SUBJ0010,6,L00006,BUN,Blood Urea Nitrogen,CHEMISTRY,16.27,mg/dL,7.0,20.0,16.27,16.27,mg/dL,7.0,20.0,NORMAL,,SCREENING,1,2024-10-31,-14
STUDY001,LB,STUDY001-SUBJ0010,7,L00007,CREAT,Creatinine,CHEMISTRY,0.88,mg/dL,0.6,1.2,0.88,0.88,mg/dL,0.6,1.2,NORMAL,,SCREENING,1,2024-10-31,-14
STUDY001,LB,STUDY001-SUBJ0010,8,L00008,BILI,Total Bilirubin,CHEMISTRY,0.43,mg/dL,0.1,1.2,0.43,0.43,mg/dL,0.1,1.2,NORMAL,,SCREENING,1,2024-10-31,-14
STUDY001,LB,STUDY001-SUBJ0010,9,L00009,ALP,Alkaline Phosphatase,CHEMISTRY,85.99,U/L,44.0,147.0,85.99,85.99,U/L,44.0,147.0,NORMAL,,SCREENING,1,2024-10-31,-14
STUDY001,LB,STUDY001-SUBJ0010,10,L00010,ALT,Alanine Aminotransferase,CHEMISTRY,16.02,U/L,7.0,56.0,16.02,16.02,U/L,7.0,56.0,NORMAL,,SCREENING,1,2024-10-31,-14
STUDY001,LB,STUDY001-SUBJ0010,11,L00011,HGB,Hemoglobin,HEMATOLOGY,15.68,g/dL,13.5,17.5,15.68,15.68,g/dL,13.5,17.5,NORMAL,Y,BASELINE,2,2024-11-14,1
STUDY001,LB,STUDY001-SUBJ0010,12,L00012,HCT,Hematocrit,HEMATOLOGY,46.82,%,41.0,51.0,46.82,46.82,%,41.0,51.0,NORMAL,Y,BASELINE,2,2024-11-14,1
STUDY001,LB,STUDY001-SUBJ0010,13,L00013,WBC,White Blood Cell Count,HEMATOLOGY,6.66,10^9/L,4.5,11.0,6.66,6.66,10^9/L,4.5,11.0,NORMAL,Y,BASELINE,2,2024-11-14,1
STUDY001,LB,STUDY001-SUBJ0010,14,L00014,PLT,Platelet Count,HEMATOLOGY,307.69,10^9/L,150.0,450.0,307.69,307.69,10^9/L,150.0,450.0,NORMAL,Y,BASELINE,2,2024-11-14,1
STUDY001,LB,STUDY001-SUBJ0010,15,L00015,GLUC,Glucose,CHEMISTRY,85.41,mg/dL,70.0,100.0,85.41,85.41,mg/dL,70.0,100.0,NORMAL,Y,BASELINE,2,2024-11-14,1
STUDY001,LB,STUDY001-SUBJ0010,16,L00016,BUN,Blood Urea Nitrogen,CHEMISTRY,16.5,mg/dL,7.0,20.0,16.5,16.5,mg/dL,7.0,20.0,NORMAL,Y,BASELINE,2,2024-11-14,1
STUDY001,LB,STUDY001-SUBJ0010,17,L00017,CREAT,Creatinine,CHEMISTRY,0.91,mg/dL,0.6,1.2,0.91,0.91,mg/dL,0.6,1.2,NORMAL,Y,BASELINE,2,2024-11-14,1
STUDY001,LB,STUDY001-SUBJ0010,18,L00018,BILI,Total Bilirubin,CHEMISTRY,0.43,mg/dL,0.1,1.2,0.43,0.43,mg/dL,0.1,1.2,NORMAL,Y,BASELINE,2,2024-11-14,1
STUDY001,LB,STUDY001-SUBJ0010,19,L00019,ALP,Alkaline Phosphatase,CHEMISTRY,90.29,U/L,44.0,147.0,90.29,90.29,U/L,44.0,147.0,NORMAL,Y,BASELINE,2,2024-11-14,1
STUDY001,LB,STUDY001-SUBJ0010,20,L00020,ALT,Alanine Aminotransferase,CHEMISTRY,15.1,U/L,7.0,56.0,15.1,15.1,U/L,7.0,56.0,NORMAL,Y,BASELINE,2,2024-11-14,1
STUDY001,LB,STUDY001-SUBJ0010,21,L00021,HGB,Hemoglobin,HEMATOLOGY,15.9,g/dL,13.5,17.5,15.9,15.9,g/dL,13.5,17.5,NORMAL,,WEEK 1,3,2024-11-20,7
STUDY001,LB,STUDY001-SUBJ0010,22,L00022,HCT,Hematocrit,HEMATOLOGY,46.32,%,41.0,51.0,46.32,46.32,%,41.0,51.0,NORMAL,,WEEK 1,3,2024-11-20,7
STUDY001,LB,STUDY001-SUBJ0010,23,L00023,WBC,White Blood Cell Count,HEMATOLOGY,6.68,10^9/L,4.5,11.0,6.68,6.68,10^9/L,4.5,11.0,NORMAL,,WEEK 1,3,2024-11-20,7
STUDY001,LB,STUDY001-SUBJ0010,24,L00024,PLT,Platelet Count,HEMATOLOGY,308.66,10^9/L,150.0,450.0,308.66,308.66,10^9/L,150.0,450.0,NORMAL,,WEEK 1,3,2024-11-20,7
STUDY001,LB,STUDY001-SUBJ0010,25,L00025,GLUC,Glucose,CHEMISTRY,84.55,mg/dL,70.0,100.0,84.55,84.55,mg/dL,70.0,100.0,NORMAL,,WEEK 1,3,2024-11-20,7
STUDY001,LB,STUDY001-SUBJ0010,26,L00026,BUN,Blood Urea Nitrogen,CHEMISTRY,16.22,mg/dL,7.0,20.0,16.22,16.22,mg/dL,7.0,20.0,NORMAL,,WEEK 1,3,2024-11-20,7
STUDY001,LB,STUDY001-SUBJ0010,27,L00027,CREAT,Creatinine,CHEMISTRY,0.91,mg/dL,0.6,1.2,0.91,0.91,mg/dL,0.6,1.2,NORMAL,,WEEK 1,3,2024-11-20,7
STUDY001,LB,STUDY001-SUBJ0010,28,L00028,BILI,Total Bilirubin,CHEMISTRY,0.45,mg/dL,0.1,1.2,0.45,0.45,mg/dL,0.1,1.2,NORMAL,,WEEK 1,3,2024-11-20,7
STUDY001,LB,STUDY001-SUBJ0010,29,L00029,ALP,Alkaline Phosphatase,CHEMISTRY,90.48,U/L,44.0,147.0,90.48,90.48,U/L,44.0,147.0,NORMAL,,WEEK 1,3,2024-11-20,7
STUDY001,LB,STUDY001-SUBJ0010,30,L00030,ALT,Alanine Aminotransferase,CHEMISTRY,14.94,U/L,7.0,56.0,14.94,14.94,U/L,7.0,56.0,NORMAL,,WEEK 1,3,2024-11-20,7
STUDY001,LB,STUDY001-SUBJ0010,31,L00031,HGB,Hemoglobin,HEMATOLOGY,15.8,g/dL,13.5,17.5,15.8,15.8,g/dL,13.5,17.5,NORMAL,,WEEK 2,4,2024-11-27,14
STUDY001,LB,STUDY001-SUBJ0010,32,L00032,HCT,Hematocrit,HEMATOLOGY,46.64,%,41.0,51.0,46.64,46.64,%,41.0,51.0,NORMAL,,WEEK 2,4,2024-11-27,14
STUDY001,LB,STUDY001-SUBJ0010,33,L00033,WBC,White Blood Cell Count,HEMATOLOGY,6.65,10^9/L,4.5,11.0,6.65,6.65,10^9/L,4.5,11.0,NORMAL,,WEEK 2,4,2024-11-27,14
STUDY001,LB,STUDY001-SUBJ0010,34,L00034,PLT,Platelet Count,HEMATOLOGY,312.26,10^9/L,150.0,450.0,312.26,312.26,10^9/L,150.0,450.0,NORMAL,,WEEK 2,4,2024-11-27,14
STUDY001,LB,STUDY001-SUBJ0010,35,L00035,GLUC,Glucose,CHEMISTRY,84.85,mg/dL,70.0,100.0,84.85,84.85,mg/dL,70.0,100.0,NORMAL,,WEEK 2,4,2024-11-27,14
STUDY001,LB,STUDY001-SUBJ0010,36,L00036,BUN,Blood Urea Nitrogen,CHEMISTRY,15.89,mg/dL,7.0,20.0,15.89,15.89,mg/dL,7.0,20.0,NORMAL,,WEEK 2,4,2024-11-27,14
STUDY001,LB,STUDY001-SUBJ0010,37,L00037,CREAT,Creatinine,CHEMISTRY,0.94,mg/dL,0.6,1.2,0.94,0.94,mg/dL,0.6,1.2,NORMAL,,WEEK 2,4,2024-11-27,14
STUDY001,LB,STUDY001-SUBJ0010,38,L00038,BILI,Total Bilirubin,CHEMISTRY,0.42,mg/dL,0.1,1.2,0.42,0.42,mg/dL,0.1,1.2,NORMAL,,WEEK 2,4,2024-11-27,14
STUDY001,LB,STUDY001-SUBJ0010,39,L00039,ALP,Alkaline Phosphatase,CHEMISTRY,87.56,U/L,44.0,147.0,87.56,87.56,U/L,44.0,147.0,NORMAL,,WEEK 2,4,2024-11-27,14
STUDY001,LB,STUDY001-SUBJ0010,40,L00040,ALT,Alanine Aminotransferase,CHEMISTRY,17.27,U/L,7.0,56.0,17.27,17.27,U/L,7.0,56.0,NORMAL,,WEEK 2,4,2024-11-27,14
STUDY001,LB,STUDY001-SUBJ0010,41,L00041,HGB,Hemoglobin,HEMATOLOGY,15.72,g/dL,13.5,17.5,15.72,15.72,g/dL,13.5,17.5,NORMAL,,WEEK 4,5,2024-12-11,28
STUDY001,LB,STUDY001-SUBJ0010,42,L00042,HCT,Hematocrit,HEMATOLOGY,46.87,%,41.0,51.0,46.87,46.87,%,41.0,51.0,NORMAL,,WEEK 4,5,2024-12-11,28
STUDY001,LB,STUDY001-SUBJ0010,43,L00043,WBC,White Blood Cell Count,HEMATOLOGY,6.86,10^9/L,4.5,11.0,6.86,6.86,10^9/L,4.5,11.0,NORMAL,,WEEK 4,5,2024-12-11,28
STUDY001,LB,STUDY001-SUBJ0010,44,L00044,PLT,Platelet Count,HEMATOLOGY,314.83,10^9/L,150.0,450.0,314.83,314.83,10^9/L,150.0,450.0,NORMAL,,WEEK 4,5,2024-12-11,28
STUDY001,LB,STUDY001-SUBJ0010,45,L00045,GLUC,Glucose,CHEMISTRY,85.13,mg/dL,70.0,100.0,85.13,85.13,mg/dL,70.0,100.0,NORMAL,,WEEK 4,5,2024-12-11,28
STUDY001,LB,STUDY001-SUBJ0010,46,L00046,BUN,Blood Urea Nitrogen,CHEMISTRY,16.13,mg/dL,7.0,20.0,16.13,16.13,mg/dL,7.0,20.0,NORMAL,,WEEK 4,5,2024-12-11,28
STUDY001,LB,STUDY001-SUBJ0010,47,L00047,CREAT,Creatinine,CHEMISTRY,0.93,mg/dL,0.6,1.2,0.93,0.93,mg/dL,0.6,1.2,NORMAL,,WEEK 4,5,2024-12-11,28
STUDY001,LB,STUDY001-SUBJ0010,48,L00048,BILI,Total Bilirubin,CHEMISTRY,0.44,mg/dL,0.1,1.2,0.44,0.44,mg/dL,0.1,1.2,NORMAL,,WEEK 4,5,2024-12-11,28
STUDY001,LB,STUDY001-SUBJ0010,49,L00049,ALP,Alkaline Phosphatase,CHEMISTRY,86.62,U/L,44.0,147.0,86.62,86.62,U/L,44.0,147.0,NORMAL,,WEEK 4,5,2024-12-11,28
STUDY001,LB,STUDY001-SUBJ0010,50,L00050,ALT,Alanine Aminotransferase,CHEMISTRY,15.81,U/L,7.0,56.0,15.81,15.81,U/L,7.0,56.0,NORMAL,,WEEK 4,5,2024-12-11,28
STUDY001,LB,STUDY001-SUBJ0010,51,L00051,HGB,Hemoglobin,HEMATOLOGY,15.86,g/dL,13.5,17.5,15.86,15.86,g/dL,13.5,17.5,NORMAL,,WEEK 8,6,2025-01-08,56
STUDY001,LB,STUDY001-SUBJ0010,52,L00052,HCT,Hematocrit,HEMATOLOGY,46.38,%,41.0,51.0,46.38,46.38,%,41.0,51.0,NORMAL,,WEEK 8,6,2025-01-08,56
STUDY001,LB,STUDY001-SUBJ0010,53,L00053,WBC,White Blood Cell Count,HEMATOLOGY,6.87,10^9/L,4.5,11.0,6.87,6.87,10^9/L,4.5,11.0,NORMAL,,WEEK 8,6,2025-01-08,56
STUDY001,LB,STUDY001-SUBJ0010,54,L00054,PLT,Platelet Count,HEMATOLOGY,312.69,10^9/L,150.0,450.0,312.69,312.69,10^9/L,150.0,450.0,NORMAL,,WEEK 8,6,2025-01-08,56
STUDY001,LB,STUDY001-SUBJ0010,55,L00055,GLUC,Glucose,CHEMISTRY,84.08,mg/dL,70.0,100.0,84.08,84.08,mg/dL,70.0,100.0,NORMAL,,WEEK 8,6,2025-01-08,56
STUDY001,LB,STUDY001-SUBJ0010,56,L00056,BUN,Blood Urea Nitrogen,CHEMISTRY,16.49,mg/dL,7.0,20.0,16.49,16.49,mg/dL,7.0,20.0,NORMAL,,WEEK 8,6,2025-01-08,56
STUDY001,LB,STUDY001-SUBJ0010,57,L00057,CREAT,Creatinine,CHEMISTRY,0.9,mg/dL,0.6,1.2,0.9,0.9,mg/dL,0.6,1.2,NORMAL,,WEEK 8,6,2025-01-08,56
STUDY001,LB,STUDY001-SUBJ0010,58,L00058,BILI,Total Bilirubin,CHEMISTRY,0.45,mg/dL,0.1,1.2,0.45,0.45,mg/dL,0.1,1.2,NORMAL,,WEEK 8,6,2025-01-08,56
STUDY001,LB,STUDY001-SUBJ0010,59,L00059,ALP,Alkaline Phosphatase,CHEMISTRY,86.88,U/L,44.0,147.0,86.88,86.88,U/L,44.0,147.0,NORMAL,,WEEK 8,6,2025-01-08,56
STUDY001,LB,STUDY001-SUBJ0010,60,L00060,ALT,Alanine Aminotransferase,CHEMISTRY,15.04,U/L,7.0,56.0,15.04,15.04,U/L,7.0,56.0,NORMAL,,WEEK 8,6,2025-01-08,56
STUDY001,LB,STUDY001-SUBJ0010,61,L00061,HGB,Hemoglobin,HEMATOLOGY,15.87,g/dL,13.5,17.5,15.87,15.87,g/dL,13.5,17.5,NORMAL,,WEEK 12,7,2025-02-05,84
STUDY001,LB,STUDY001-SUBJ0010,62,L00062,HCT,Hematocrit,HEMATOLOGY,46.19,%,41.0,51.0,46.19,46.19,%,41.0,51.0,NORMAL,,WEEK 12,7,2025-02-05,84
STUDY001,LB,STUDY001-SUBJ0010,63,L00063,WBC,White Blood Cell Count,HEMATOLOGY,6.86,10^9/L,4.5,11.0,6.86,6.86,10^9/L,4.5,11.0,NORMAL,,WEEK 12,7,2025-02-05,84
STUDY001,LB,STUDY001-SUBJ0010,64,L00064,PLT,Platelet Count,HEMATOLOGY,306.33,10^9/L,150.0,450.0,306.33,306.33,10^9/L,150.0,450.0,NORMAL,,WEEK 12,7,2025-02-05,84
STUDY001,LB,STUDY001-SUBJ0010,65,L00065,GLUC,Glucose,CHEMISTRY,84.59,mg/dL,70.0,100.0,84.59,84.59,mg/dL,70.0,100.0,NORMAL,,WEEK 12,7,2025-02-05,84
STUDY001,LB,STUDY001-SUBJ0010,66,L00066,BUN,Blood Urea Nitrogen,CHEMISTRY,16.83,mg/dL,7.0,20.0,16.83,16.83,mg/dL,7.0,20.0,NORMAL,,WEEK 12,7,2025-02-05,84
STUDY001,LB,STUDY001-SUBJ0010,67,L00067,CREAT,Creatinine,CHEMISTRY,0.93,mg/dL,0.6,1.2,0.93,0.93,mg/dL,0.6,1.2,NORMAL,,WEEK 12,7,2025-02-05,84
STUDY001,LB,STUDY001-SUBJ0010,68,L00068,BILI,Total Bilirubin,CHEMISTRY,0.45,mg/dL,0.1,1.2,0.45,0.45,mg/dL,0.1,1.2,NORMAL,,WEEK 12,7,2025-02-05,84
STUDY001,LB,STUDY001-SUBJ0010,69,L00069,ALP,Alkaline Phosphatase,CHEMISTRY,87.44,U/L,44.0,147.0,87.44,87.44,U/L,44.0,147.0,NORMAL,,WEEK 12,7,2025-02-05,84
STUDY001,LB,STUDY001-SUBJ0010,70,L00070,ALT,Alanine Aminotransferase,CHEMISTRY,16.6,U/L,7.0,56.0,16.6,16.6,U/L,7.0,56.0,NORMAL,,WEEK 12,7,2025-02-05,84
STUDY001,LB,STUDY001-SUBJ0010,71,L00071,HGB,Hemoglobin,HEMATOLOGY,15.84,g/dL,13.5,17.5,15.84,15.84,g/dL,13.5,17.5,NORMAL,,WEEK 16,8,2025-03-05,112
STUDY001,LB,STUDY001-SUBJ0010,72,L00072,HCT,Hematocrit,HEMATOLOGY,46.53,%,41.0,51.0,46.53,46.53,%,41.0,51.0,NORMAL,,WEEK 16,8,2025-03-05,112
STUDY001,LB,STUDY001-SUBJ0010,73,L00073,WBC,White Blood Cell Count,HEMATOLOGY,6.6,10^9/L,4.5,11.0,6.6,6.6,10^9/L,4.5,11.0,NORMAL,,WEEK 16,8,2025-03-05,112
STUDY001,LB,STUDY001-SUBJ0010,74,L00074,PLT,Platelet Count,HEMATOLOGY,304.8,10^9/L,150.0,450.0,304.8,304.8,10^9/L,150.0,450.0,NORMAL,,WEEK 16,8,2025-03-05,112
STUDY001,LB,STUDY001-SUBJ0010,75,L00075,GLUC,Glucose,CHEMISTRY,84.56,mg/dL,70.0,100.0,84.56,84.56,mg/dL,70.0,100.0,NORMAL,,WEEK 16,8,2025-03-05,112
STUDY001,LB,STUDY001-SUBJ0010,76,L00076,BUN,Blood Urea Nitrogen,CHEMISTRY,16.28,mg/dL,7.0,20.0,16.28,16.28,mg/dL,7.0,20.0,NORMAL,,WEEK 16,8,2025-03-05,112
STUDY001,LB,STUDY001-SUBJ0010,77,L00077,CREAT,Creatinine,CHEMISTRY,0.91,mg/dL,0.6,1.2,0.91,0.91,mg/dL,0.6,1.2,NORMAL,,WEEK 16,8,2025-03-05,112
STUDY001,LB,STUDY001-SUBJ0010,78,L00078,BILI,Total Bilirubin,CHEMISTRY,0.41,mg/dL,0.1,1.2,0.41,0.41,mg/dL,0.1,1.2,NORMAL,,WEEK 16,8,2025-03-05,112
STUDY001,LB,STUDY001-SUBJ0010,79,L00079,ALP,Alkaline Phosphatase,CHEMISTRY,86.35,U/L,44.0,147.0,86.35,86.35,U/L,44.0,147.0,NORMAL,,WEEK 16,8,2025-03-05,112
STUDY001,LB,STUDY001-SUBJ0010,80,L00080,ALT,Alanine Aminotransferase,CHEMISTRY,13.86,U/L,7.0,56.0,13.86,13.86,U/L,7.0,56.0,NORMAL,,WEEK 16,8,2025-03-05,112
STUDY001,LB,STUDY001-SUBJ0010,81,L00081,HGB,Hemoglobin,HEMATOLOGY,15.8,g/dL,13.5,17.5,15.8,15.8,g/dL,13.5,17.5,NORMAL,,END OF TREATMENT,9,2025-04-02,140
STUDY001,LB,STUDY001-SUBJ0010,82,L00082,HCT,Hematocrit,HEMATOLOGY,46.9,%,41.0,51.0,46.9,46.9,%,41.0,51.0,NORMAL,,END OF TREATMENT,9,2025-04-02,140
STUDY001,LB,STUDY001-SUBJ0010,83,L00083,WBC,White Blood Cell Count,HEMATOLOGY,6.6,10^9/L,4.5,11.0,6.6,6.6,10^9/L,4.5,11.0,NORMAL,,END OF TREATMENT,9,2025-04-02,140
STUDY001,LB,STUDY001-SUBJ0010,84,L00084,PLT,Platelet Count,HEMATOLOGY,326.87,10^9/L,150.0,450.0,326.87,326.87,10^9/L,150.0,450.0,NORMAL,,END OF TREATMENT,9,2025-04-02,140
STUDY001,LB,STUDY001-SUBJ0010,85,L00085,GLUC,Glucose,CHEMISTRY,87.53,mg/dL,70.0,100.0,87.53,87.53,mg/dL,70.0,100.0,NORMAL,,END OF TREATMENT,9,2025-04-02,140
STUDY001,LB,STUDY001-SUBJ0010,86,L00086,BUN,Blood Urea Nitrogen,CHEMISTRY,16.28,mg/dL,7.0,20.0,16.28,16.28,mg/dL,7.0,20.0,NORMAL,,END OF TREATMENT,9,2025-04-02,140
STUDY001,LB,STUDY001-SUBJ0010,87,L00087,CREAT,Creatinine,CHEMISTRY,0.92,mg/dL,0.6,1.2,0.92,0.92,mg/dL,0.6,1.2,NORMAL,,END OF TREATMENT,9,2025-04-02,140
STUDY001,LB,STUDY001-SUBJ0010,88,L00088,BILI,Total Bilirubin,CHEMISTRY,0.42,mg/dL,0.1,1.2,0.42,0.42,mg/dL,0.1,1.2,NORMAL,,END OF TREATMENT,9,2025-04-02,140
STUDY001,LB,STUDY001-SUBJ0010,89,L00089,ALP,Alkaline Phosphatase,CHEMISTRY,86.2,U/L,44.0,147.0,86.2,86.2,U/L,44.0,147.0,NORMAL,,END OF TREATMENT,9,2025-04-02,140
STUDY001,LB,STUDY001-SUBJ0010,90,L00090,ALT,Alanine Aminotransferase,CHEMISTRY,15.17,U/L,7.0,56.0,15.17,15.17,U/L,7.0,56.0,NORMAL,,END OF TREATMENT,9,2025-04-02,140
