STUDYID,DOMAIN,USUBJID,VSSEQ,VSTESTCD,VSTEST,VSORRES,VSORRESU,VSSTRESC,VSSTRESN,VSSTRESU,VSBLFL,VISIT,VISITNUM,VSDTC,VSDY
STUDY001,VS,STUDY001-SUBJ0001,1,HEIGHT,Height,190.0,cm,190.0,190.0,cm,,SCREENING,1,2025-01-12,-14
STUDY001,VS,STUDY001-SUBJ0001,2,WEIGHT,Weight,56.8,kg,56.8,56.8,kg,,SCREENING,1,2025-01-12,-14
STUDY001,VS,STUDY001-SUBJ0001,3,TEMP,Temperature,36.4,C,36.4,36.4,C,,SCREENING,1,2025-01-12,-14
STUDY001,VS,STUDY001-SUBJ0001,4,BP,Blood Pressure,126/92,mmHg,126/92,,mmHg,,SCREENING,1,2025-01-12,-14
STUDY001,VS,STUDY001-SUBJ0001,5,HR,Heart Rate,61,beats/min,61,61.0,beats/min,,SCREENING,1,2025-01-12,-14
STUDY001,VS,STUDY001-SUBJ0001,6,HEIGHT,Height,190.0,cm,190.0,190.0,cm,Y,BASELINE,2,2025-01-26,1
STUDY001,VS,STUDY001-SUBJ0001,7,WEIGHT,Weight,58.3,kg,58.3,58.3,kg,Y,BASELINE,2,2025-01-26,1
STUDY001,VS,STUDY001-SUBJ0001,8,TEMP,Temperature,36.0,C,36.0,36.0,C,Y,BASELINE,2,2025-01-26,1
STUDY001,VS,STUDY001-SUBJ0001,9,BP,Blood Pressure,132/93,mmHg,132/93,,mmHg,Y,BASELINE,2,2025-01-26,1
STUDY001,VS,STUDY001-SUBJ0001,10,HR,Heart Rate,64,beats/min,64,64.0,beats/min,Y,BASELINE,2,2025-01-26,1
STUDY001,VS,STUDY001-SUBJ0001,11,HEIGHT,Height,189.9,cm,189.9,189.9,cm,,WEEK 1,3,2025-02-01,7
STUDY001,VS,STUDY001-SUBJ0001,12,WEIGHT,Weight,57.6,kg,57.6,57.6,kg,,WEEK 1,3,2025-02-01,7
STUDY001,VS,STUDY001-SUBJ0001,13,TEMP,Temperature,36.6,C,36.6,36.6,C,,WEEK 1,3,2025-02-01,7
STUDY001,VS,STUDY001-SUBJ0001,14,BP,Blood Pressure,129/92,mmHg,129/92,,mmHg,,WEEK 1,3,2025-02-01,7
STUDY001,VS,STUDY001-SUBJ0001,15,HR,Heart Rate,59,beats/min,59,59.0,beats/min,,WEEK 1,3,2025-02-01,7
STUDY001,VS,STUDY001-SUBJ0001,16,HEIGHT,Height,189.9,cm,189.9,189.9,cm,,WEEK 2,4,2025-02-08,14
STUDY001,VS,STUDY001-SUBJ0001,17,WEIGHT,Weight,58.0,kg,58.0,58.0,kg,,WEEK 2,4,2025-02-08,14
STUDY001,VS,STUDY001-SUBJ0001,18,TEMP,Temperature,36.2,C,36.2,36.2,C,,WEEK 2,4,2025-02-08,14
STUDY001,VS,STUDY001-SUBJ0001,19,BP,Blood Pressure,133/99,mmHg,133/99,,mmHg,,WEEK 2,4,2025-02-08,14
STUDY001,VS,STUDY001-SUBJ0001,20,HR,Heart Rate,64,beats/min,64,64.0,beats/min,,WEEK 2,4,2025-02-08,14
STUDY001,VS,STUDY001-SUBJ0001,21,HEIGHT,Height,190.0,cm,190.0,190.0,cm,,WEEK 4,5,2025-02-22,28
STUDY001,VS,STUDY001-SUBJ0001,22,WEIGHT,Weight,58.3,kg,58.3,58.3,kg,,WEEK 4,5,2025-02-22,28
STUDY001,VS,STUDY001-SUBJ0001,23,TEMP,Temperature,36.5,C,36.5,36.5,C,,WEEK 4,5,2025-02-22,28
STUDY001,VS,STUDY001-SUBJ0001,24,BP,Blood Pressure,128/95,mmHg,128/95,,mmHg,,WEEK 4,5,2025-02-22,28
STUDY001,VS,STUDY001-SUBJ0001,25,HR,Heart Rate,60,beats/min,60,60.0,beats/min,,WEEK 4,5,2025-02-22,28
STUDY001,VS,STUDY001-SUBJ0001,26,HEIGHT,Height,189.9,cm,189.9,189.9,cm,,WEEK 8,6,2025-03-22,56
STUDY001,VS,STUDY001-SUBJ0001,27,WEIGHT,Weight,56.9,kg,56.9,56.9,kg,,WEEK 8,6,2025-03-22,56
STUDY001,VS,STUDY001-SUBJ0001,28,TEMP,Temperature,36.5,C,36.5,36.5,C,,WEEK 8,6,2025-03-22,56
STUDY001,VS,STUDY001-SUBJ0001,29,BP,Blood Pressure,133/98,mmHg,133/98,,mmHg,,WEEK 8,6,2025-03-22,56
STUDY001,VS,STUDY001-SUBJ0001,30,HR,Heart Rate,66,beats/min,66,66.0,beats/min,,WEEK 8,6,2025-03-22,56
STUDY001,VS,STUDY001-SUBJ0001,31,HEIGHT,Height,189.9,cm,189.9,189.9,cm,,WEEK 12,7,2025-04-19,84
STUDY001,VS,STUDY001-SUBJ0001,32,WEIGHT,Weight,57.2,kg,57.2,57.2,kg,,WEEK 12,7,2025-04-19,84
STUDY001,VS,STUDY001-SUBJ0001,33,TEMP,Temperature,36.5,C,36.5,36.5,C,,WEEK 12,7,2025-04-19,84
STUDY001,VS,STUDY001-SUBJ0001,34,BP,Blood Pressure,131/95,mmHg,131/95,,mmHg,,WEEK 12,7,2025-04-19,84
STUDY001,VS,STUDY001-SUBJ0001,35,HR,Heart Rate,62,beats/min,62,62.0,beats/min,,WEEK 12,7,2025-04-19,84
STUDY001,VS,STUDY001-SUBJ0001,36,HEIGHT,Height,190.2,cm,190.2,190.2,cm,,WEEK 16,8,2025-05-17,112
STUDY001,VS,STUDY001-SUBJ0001,37,WEIGHT,Weight,58.2,kg,58.2,58.2,kg,,WEEK 16,8,2025-05-17,112
STUDY001,VS,STUDY001-SUBJ0001,38,TEMP,Temperature,36.5,C,36.5,36.5,C,,WEEK 16,8,2025-05-17,112
STUDY001,VS,STUDY001-SUBJ0001,39,BP,Blood Pressure,127/94,mmHg,127/94,,mmHg,,WEEK 16,8,2025-05-17,112
STUDY001,VS,STUDY001-SUBJ0001,40,HR,Heart Rate,62,beats/min,62,62.0,beats/min,,WEEK 16,8,2025-05-17,112
STUDY001,VS,STUDY001-SUBJ0001,41,HEIGHT,Height,189.9,cm,189.9,189.9,cm,,END OF TREATMENT,9,2025-06-14,140
STUDY001,VS,STUDY001-SUBJ0001,42,WEIGHT,Weight,57.3,kg,57.3,57.3,kg,,END OF TREATMENT,9,2025-06-14,140
STUDY001,VS,STUDY001-SUBJ0001,43,TEMP,Temperature,36.5,C,36.5,36.5,C,,END OF TREATMENT,9,2025-06-14,140
STUDY001,VS,STUDY001-SUBJ0001,44,BP,Blood Pressure,126/93,mmHg,126/93,,mmHg,,END OF TREATMENT,9,2025-06-14,140
STUDY001,VS,STUDY001-SUBJ0001,45,HR,Heart Rate,62,beats/min,62,62.0,beats/min,,END OF TREATMENT,9,2025-06-14,140
STUDY001,VS,STUDY001-SUBJ0002,1,HEIGHT,Height,164.3,cm,164.3,164.3,cm,,SCREENING,1,2025-05-27,-14
STUDY001,VS,STUDY001-SUBJ0002,2,WEIGHT,Weight,55.1,kg,55.1,55.1,kg,,SCREENING,1,2025-05-27,-14
STUDY001,VS,STUDY001-SUBJ0002,3,TEMP,Temperature,36.9,C,36.9,36.9,C,,SCREENING,1,2025-05-27,-14
STUDY001,VS,STUDY001-SUBJ0002,4,BP,Blood Pressure,142/90,mmHg,142/90,,mmHg,,SCREENING,1,2025-05-27,-14
STUDY001,VS,STUDY001-SUBJ0002,5,HR,Heart Rate,80,beats/min,80,80.0,beats/min,,SCREENING,1,2025-05-27,-14
STUDY001,VS,STUDY001-SUBJ0002,6,HEIGHT,Height,164.1,cm,164.1,164.1,cm,Y,BASELINE,2,2025-06-10,1
STUDY001,VS,STUDY001-SUBJ0002,7,WEIGHT,Weight,55.0,kg,55.0,55.0,kg,Y,BASELINE,2,2025-06-10,1
STUDY001,VS,STUDY001-SUBJ0002,8,TEMP,Temperature,36.6,C,36.6,36.6,C,Y,BASELINE,2,2025-06-10,1
STUDY001,VS,STUDY001-SUBJ0002,9,BP,Blood Pressure,138/87,mmHg,138/87,,mmHg,Y,BASELINE,2,2025-06-10,1
STUDY001,VS,STUDY001-SUBJ0002,10,HR,Heart Rate,76,beats/min,76,76.0,beats/min,Y,BASELINE,2,2025-06-10,1
STUDY001,VS,STUDY001-SUBJ0002,11,HEIGHT,Height,164.1,cm,164.1,164.1,cm,,WEEK 1,3,2025-06-16,7
STUDY001,VS,STUDY001-SUBJ0002,12,WEIGHT,Weight,55.8,kg,55.8,55.8,kg,,WEEK 1,3,2025-06-16,7
STUDY001,VS,STUDY001-SUBJ0002,13,TEMP,Temperature,37.0,C,37.0,37.0,C,,WEEK 1,3,2025-06-16,7
STUDY001,VS,STUDY001-SUBJ0002,14,BP,Blood Pressure,134/86,mmHg,134/86,,mmHg,,WEEK 1,3,2025-06-16,7
STUDY001,VS,STUDY001-SUBJ0002,15,HR,Heart Rate,84,beats/min,84,84.0,beats/min,,WEEK 1,3,2025-06-16,7
STUDY001,VS,STUDY001-SUBJ0002,16,HEIGHT,Height,164.1,cm,164.1,164.1,cm,,WEEK 2,4,2025-06-23,14
STUDY001,VS,STUDY001-SUBJ0002,17,WEIGHT,Weight,53.9,kg,53.9,53.9,kg,,WEEK 2,4,2025-06-23,14
STUDY001,VS,STUDY001-SUBJ0002,18,TEMP,Temperature,36.7,C,36.7,36.7,C,,WEEK 2,4,2025-06-23,14
STUDY001,VS,STUDY001-SUBJ0002,19,BP,Blood Pressure,140/89,mmHg,140/89,,mmHg,,WEEK 2,4,2025-06-23,14
STUDY001,VS,STUDY001-SUBJ0002,20,HR,Heart Rate,83,beats/min,83,83.0,beats/min,,WEEK 2,4,2025-06-23,14
STUDY001,VS,STUDY001-SUBJ0002,21,HEIGHT,Height,164.1,cm,164.1,164.1,cm,,WEEK 4,5,2025-07-07,28
STUDY001,VS,STUDY001-SUBJ0002,22,WEIGHT,Weight,55.4,kg,55.4,55.4,kg,,WEEK 4,5,2025-07-07,28
STUDY001,VS,STUDY001-SUBJ0002,23,TEMP,Temperature,36.7,C,36.7,36.7,C,,WEEK 4,5,2025-07-07,28
STUDY001,VS,STUDY001-SUBJ0002,24,BP,Blood Pressure,142/93,mmHg,142/93,,mmHg,,WEEK 4,5,2025-07-07,28
STUDY001,VS,STUDY001-SUBJ0002,25,HR,Heart Rate,75,beats/min,75,75.0,beats/min,,WEEK 4,5,2025-07-07,28
STUDY001,VS,STUDY001-SUBJ0002,26,HEIGHT,Height,164.1,cm,164.1,164.1,cm,,WEEK 8,6,2025-08-04,56
STUDY001,VS,STUDY001-SUBJ0002,27,WEIGHT,Weight,55.9,kg,55.9,55.9,kg,,WEEK 8,6,2025-08-04,56
STUDY001,VS,STUDY001-SUBJ0002,28,TEMP,Temperature,36.6,C,36.6,36.6,C,,WEEK 8,6,2025-08-04,56
STUDY001,VS,STUDY001-SUBJ0002,29,BP,Blood Pressure,134/91,mmHg,134/91,,mmHg,,WEEK 8,6,2025-08-04,56
STUDY001,VS,STUDY001-SUBJ0002,30,HR,Heart Rate,80,beats/min,80,80.0,beats/min,,WEEK 8,6,2025-08-04,56
STUDY001,VS,STUDY001-SUBJ0002,31,HEIGHT,Height,164.4,cm,164.4,164.4,cm,,WEEK 12,7,2025-09-01,84
STUDY001,VS,STUDY001-SUBJ0002,32,WEIGHT,Weight,55.7,kg,55.7,55.7,kg,,WEEK 12,7,2025-09-01,84
STUDY001,VS,STUDY001-SUBJ0002,33,TEMP,Temperature,36.9,C,36.9,36.9,C,,WEEK 12,7,2025-09-01,84
STUDY001,VS,STUDY001-SUBJ0002,34,BP,Blood Pressure,134/85,mmHg,134/85,,mmHg,,WEEK 12,7,2025-09-01,84
STUDY001,VS,STUDY001-SUBJ0002,35,HR,Heart Rate,84,beats/min,84,84.0,beats/min,,WEEK 12,7,2025-09-01,84
STUDY001,VS,STUDY001-SUBJ0002,36,HEIGHT,Height,164.3,cm,164.3,164.3,cm,,WEEK 16,8,2025-09-29,112
STUDY001,VS,STUDY001-SUBJ0002,37,WEIGHT,Weight,54.6,kg,54.6,54.6,kg,,WEEK 16,8,2025-09-29,112
STUDY001,VS,STUDY001-SUBJ0002,38,TEMP,Temperature,37.1,C,37.1,37.1,C,,WEEK 16,8,2025-09-29,112
STUDY001,VS,STUDY001-SUBJ0002,39,BP,Blood Pressure,136/92,mmHg,136/92,,mmHg,,WEEK 16,8,2025-09-29,112
STUDY001,VS,STUDY001-SUBJ0002,40,HR,Heart Rate,80,beats/min,80,80.0,beats/min,,WEEK 16,8,2025-09-29,112
STUDY001,VS,STUDY001-SUBJ0002,41,HEIGHT,Height,164.4,cm,164.4,164.4,cm,,END OF TREATMENT,9,2025-10-27,140
STUDY001,VS,STUDY001-SUBJ0002,42,WEIGHT,Weight,55.9,kg,55.9,55.9,kg,,END OF TREATMENT,9,2025-10-27,140
STUDY001,VS,STUDY001-SUBJ0002,43,TEMP,Temperature,37.1,C,37.1,37.1,C,,END OF TREATMENT,9,2025-10-27,140
STUDY001,VS,STUDY001-SUBJ0002,44,BP,Blood Pressure,143/92,mmHg,143/92,,mmHg,,END OF TREATMENT,9,2025-10-27,140
STUDY001,VS,STUDY001-SUBJ0002,45,HR,Heart Rate,76,beats/min,76,76.0,beats/min,,END OF TREATMENT,9,2025-10-27,140
STUDY001,VS,STUDY001-SUBJ0003,1,HEIGHT,Height,189.9,cm,189.9,189.9,cm,,SCREENING,1,2025-03-04,-14
STUDY001,VS,STUDY001-SUBJ0003,2,WEIGHT,Weight,119.5,kg,119.5,119.5,kg,,SCREENING,1,2025-03-04,-14
STUDY001,VS,STUDY001-SUBJ0003,3,TEMP,Temperature,36.6,C,36.6,36.6,C,,SCREENING,1,2025-03-04,-14
STUDY001,VS,STUDY001-SUBJ0003,4,BP,Blood Pressure,104/85,mmHg,104/85,,mmHg,,SCREENING,1,2025-03-04,-14
STUDY001,VS,STUDY001-SUBJ0003,5,HR,Heart Rate,69,beats/min,69,69.0,beats/min,,SCREENING,1,2025-03-04,-14
STUDY001,VS,STUDY001-SUBJ0003,6,HEIGHT,Height,190.1,cm,190.1,190.1,cm,Y,BASELINE,2,2025-03-18,1
STUDY001,VS,STUDY001-SUBJ0003,7,WEIGHT,Weight,119.8,kg,119.8,119.8,kg,Y,BASELINE,2,2025-03-18,1
STUDY001,VS,STUDY001-SUBJ0003,8,TEMP,Temperature,36.4,C,36.4,36.4,C,Y,BASELINE,2,2025-03-18,1
STUDY001,VS,STUDY001-SUBJ0003,9,BP,Blood Pressure,105/81,mmHg,105/81,,mmHg,Y,BASELINE,2,2025-03-18,1
STUDY001,VS,STUDY001-SUBJ0003,10,HR,Heart Rate,74,beats/min,74,74.0,beats/min,Y,BASELINE,2,2025-03-18,1
STUDY001,VS,STUDY001-SUBJ0003,11,HEIGHT,Height,189.7,cm,189.7,189.7,cm,,WEEK 1,3,2025-03-24,7
STUDY001,VS,STUDY001-SUBJ0003,12,WEIGHT,Weight,120.2,kg,120.2,120.2,kg,,WEEK 1,3,2025-03-24,7
STUDY001,VS,STUDY001-SUBJ0003,13,TEMP,Temperature,36.3,C,36.3,36.3,C,,WEEK 1,3,2025-03-24,7
STUDY001,VS,STUDY001-SUBJ0003,14,BP,Blood Pressure,102/78,mmHg,102/78,,mmHg,,WEEK 1,3,2025-03-24,7
STUDY001,VS,STUDY001-SUBJ0003,15,HR,Heart Rate,76,beats/min,76,76.0,beats/min,,WEEK 1,3,2025-03-24,7
STUDY001,VS,STUDY001-SUBJ0003,16,HEIGHT,Height,189.9,cm,189.9,189.9,cm,,WEEK 2,4,2025-03-31,14
STUDY001,VS,STUDY001-SUBJ0003,17,WEIGHT,Weight,120.4,kg,120.4,120.4,kg,,WEEK 2,4,2025-03-31,14
STUDY001,VS,STUDY001-SUBJ0003,18,TEMP,Temperature,36.5,C,36.5,36.5,C,,WEEK 2,4,2025-03-31,14
STUDY001,VS,STUDY001-SUBJ0003,19,BP,Blood Pressure,99/85,mmHg,99/85,,mmHg,,WEEK 2,4,2025-03-31,14
STUDY001,VS,STUDY001-SUBJ0003,20,HR,Heart Rate,76,beats/min,76,76.0,beats/min,,WEEK 2,4,2025-03-31,14
STUDY001,VS,STUDY001-SUBJ0003,21,HEIGHT,Height,189.9,cm,189.9,189.9,cm,,WEEK 4,5,2025-04-14,28
STUDY001,VS,STUDY001-SUBJ0003,22,WEIGHT,Weight,120.4,kg,120.4,120.4,kg,,WEEK 4,5,2025-04-14,28
STUDY001,VS,STUDY001-SUBJ0003,23,TEMP,Temperature,36.3,C,36.3,36.3,C,,WEEK 4,5,2025-04-14,28
STUDY001,VS,STUDY001-SUBJ0003,24,BP,Blood Pressure,103/84,mmHg,103/84,,mmHg,,WEEK 4,5,2025-04-14,28
STUDY001,VS,STUDY001-SUBJ0003,25,HR,Heart Rate,73,beats/min,73,73.0,beats/min,,WEEK 4,5,2025-04-14,28
STUDY001,VS,STUDY001-SUBJ0003,26,HEIGHT,Height,189.8,cm,189.8,189.8,cm,,WEEK 8,6,2025-05-12,56
STUDY001,VS,STUDY001-SUBJ0003,27,WEIGHT,Weight,118.9,kg,118.9,118.9,kg,,WEEK 8,6,2025-05-12,56
STUDY001,VS,STUDY001-SUBJ0003,28,TEMP,Temperature,36.5,C,36.5,36.5,C,,WEEK 8,6,2025-05-12,56
STUDY001,VS,STUDY001-SUBJ0003,29,BP,Blood Pressure,105/78,mmHg,105/78,,mmHg,,WEEK 8,6,2025-05-12,56
STUDY001,VS,STUDY001-SUBJ0003,30,HR,Heart Rate,76,beats/min,76,76.0,beats/min,,WEEK 8,6,2025-05-12,56
STUDY001,VS,STUDY001-SUBJ0003,31,HEIGHT,Height,190.1,cm,190.1,190.1,cm,,WEEK 12,7,2025-06-09,84
STUDY001,VS,STUDY001-SUBJ0003,32,WEIGHT,Weight,119.2,kg,119.2,119.2,kg,,WEEK 12,7,2025-06-09,84
STUDY001,VS,STUDY001-SUBJ0003,33,TEMP,Temperature,36.3,C,36.3,36.3,C,,WEEK 12,7,2025-06-09,84
STUDY001,VS,STUDY001-SUBJ0003,34,BP,Blood Pressure,102/83,mmHg,102/83,,mmHg,,WEEK 12,7,2025-06-09,84
STUDY001,VS,STUDY001-SUBJ0003,35,HR,Heart Rate,73,beats/min,73,73.0,beats/min,,WEEK 12,7,2025-06-09,84
STUDY001,VS,STUDY001-SUBJ0003,36,HEIGHT,Height,190.0,cm,190.0,190.0,cm,,WEEK 16,8,2025-07-07,112
STUDY001,VS,STUDY001-SUBJ0003,37,WEIGHT,Weight,118.6,kg,118.6,118.6,kg,,WEEK 16,8,2025-07-07,112
STUDY001,VS,STUDY001-SUBJ0003,38,TEMP,Temperature,36.7,C,36.7,36.7,C,,WEEK 16,8,2025-07-07,112
STUDY001,VS,STUDY001-SUBJ0003,39,BP,Blood Pressure,100/80,mmHg,100/80,,mmHg,,WEEK 16,8,2025-07-07,112
STUDY001,VS,STUDY001-SUBJ0003,40,HR,Heart Rate,69,beats/min,69,69.0,beats/min,,WEEK 16,8,2025-07-07,112
STUDY001,VS,STUDY001-SUBJ0003,41,HEIGHT,Height,190.0,cm,190.0,190.0,cm,,END OF TREATMENT,9,2025-08-04,140
STUDY001,VS,STUDY001-SUBJ0003,42,WEIGHT,Weight,120.4,kg,120.4,120.4,kg,,END OF TREATMENT,9,2025-08-04,140
STUDY001,VS,STUDY001-SUBJ0003,43,TEMP,Temperature,36.6,C,36.6,36.6,C,,END OF TREATMENT,9,2025-08-04,140
STUDY001,VS,STUDY001-SUBJ0003,44,BP,Blood Pressure,103/78,mmHg,103/78,,mmHg,,END OF TREATMENT,9,2025-08-04,140
STUDY001,VS,STUDY001-SUBJ0003,45,HR,Heart Rate,72,beats/min,72,72.0,beats/min,,END OF TREATMENT,9,2025-08-04,140
STUDY001,VS,STUDY001-SUBJ0004,1,HEIGHT,Height,192.5,cm,192.5,192.5,cm,,SCREENING,1,2024-09-16,-14
STUDY001,VS,STUDY001-SUBJ0004,2,WEIGHT,Weight,65.5,kg,65.5,65.5,kg,,SCREENING,1,2024-09-16,-14
STUDY001,VS,STUDY001-SUBJ0004,3,TEMP,Temperature,36.2,C,36.2,36.2,C,,SCREENING,1,2024-09-16,-14
STUDY001,VS,STUDY001-SUBJ0004,4,BP,Blood Pressure,137/85,mmHg,137/85,,mmHg,,SCREENING,1,2024-09-16,-14
STUDY001,VS,STUDY001-SUBJ0004,5,HR,Heart Rate,82,beats/min,82,82.0,beats/min,,SCREENING,1,2024-09-16,-14
STUDY001,VS,STUDY001-SUBJ0004,6,HEIGHT,Height,192.4,cm,192.4,192.4,cm,Y,BASELINE,2,2024-09-30,1
STUDY001,VS,STUDY001-SUBJ0004,7,WEIGHT,Weight,66.4,kg,66.4,66.4,kg,Y,BASELINE,2,2024-09-30,1
STUDY001,VS,STUDY001-SUBJ0004,8,TEMP,Temperature,36.1,C,36.1,36.1,C,Y,BASELINE,2,2024-09-30,1
STUDY001,VS,STUDY001-SUBJ0004,9,BP,Blood Pressure,140/82,mmHg,140/82,,mmHg,Y,BASELINE,2,2024-09-30,1
STUDY001,VS,STUDY001-SUBJ0004,10,HR,Heart Rate,86,beats/min,86,86.0,beats/min,Y,BASELINE,2,2024-09-30,1
STUDY001,VS,STUDY001-SUBJ0004,11,HEIGHT,Height,192.5,cm,192.5,192.5,cm,,WEEK 1,3,2024-10-06,7
STUDY001,VS,STUDY001-SUBJ0004,12,WEIGHT,Weight,67.0,kg,67.0,67.0,kg,,WEEK 1,3,2024-10-06,7
STUDY001,VS,STUDY001-SUBJ0004,13,TEMP,Temperature,36.2,C,36.2,36.2,C,,WEEK 1,3,2024-10-06,7
STUDY001,VS,STUDY001-SUBJ0004,14,BP,Blood Pressure,139/83,mmHg,139/83,,mmHg,,WEEK 1,3,2024-10-06,7
STUDY001,VS,STUDY001-SUBJ0004,15,HR,Heart Rate,84,beats/min,84,84.0,beats/min,,WEEK 1,3,2024-10-06,7
STUDY001,VS,STUDY001-SUBJ0004,16,HEIGHT,Height,192.5,cm,192.5,192.5,cm,,WEEK 2,4,2024-10-13,14
STUDY001,VS,STUDY001-SUBJ0004,17,WEIGHT,Weight,66.3,kg,66.3,66.3,kg,,WEEK 2,4,2024-10-13,14
STUDY001,VS,STUDY001-SUBJ0004,18,TEMP,Temperature,36.5,C,36.5,36.5,C,,WEEK 2,4,2024-10-13,14
STUDY001,VS,STUDY001-SUBJ0004,19,BP,Blood Pressure,137/84,mmHg,137/84,,mmHg,,WEEK 2,4,2024-10-13,14
STUDY001,VS,STUDY001-SUBJ0004,20,HR,Heart Rate,83,beats/min,83,83.0,beats/min,,WEEK 2,4,2024-10-13,14
STUDY001,VS,STUDY001-SUBJ0004,21,HEIGHT,Height,192.6,cm,192.6,192.6,cm,,WEEK 4,5,2024-10-27,28
STUDY001,VS,STUDY001-SUBJ0004,22,WEIGHT,Weight,66.8,kg,66.8,66.8,kg,,WEEK 4,5,2024-10-27,28
STUDY001,VS,STUDY001-SUBJ0004,23,TEMP,Temperature,36.3,C,36.3,36.3,C,,WEEK 4,5,2024-10-27,28
STUDY001,VS,STUDY001-SUBJ0004,24,BP,Blood Pressure,142/79,mmHg,142/79,,mmHg,,WEEK 4,5,2024-10-27,28
STUDY001,VS,STUDY001-SUBJ0004,25,HR,Heart Rate,85,beats/min,85,85.0,beats/min,,WEEK 4,5,2024-10-27,28
STUDY001,VS,STUDY001-SUBJ0004,26,HEIGHT,Height,192.4,cm,192.4,192.4,cm,,WEEK 8,6,2024-11-24,56
STUDY001,VS,STUDY001-SUBJ0004,27,WEIGHT,Weight,65.2,kg,65.2,65.2,kg,,WEEK 8,6,2024-11-24,56
STUDY001,VS,STUDY001-SUBJ0004,28,TEMP,Temperature,36.2,C,36.2,36.2,C,,WEEK 8,6,2024-11-24,56
STUDY001,VS,STUDY001-SUBJ0004,29,BP,Blood Pressure,135/77,mmHg,135/77,,mmHg,,WEEK 8,6,2024-11-24,56
STUDY001,VS,STUDY001-SUBJ0004,30,HR,Heart Rate,82,beats/min,82,82.0,beats/min,,WEEK 8,6,2024-11-24,56
STUDY001,VS,STUDY001-SUBJ0004,31,HEIGHT,Height,192.7,cm,192.7,192.7,cm,,WEEK 12,7,2024-12-22,84
STUDY001,VS,STUDY001-SUBJ0004,32,WEIGHT,Weight,65.2,kg,65.2,65.2,kg,,WEEK 12,7,2024-12-22,84
STUDY001,VS,STUDY001-SUBJ0004,33,TEMP,Temperature,36.2,C,36.2,36.2,C,,WEEK 12,7,2024-12-22,84
STUDY001,VS,STUDY001-SUBJ0004,34,BP,Blood Pressure,134/82,mmHg,134/82,,mmHg,,WEEK 12,7,2024-12-22,84
STUDY001,VS,STUDY001-SUBJ0004,35,HR,Heart Rate,82,beats/min,82,82.0,beats/min,,WEEK 12,7,2024-12-22,84
STUDY001,VS,STUDY001-SUBJ0004,36,HEIGHT,Height,192.6,cm,192.6,192.6,cm,,WEEK 16,8,2025-01-19,112
STUDY001,VS,STUDY001-SUBJ0004,37,WEIGHT,Weight,66.0,kg,66.0,66.0,kg,,WEEK 16,8,2025-01-19,112
STUDY001,VS,STUDY001-SUBJ0004,38,TEMP,Temperature,36.4,C,36.4,36.4,C,,WEEK 16,8,2025-01-19,112
STUDY001,VS,STUDY001-SUBJ0004,39,BP,Blood Pressure,142/81,mmHg,142/81,,mmHg,,WEEK 16,8,2025-01-19,112
STUDY001,VS,STUDY001-SUBJ0004,40,HR,Heart Rate,84,beats/min,84,84.0,beats/min,,WEEK 16,8,2025-01-19,112
STUDY001,VS,STUDY001-SUBJ0004,41,HEIGHT,Height,192.7,cm,192.7,192.7,cm,,END OF TREATMENT,9,2025-02-16,140
STUDY001,VS,STUDY001-SUBJ0004,42,WEIGHT,Weight,65.5,kg,65.5,65.5,kg,,END OF TREATMENT,9,2025-02-16,140
STUDY001,VS,STUDY001-SUBJ0004,43,TEMP,Temperature,36.1,C,36.1,36.1,C,,END OF TREATMENT,9,2025-02-16,140
STUDY001,VS,STUDY001-SUBJ0004,44,BP,Blood Pressure,142/78,mmHg,142/78,,mmHg,,END OF TREATMENT,9,2025-02-16,140
STUDY001,VS,STUDY001-SUBJ0004,45,HR,Heart Rate,91,beats/min,91,91.0,beats/min,,END OF TREATMENT,9,2025-02-16,140
STUDY001,VS,STUDY001-SUBJ0005,1,HEIGHT,Height,168.6,cm,168.6,168.6,cm,,SCREENING,1,2025-06-12,-14
STUDY001,VS,STUDY001-SUBJ0005,2,WEIGHT,Weight,116.8,kg,116.8,116.8,kg,,SCREENING,1,2025-06-12,-14
STUDY001,VS,STUDY001-SUBJ0005,3,TEMP,Temperature,36.4,C,36.4,36.4,C,,SCREENING,1,2025-06-12,-14
STUDY001,VS,STUDY001-SUBJ0005,4,BP,Blood Pressure,117/74,mmHg,117/74,,mmHg,,SCREENING,1,2025-06-12,-14
STUDY001,VS,STUDY001-SUBJ0005,5,HR,Heart Rate,72,beats/min,72,72.0,beats/min,,SCREENING,1,2025-06-12,-14
STUDY001,VS,STUDY001-SUBJ0005,6,HEIGHT,Height,168.7,cm,168.7,168.7,cm,Y,BASELINE,2,2025-06-26,1
STUDY001,VS,STUDY001-SUBJ0005,7,WEIGHT,Weight,116.7,kg,116.7,116.7,kg,Y,BASELINE,2,2025-06-26,1
STUDY001,VS,STUDY001-SUBJ0005,8,TEMP,Temperature,36.6,C,36.6,36.6,C,Y,BASELINE,2,2025-06-26,1
STUDY001,VS,STUDY001-SUBJ0005,9,BP,Blood Pressure,120/72,mmHg,120/72,,mmHg,Y,BASELINE,2,2025-06-26,1
STUDY001,VS,STUDY001-SUBJ0005,10,HR,Heart Rate,70,beats/min,70,70.0,beats/min,Y,BASELINE,2,2025-06-26,1
STUDY001,VS,STUDY001-SUBJ0005,11,HEIGHT,Height,168.6,cm,168.6,168.6,cm,,WEEK 1,3,2025-07-02,7
STUDY001,VS,STUDY001-SUBJ0005,12,WEIGHT,Weight,116.1,kg,116.1,116.1,kg,,WEEK 1,3,2025-07-02,7
STUDY001,VS,STUDY001-SUBJ0005,13,TEMP,Temperature,36.6,C,36.6,36.6,C,,WEEK 1,3,2025-07-02,7
STUDY001,VS,STUDY001-SUBJ0005,14,BP,Blood Pressure,121/77,mmHg,121/77,,mmHg,,WEEK 1,3,2025-07-02,7
STUDY001,VS,STUDY001-SUBJ0005,15,HR,Heart Rate,64,beats/min,64,64.0,beats/min,,WEEK 1,3,2025-07-02,7
STUDY001,VS,STUDY001-SUBJ0005,16,HEIGHT,Height,168.5,cm,168.5,168.5,cm,,WEEK 2,4,2025-07-09,14
STUDY001,VS,STUDY001-SUBJ0005,17,WEIGHT,Weight,115.6,kg,115.6,115.6,kg,,WEEK 2,4,2025-07-09,14
STUDY001,VS,STUDY001-SUBJ0005,18,TEMP,Temperature,36.5,C,36.5,36.5,C,,WEEK 2,4,2025-07-09,14
STUDY001,VS,STUDY001-SUBJ0005,19,BP,Blood Pressure,125/82,mmHg,125/82,,mmHg,,WEEK 2,4,2025-07-09,14
STUDY001,VS,STUDY001-SUBJ0005,20,HR,Heart Rate,74,beats/min,74,74.0,beats/min,,WEEK 2,4,2025-07-09,14
STUDY001,VS,STUDY001-SUBJ0005,21,HEIGHT,Height,168.5,cm,168.5,168.5,cm,,WEEK 4,5,2025-07-23,28
STUDY001,VS,STUDY001-SUBJ0005,22,WEIGHT,Weight,116.9,kg,116.9,116.9,kg,,WEEK 4,5,2025-07-23,28
STUDY001,VS,STUDY001-SUBJ0005,23,TEMP,Temperature,36.5,C,36.5,36.5,C,,WEEK 4,5,2025-07-23,28
STUDY001,VS,STUDY001-SUBJ0005,24,BP,Blood Pressure,121/76,mmHg,121/76,,mmHg,,WEEK 4,5,2025-07-23,28
STUDY001,VS,STUDY001-SUBJ0005,25,HR,Heart Rate,68,beats/min,68,68.0,beats/min,,WEEK 4,5,2025-07-23,28
STUDY001,VS,STUDY001-SUBJ0005,26,HEIGHT,Height,168.4,cm,168.4,168.4,cm,,WEEK 8,6,2025-08-20,56
STUDY001,VS,STUDY001-SUBJ0005,27,WEIGHT,Weight,115.7,kg,115.7,115.7,kg,,WEEK 8,6,2025-08-20,56
STUDY001,VS,STUDY001-SUBJ0005,28,TEMP,Temperature,36.2,C,36.2,36.2,C,,WEEK 8,6,2025-08-20,56
STUDY001,VS,STUDY001-SUBJ0005,29,BP,Blood Pressure,124/73,mmHg,124/73,,mmHg,,WEEK 8,6,2025-08-20,56
STUDY001,VS,STUDY001-SUBJ0005,30,HR,Heart Rate,65,beats/min,65,65.0,beats/min,,WEEK 8,6,2025-08-20,56
STUDY001,VS,STUDY001-SUBJ0005,31,HEIGHT,Height,168.4,cm,168.4,168.4,cm,,WEEK 12,7,2025-09-17,84
STUDY001,VS,STUDY001-SUBJ0005,32,WEIGHT,Weight,117.1,kg,117.1,117.1,kg,,WEEK 12,7,2025-09-17,84
STUDY001,VS,STUDY001-SUBJ0005,33,TEMP,Temperature,36.5,C,36.5,36.5,C,,WEEK 12,7,2025-09-17,84
STUDY001,VS,STUDY001-SUBJ0005,34,BP,Blood Pressure,120/76,mmHg,120/76,,mmHg,,WEEK 12,7,2025-09-17,84
STUDY001,VS,STUDY001-SUBJ0005,35,HR,Heart Rate,67,beats/min,67,67.0,beats/min,,WEEK 12,7,2025-09-17,84
STUDY001,VS,STUDY001-SUBJ0005,36,HEIGHT,Height,168.4,cm,168.4,168.4,cm,,WEEK 16,8,2025-10-15,112
STUDY001,VS,STUDY001-SUBJ0005,37,WEIGHT,Weight,117.1,kg,117.1,117.1,kg,,WEEK 16,8,2025-10-15,112
STUDY001,VS,STUDY001-SUBJ0005,38,TEMP,Temperature,36.7,C,36.7,36.7,C,,WEEK 16,8,2025-10-15,112
STUDY001,VS,STUDY001-SUBJ0005,39,BP,Blood Pressure,121/73,mmHg,121/73,,mmHg,,WEEK 16,8,2025-10-15,112
STUDY001,VS,STUDY001-SUBJ0005,40,HR,Heart Rate,69,beats/min,69,69.0,beats/min,,WEEK 16,8,2025-10-15,112
STUDY001,VS,STUDY001-SUBJ0005,41,HEIGHT,Height,168.6,cm,168.6,168.6,cm,,END OF TREATMENT,9,2025-11-12,140
STUDY001,VS,STUDY001-SUBJ0005,42,WEIGHT,Weight,117.1,kg,117.1,117.1,kg,,END OF TREATMENT,9,2025-11-12,140
STUDY001,VS,STUDY001-SUBJ0005,43,TEMP,Temperature,36.4,C,36.4,36.4,C,,END OF TREATMENT,9,2025-11-12,140
STUDY001,VS,STUDY001-SUBJ0005,44,BP,Blood Pressure,115/73,mmHg,115/73,,mmHg,,END OF TREATMENT,9,2025-11-12,140
STUDY001,VS,STUDY001-SUBJ0005,45,HR,Heart Rate,73,beats/min,73,73.0,beats/min,,END OF TREATMENT,9,2025-11-12,140
STUDY001,VS,STUDY001-SUBJ0006,1,HEIGHT,Height,157.4,cm,157.4,157.4,cm,,SCREENING,1,2024-09-10,-14
STUDY001,VS,STUDY001-SUBJ0006,2,WEIGHT,Weight,85.8,kg,85.8,85.8,kg,,SCREENING,1,2024-09-10,-14
STUDY001,VS,STUDY001-SUBJ0006,3,TEMP,Temperature,36.7,C,36.7,36.7,C,,SCREENING,1,2024-09-10,-14
STUDY001,VS,STUDY001-SUBJ0006,4,BP,Blood Pressure,122/87,mmHg,122/87,,mmHg,,SCREENING,1,2024-09-10,-14
STUDY001,VS,STUDY001-SUBJ0006,5,HR,Heart Rate,66,beats/min,66,66.0,beats/min,,SCREENING,1,2024-09-10,-14
STUDY001,VS,STUDY001-SUBJ0006,6,HEIGHT,Height,157.3,cm,157.3,157.3,cm,Y,BASELINE,2,2024-09-24,1
STUDY001,VS,STUDY001-SUBJ0006,7,WEIGHT,Weight,87.1,kg,87.1,87.1,kg,Y,BASELINE,2,2024-09-24,1
STUDY001,VS,STUDY001-SUBJ0006,8,TEMP,Temperature,36.7,C,36.7,36.7,C,Y,BASELINE,2,2024-09-24,1
STUDY001,VS,STUDY001-SUBJ0006,9,BP,Blood Pressure,125/82,mmHg,125/82,,mmHg,Y,BASELINE,2,2024-09-24,1
STUDY001,VS,STUDY001-SUBJ0006,10,HR,Heart Rate,73,beats/min,73,73.0,beats/min,Y,BASELINE,2,2024-09-24,1
STUDY001,VS,STUDY001-SUBJ0006,11,HEIGHT,Height,157.4,cm,157.4,157.4,cm,,WEEK 1,3,2024-09-30,7
STUDY001,VS,STUDY001-SUBJ0006,12,WEIGHT,Weight,86.7,kg,86.7,86.7,kg,,WEEK 1,3,2024-09-30,7
STUDY001,VS,STUDY001-SUBJ0006,13,TEMP,Temperature,36.5,C,36.5,36.5,C,,WEEK 1,3,2024-09-30,7
STUDY001,VS,STUDY001-SUBJ0006,14,BP,Blood Pressure,125/83,mmHg,125/83,,mmHg,,WEEK 1,3,2024-09-30,7
STUDY001,VS,STUDY001-SUBJ0006,15,HR,Heart Rate,65,beats/min,65,65.0,beats/min,,WEEK 1,3,2024-09-30,7
STUDY001,VS,STUDY001-SUBJ0006,16,HEIGHT,Height,157.2,cm,157.2,157.2,cm,,WEEK 2,4,2024-10-07,14
STUDY001,VS,STUDY001-SUBJ0006,17,WEIGHT,Weight,85.9,kg,85.9,85.9,kg,,WEEK 2,4,2024-10-07,14
STUDY001,VS,STUDY001-SUBJ0006,18,TEMP,Temperature,36.9,C,36.9,36.9,C,,WEEK 2,4,2024-10-07,14
STUDY001,VS,STUDY001-SUBJ0006,19,BP,Blood Pressure,129/90,mmHg,129/90,,mmHg,,WEEK 2,4,2024-10-07,14
STUDY001,VS,STUDY001-SUBJ0006,20,HR,Heart Rate,64,beats/min,64,64.0,beats/min,,WEEK 2,4,2024-10-07,14
STUDY001,VS,STUDY001-SUBJ0006,21,HEIGHT,Height,157.5,cm,157.5,157.5,cm,,WEEK 4,5,2024-10-21,28
STUDY001,VS,STUDY001-SUBJ0006,22,WEIGHT,Weight,85.9,kg,85.9,85.9,kg,,WEEK 4,5,2024-10-21,28
STUDY001,VS,STUDY001-SUBJ0006,23,TEMP,Temperature,36.8,C,36.8,36.8,C,,WEEK 4,5,2024-10-21,28
STUDY001,VS,STUDY001-SUBJ0006,24,BP,Blood Pressure,126/86,mmHg,126/86,,mmHg,,WEEK 4,5,2024-10-21,28
STUDY001,VS,STUDY001-SUBJ0006,25,HR,Heart Rate,67,beats/min,67,67.0,beats/min,,WEEK 4,5,2024-10-21,28
STUDY001,VS,STUDY001-SUBJ0006,26,HEIGHT,Height,157.6,cm,157.6,157.6,cm,,WEEK 8,6,2024-11-18,56
STUDY001,VS,STUDY001-SUBJ0006,27,WEIGHT,Weight,85.3,kg,85.3,85.3,kg,,WEEK 8,6,2024-11-18,56
STUDY001,VS,STUDY001-SUBJ0006,28,TEMP,Temperature,36.5,C,36.5,36.5,C,,WEEK 8,6,2024-11-18,56
STUDY001,VS,STUDY001-SUBJ0006,29,BP,Blood Pressure,130/85,mmHg,130/85,,mmHg,,WEEK 8,6,2024-11-18,56
STUDY001,VS,STUDY001-SUBJ0006,30,HR,Heart Rate,73,beats/min,73,73.0,beats/min,,WEEK 8,6,2024-11-18,56
STUDY001,VS,STUDY001-SUBJ0006,31,HEIGHT,Height,157.2,cm,157.2,157.2,cm,,WEEK 12,7,2024-12-16,84
STUDY001,VS,STUDY001-SUBJ0006,32,WEIGHT,Weight,86.0,kg,86.0,86.0,kg,,WEEK 12,7,2024-12-16,84
STUDY001,VS,STUDY001-SUBJ0006,33,TEMP,Temperature,36.8,C,36.8,36.8,C,,WEEK 12,7,2024-12-16,84
STUDY001,VS,STUDY001-SUBJ0006,34,BP,Blood Pressure,127/91,mmHg,127/91,,mmHg,,WEEK 12,7,2024-12-16,84
STUDY001,VS,STUDY001-SUBJ0006,35,HR,Heart Rate,68,beats/min,68,68.0,beats/min,,WEEK 12,7,2024-12-16,84
STUDY001,VS,STUDY001-SUBJ0006,36,HEIGHT,Height,157.6,cm,157.6,157.6,cm,,WEEK 16,8,2025-01-13,112
STUDY001,VS,STUDY001-SUBJ0006,37,WEIGHT,Weight,85.3,kg,85.3,85.3,kg,,WEEK 16,8,2025-01-13,112
STUDY001,VS,STUDY001-SUBJ0006,38,TEMP,Temperature,36.7,C,36.7,36.7,C,,WEEK 16,8,2025-01-13,112
STUDY001,VS,STUDY001-SUBJ0006,39,BP,Blood Pressure,126/82,mmHg,126/82,,mmHg,,WEEK 16,8,2025-01-13,112
STUDY001,VS,STUDY001-SUBJ0006,40,HR,Heart Rate,71,beats/min,71,71.0,beats/min,,WEEK 16,8,2025-01-13,112
STUDY001,VS,STUDY001-SUBJ0006,41,HEIGHT,Height,157.2,cm,157.2,157.2,cm,,END OF TREATMENT,9,2025-02-10,140
STUDY001,VS,STUDY001-SUBJ0006,42,WEIGHT,Weight,85.7,kg,85.7,85.7,kg,,END OF TREATMENT,9,2025-02-10,140
STUDY001,VS,STUDY001-SUBJ0006,43,TEMP,Temperature,36.4,C,36.4,36.4,C,,END OF TREATMENT,9,2025-02-10,140
STUDY001,VS,STUDY001-SUBJ0006,44,BP,Blood Pressure,128/88,mmHg,128/88,,mmHg,,END OF TREATMENT,9,2025-02-10,140
STUDY001,VS,STUDY001-SUBJ0006,45,HR,Heart Rate,65,beats/min,65,65.0,beats/min,,END OF TREATMENT,9,2025-02-10,140
STUDY001,VS,STUDY001-SUBJ0007,1,HEIGHT,Height,186.0,cm,186.0,186.0,cm,,SCREENING,1,2025-05-02,-14
STUDY001,VS,STUDY001-SUBJ0007,2,WEIGHT,Weight,82.1,kg,82.1,82.1,kg,,SCREENING,1,2025-05-02,-14
STUDY001,VS,STUDY001-SUBJ0007,3,TEMP,Temperature,36.0,C,36.0,36.0,C,,SCREENING,1,2025-05-02,-14
STUDY001,VS,STUDY001-SUBJ0007,4,BP,Blood Pressure,115/91,mmHg,115/91,,mmHg,,SCREENING,1,2025-05-02,-14
STUDY001,VS,STUDY001-SUBJ0007,5,HR,Heart Rate,73,beats/min,73,73.0,beats/min,,SCREENING,1,2025-05-02,-14
STUDY001,VS,STUDY001-SUBJ0007,6,HEIGHT,Height,186.0,cm,186.0,186.0,cm,Y,BASELINE,2,2025-05-16,1
STUDY001,VS,STUDY001-SUBJ0007,7,WEIGHT,Weight,81.2,kg,81.2,81.2,kg,Y,BASELINE,2,2025-05-16,1
STUDY001,VS,STUDY001-SUBJ0007,8,TEMP,Temperature,36.0,C,36.0,36.0,C,Y,BASELINE,2,2025-05-16,1
STUDY001,VS,STUDY001-SUBJ0007,9,BP,Blood Pressure,119/92,mmHg,119/92,,mmHg,Y,BASELINE,2,2025-05-16,1
STUDY001,VS,STUDY001-SUBJ0007,10,HR,Heart Rate,78,beats/min,78,78.0,beats/min,Y,BASELINE,2,2025-05-16,1
STUDY001,VS,STUDY001-SUBJ0007,11,HEIGHT,Height,185.9,cm,185.9,185.9,cm,,WEEK 1,3,2025-05-22,7
STUDY001,VS,STUDY001-SUBJ0007,12,WEIGHT,Weight,83.1,kg,83.1,83.1,kg,,WEEK 1,3,2025-05-22,7
STUDY001,VS,STUDY001-SUBJ0007,13,TEMP,Temperature,36.2,C,36.2,36.2,C,,WEEK 1,3,2025-05-22,7
STUDY001,VS,STUDY001-SUBJ0007,14,BP,Blood Pressure,115/91,mmHg,115/91,,mmHg,,WEEK 1,3,2025-05-22,7
STUDY001,VS,STUDY001-SUBJ0007,15,HR,Heart Rate,74,beats/min,74,74.0,beats/min,,WEEK 1,3,2025-05-22,7
STUDY001,VS,STUDY001-SUBJ0007,16,HEIGHT,Height,185.9,cm,185.9,185.9,cm,,WEEK 2,4,2025-05-29,14
STUDY001,VS,STUDY001-SUBJ0007,17,WEIGHT,Weight,82.6,kg,82.6,82.6,kg,,WEEK 2,4,2025-05-29,14
STUDY001,VS,STUDY001-SUBJ0007,18,TEMP,Temperature,36.4,C,36.4,36.4,C,,WEEK 2,4,2025-05-29,14
STUDY001,VS,STUDY001-SUBJ0007,19,BP,Blood Pressure,120/94,mmHg,120/94,,mmHg,,WEEK 2,4,2025-05-29,14
STUDY001,VS,STUDY001-SUBJ0007,20,HR,Heart Rate,75,beats/min,75,75.0,beats/min,,WEEK 2,4,2025-05-29,14
STUDY001,VS,STUDY001-SUBJ0007,21,HEIGHT,Height,186.0,cm,186.0,186.0,cm,,WEEK 4,5,2025-06-12,28
STUDY001,VS,STUDY001-SUBJ0007,22,WEIGHT,Weight,82.9,kg,82.9,82.9,kg,,WEEK 4,5,2025-06-12,28
STUDY001,VS,STUDY001-SUBJ0007,23,TEMP,Temperature,36.4,C,36.4,36.4,C,,WEEK 4,5,2025-06-12,28
STUDY001,VS,STUDY001-SUBJ0007,24,BP,Blood Pressure,120/89,mmHg,120/89,,mmHg,,WEEK 4,5,2025-06-12,28
STUDY001,VS,STUDY001-SUBJ0007,25,HR,Heart Rate,78,beats/min,78,78.0,beats/min,,WEEK 4,5,2025-06-12,28
STUDY001,VS,STUDY001-SUBJ0007,26,HEIGHT,Height,185.8,cm,185.8,185.8,cm,,WEEK 8,6,2025-07-10,56
STUDY001,VS,STUDY001-SUBJ0007,27,WEIGHT,Weight,82.9,kg,82.9,82.9,kg,,WEEK 8,6,2025-07-10,56
STUDY001,VS,STUDY001-SUBJ0007,28,TEMP,Temperature,36.2,C,36.2,36.2,C,,WEEK 8,6,2025-07-10,56
STUDY001,VS,STUDY001-SUBJ0007,29,BP,Blood Pressure,113/93,mmHg,113/93,,mmHg,,WEEK 8,6,2025-07-10,56
STUDY001,VS,STUDY001-SUBJ0007,30,HR,Heart Rate,78,beats/min,78,78.0,beats/min,,WEEK 8,6,2025-07-10,56
STUDY001,VS,STUDY001-SUBJ0007,31,HEIGHT,Height,186.1,cm,186.1,186.1,cm,,WEEK 12,7,2025-08-07,84
STUDY001,VS,STUDY001-SUBJ0007,32,WEIGHT,Weight,82.5,kg,82.5,82.5,kg,,WEEK 12,7,2025-08-07,84
STUDY001,VS,STUDY001-SUBJ0007,33,TEMP,Temperature,36.1,C,36.1,36.1,C,,WEEK 12,7,2025-08-07,84
STUDY001,VS,STUDY001-SUBJ0007,34,BP,Blood Pressure,114/88,mmHg,114/88,,mmHg,,WEEK 12,7,2025-08-07,84
STUDY001,VS,STUDY001-SUBJ0007,35,HR,Heart Rate,71,beats/min,71,71.0,beats/min,,WEEK 12,7,2025-08-07,84
STUDY001,VS,STUDY001-SUBJ0007,36,HEIGHT,Height,186.0,cm,186.0,186.0,cm,,WEEK 16,8,2025-09-04,112
STUDY001,VS,STUDY001-SUBJ0007,37,WEIGHT,Weight,81.6,kg,81.6,81.6,kg,,WEEK 16,8,2025-09-04,112
STUDY001,VS,STUDY001-SUBJ0007,38,TEMP,Temperature,36.3,C,36.3,36.3,C,,WEEK 16,8,2025-09-04,112
STUDY001,VS,STUDY001-SUBJ0007,39,BP,Blood Pressure,112/95,mmHg,112/95,,mmHg,,WEEK 16,8,2025-09-04,112
STUDY001,VS,STUDY001-SUBJ0007,40,HR,Heart Rate,72,beats/min,72,72.0,beats/min,,WEEK 16,8,2025-09-04,112
STUDY001,VS,STUDY001-SUBJ0007,41,HEIGHT,Height,186.2,cm,186.2,186.2,cm,,END OF TREATMENT,9,2025-10-02,140
STUDY001,VS,STUDY001-SUBJ0007,42,WEIGHT,Weight,81.6,kg,81.6,81.6,kg,,END OF TREATMENT,9,2025-10-02,140
STUDY001,VS,STUDY001-SUBJ0007,43,TEMP,Temperature,36.4,C,36.4,36.4,C,,END OF TREATMENT,9,2025-10-02,140
STUDY001,VS,STUDY001-SUBJ0007,44,BP,Blood Pressure,116/88,mmHg,116/88,,mmHg,,END OF TREATMENT,9,2025-10-02,140
STUDY001,VS,STUDY001-SUBJ0007,45,HR,Heart Rate,72,beats/min,72,72.0,beats/min,,END OF TREATMENT,9,2025-10-02,140
STUDY001,VS,STUDY001-SUBJ0008,1,HEIGHT,Height,151.6,cm,151.6,151.6,cm,,SCREENING,1,2025-03-05,-14
STUDY001,VS,STUDY001-SUBJ0008,2,WEIGHT,Weight,57.9,kg,57.9,57.9,kg,,SCREENING,1,2025-03-05,-14
STUDY001,VS,STUDY001-SUBJ0008,3,TEMP,Temperature,35.9,C,35.9,35.9,C,,SCREENING,1,2025-03-05,-14
STUDY001,VS,STUDY001-SUBJ0008,4,BP,Blood Pressure,145/74,mmHg,145/74,,mmHg,,SCREENING,1,2025-03-05,-14
STUDY001,VS,STUDY001-SUBJ0008,5,HR,Heart Rate,59,beats/min,59,59.0,beats/min,,SCREENING,1,2025-03-05,-14
STUDY001,VS,STUDY001-SUBJ0008,6,HEIGHT,Height,151.6,cm,151.6,151.6,cm,Y,BASELINE,2,2025-03-19,1
STUDY001,VS,STUDY001-SUBJ0008,7,WEIGHT,Weight,58.5,kg,58.5,58.5,kg,Y,BASELINE,2,2025-03-19,1
STUDY001,VS,STUDY001-SUBJ0008,8,TEMP,Temperature,36.2,C,36.2,36.2,C,Y,BASELINE,2,2025-03-19,1
STUDY001,VS,STUDY001-SUBJ0008,9,BP,Blood Pressure,144/72,mmHg,144/72,,mmHg,Y,BASELINE,2,2025-03-19,1
STUDY001,VS,STUDY001-SUBJ0008,10,HR,Heart Rate,65,beats/min,65,65.0,beats/min,Y,BASELINE,2,2025-03-19,1
STUDY001,VS,STUDY001-SUBJ0008,11,HEIGHT,Height,151.6,cm,151.6,151.6,cm,,WEEK 1,3,2025-03-25,7
STUDY001,VS,STUDY001-SUBJ0008,12,WEIGHT,Weight,57.1,kg,57.1,57.1,kg,,WEEK 1,3,2025-03-25,7
STUDY001,VS,STUDY001-SUBJ0008,13,TEMP,Temperature,36.3,C,36.3,36.3,C,,WEEK 1,3,2025-03-25,7
STUDY001,VS,STUDY001-SUBJ0008,14,BP,Blood Pressure,148/74,mmHg,148/74,,mmHg,,WEEK 1,3,2025-03-25,7
STUDY001,VS,STUDY001-SUBJ0008,15,HR,Heart Rate,56,beats/min,56,56.0,beats/min,,WEEK 1,3,2025-03-25,7
STUDY001,VS,STUDY001-SUBJ0008,16,HEIGHT,Height,151.5,cm,151.5,151.5,cm,,WEEK 2,4,2025-04-01,14
STUDY001,VS,STUDY001-SUBJ0008,17,WEIGHT,Weight,58.0,kg,58.0,58.0,kg,,WEEK 2,4,2025-04-01,14
STUDY001,VS,STUDY001-SUBJ0008,18,TEMP,Temperature,36.3,C,36.3,36.3,C,,WEEK 2,4,2025-04-01,14
STUDY001,VS,STUDY001-SUBJ0008,19,BP,Blood Pressure,153/76,mmHg,153/76,,mmHg,,WEEK 2,4,2025-04-01,14
STUDY001,VS,STUDY001-SUBJ0008,20,HR,Heart Rate,61,beats/min,61,61.0,beats/min,,WEEK 2,4,2025-04-01,14
STUDY001,VS,STUDY001-SUBJ0008,21,HEIGHT,Height,151.7,cm,151.7,151.7,cm,,WEEK 4,5,2025-04-15,28
STUDY001,VS,STUDY001-SUBJ0008,22,WEIGHT,Weight,58.0,kg,58.0,58.0,kg,,WEEK 4,5,2025-04-15,28
STUDY001,VS,STUDY001-SUBJ0008,23,TEMP,Temperature,36.1,C,36.1,36.1,C,,WEEK 4,5,2025-04-15,28
STUDY001,VS,STUDY001-SUBJ0008,24,BP,Blood Pressure,148/73,mmHg,148/73,,mmHg,,WEEK 4,5,2025-04-15,28
STUDY001,VS,STUDY001-SUBJ0008,25,HR,Heart Rate,61,beats/min,61,61.0,beats/min,,WEEK 4,5,2025-04-15,28
STUDY001,VS,STUDY001-SUBJ0008,26,HEIGHT,Height,151.7,cm,151.7,151.7,cm,,WEEK 8,6,2025-05-13,56
STUDY001,VS,STUDY001-SUBJ0008,27,WEIGHT,Weight,57.5,kg,57.5,57.5,kg,,WEEK 8,6,2025-05-13,56
STUDY001,VS,STUDY001-SUBJ0008,28,TEMP,Temperature,36.1,C,36.1,36.1,C,,WEEK 8,6,2025-05-13,56
STUDY001,VS,STUDY001-SUBJ0008,29,BP,Blood Pressure,147/78,mmHg,147/78,,mmHg,,WEEK 8,6,2025-05-13,56
STUDY001,VS,STUDY001-SUBJ0008,30,HR,Heart Rate,59,beats/min,59,59.0,beats/min,,WEEK 8,6,2025-05-13,56
STUDY001,VS,STUDY001-SUBJ0008,31,HEIGHT,Height,151.6,cm,151.6,151.6,cm,,WEEK 12,7,2025-06-10,84
STUDY001,VS,STUDY001-SUBJ0008,32,WEIGHT,Weight,57.3,kg,57.3,57.3,kg,,WEEK 12,7,2025-06-10,84
STUDY001,VS,STUDY001-SUBJ0008,33,TEMP,Temperature,36.2,C,36.2,36.2,C,,WEEK 12,7,2025-06-10,84
STUDY001,VS,STUDY001-SUBJ0008,34,BP,Blood Pressure,146/76,mmHg,146/76,,mmHg,,WEEK 12,7,2025-06-10,84
STUDY001,VS,STUDY001-SUBJ0008,35,HR,Heart Rate,60,beats/min,60,60.0,beats/min,,WEEK 12,7,2025-06-10,84
STUDY001,VS,STUDY001-SUBJ0008,36,HEIGHT,Height,151.6,cm,151.6,151.6,cm,,WEEK 16,8,2025-07-08,112
STUDY001,VS,STUDY001-SUBJ0008,37,WEIGHT,Weight,57.6,kg,57.6,57.6,kg,,WEEK 16,8,2025-07-08,112
STUDY001,VS,STUDY001-SUBJ0008,38,TEMP,Temperature,36.5,C,36.5,36.5,C,,WEEK 16,8,2025-07-08,112
STUDY001,VS,STUDY001-SUBJ0008,39,BP,Blood Pressure,145/74,mmHg,145/74,,mmHg,,WEEK 16,8,2025-07-08,112
STUDY001,VS,STUDY001-SUBJ0008,40,HR,Heart Rate,59,beats/min,59,59.0,beats/min,,WEEK 16,8,2025-07-08,112
STUDY001,VS,STUDY001-SUBJ0008,41,HEIGHT,Height,151.7,cm,151.7,151.7,cm,,END OF TREATMENT,9,2025-08-05,140
STUDY001,VS,STUDY001-SUBJ0008,42,WEIGHT,Weight,58.3,kg,58.3,58.3,kg,,END OF TREATMENT,9,2025-08-05,140
STUDY001,VS,STUDY001-SUBJ0008,43,TEMP,Temperature,36.3,C,36.3,36.3,C,,END OF TREATMENT,9,2025-08-05,140
STUDY001,VS,STUDY001-SUBJ0008,44,BP,Blood Pressure,147/77,mmHg,147/77,,mmHg,,END OF TREATMENT,9,2025-08-05,140
STUDY001,VS,STUDY001-SUBJ0008,45,HR,Heart Rate,63,beats/min,63,63.0,beats/min,,END OF TREATMENT,9,2025-08-05,140
STUDY001,VS,STUDY001-SUBJ0009,1,HEIGHT,Height,175.7,cm,175.7,175.7,cm,,SCREENING,1,2025-02-06,-14
STUDY001,VS,STUDY001-SUBJ0009,2,WEIGHT,Weight,66.5,kg,66.5,66.5,kg,,SCREENING,1,2025-02-06,-14
STUDY001,VS,STUDY001-SUBJ0009,3,TEMP,Temperature,36.8,C,36.8,36.8,C,,SCREENING,1,2025-02-06,-14
STUDY001,VS,STUDY001-SUBJ0009,4,BP,Blood Pressure,127/67,mmHg,127/67,,mmHg,,SCREENING,1,2025-02-06,-14
STUDY001,VS,STUDY001-SUBJ0009,5,HR,Heart Rate,84,beats/min,84,84.0,beats/min,,SCREENING,1,2025-02-06,-14
STUDY001,VS,STUDY001-SUBJ0009,6,HEIGHT,Height,175.8,cm,175.8,175.8,cm,Y,BASELINE,2,2025-02-20,1
STUDY001,VS,STUDY001-SUBJ0009,7,WEIGHT,Weight,67.6,kg,67.6,67.6,kg,Y,BASELINE,2,2025-02-20,1
STUDY001,VS,STUDY001-SUBJ0009,8,TEMP,Temperature,36.5,C,36.5,36.5,C,Y,BASELINE,2,2025-02-20,1
STUDY001,VS,STUDY001-SUBJ0009,9,BP,Blood Pressure,125/75,mmHg,125/75,,mmHg,Y,BASELINE,2,2025-02-20,1
STUDY001,VS,STUDY001-SUBJ0009,10,HR,Heart Rate,88,beats/min,88,88.0,beats/min,Y,BASELINE,2,2025-02-20,1
STUDY001,VS,STUDY001-SUBJ0009,11,HEIGHT,Height,175.6,cm,175.6,175.6,cm,,WEEK 1,3,2025-02-26,7
STUDY001,VS,STUDY001-SUBJ0009,12,WEIGHT,Weight,66.2,kg,66.2,66.2,kg,,WEEK 1,3,2025-02-26,7
STUDY001,VS,STUDY001-SUBJ0009,13,TEMP,Temperature,36.6,C,36.6,36.6,C,,WEEK 1,3,2025-02-26,7
STUDY001,VS,STUDY001-SUBJ0009,14,BP,Blood Pressure,119/75,mmHg,119/75,,mmHg,,WEEK 1,3,2025-02-26,7
STUDY001,VS,STUDY001-SUBJ0009,15,HR,Heart Rate,91,beats/min,91,91.0,beats/min,,WEEK 1,3,2025-02-26,7
STUDY001,VS,STUDY001-SUBJ0009,16,HEIGHT,Height,175.7,cm,175.7,175.7,cm,,WEEK 2,4,2025-03-05,14
STUDY001,VS,STUDY001-SUBJ0009,17,WEIGHT,Weight,66.4,kg,66.4,66.4,kg,,WEEK 2,4,2025-03-05,14
STUDY001,VS,STUDY001-SUBJ0009,18,TEMP,Temperature,36.8,C,36.8,36.8,C,,WEEK 2,4,2025-03-05,14
STUDY001,VS,STUDY001-SUBJ0009,19,BP,Blood Pressure,122/71,mmHg,122/71,,mmHg,,WEEK 2,4,2025-03-05,14
STUDY001,VS,STUDY001-SUBJ0009,20,HR,Heart Rate,83,beats/min,83,83.0,beats/min,,WEEK 2,4,2025-03-05,14
STUDY001,VS,STUDY001-SUBJ0009,21,HEIGHT,Height,175.8,cm,175.8,175.8,cm,,WEEK 4,5,2025-03-19,28
STUDY001,VS,STUDY001-SUBJ0009,22,WEIGHT,Weight,67.5,kg,67.5,67.5,kg,,WEEK 4,5,2025-03-19,28
STUDY001,VS,STUDY001-SUBJ0009,23,TEMP,Temperature,36.7,C,36.7,36.7,C,,WEEK 4,5,2025-03-19,28
STUDY001,VS,STUDY001-SUBJ0009,24,BP,Blood Pressure,125/72,mmHg,125/72,,mmHg,,WEEK 4,5,2025-03-19,28
STUDY001,VS,STUDY001-SUBJ0009,25,HR,Heart Rate,84,beats/min,84,84.0,beats/min,,WEEK 4,5,2025-03-19,28
STUDY001,VS,STUDY001-SUBJ0009,26,HEIGHT,Height,175.7,cm,175.7,175.7,cm,,WEEK 8,6,2025-04-16,56
STUDY001,VS,STUDY001-SUBJ0009,27,WEIGHT,Weight,65.9,kg,65.9,65.9,kg,,WEEK 8,6,2025-04-16,56
STUDY001,VS,STUDY001-SUBJ0009,28,TEMP,Temperature,36.7,C,36.7,36.7,C,,WEEK 8,6,2025-04-16,56
STUDY001,VS,STUDY001-SUBJ0009,29,BP,Blood Pressure,123/69,mmHg,123/69,,mmHg,,WEEK 8,6,2025-04-16,56
STUDY001,VS,STUDY001-SUBJ0009,30,HR,Heart Rate,91,beats/min,91,91.0,beats/min,,WEEK 8,6,2025-04-16,56
STUDY001,VS,STUDY001-SUBJ0009,31,HEIGHT,Height,175.7,cm,175.7,175.7,cm,,WEEK 12,7,2025-05-14,84
STUDY001,VS,STUDY001-SUBJ0009,32,WEIGHT,Weight,66.5,kg,66.5,66.5,kg,,WEEK 12,7,2025-05-14,84
STUDY001,VS,STUDY001-SUBJ0009,33,TEMP,Temperature,36.9,C,36.9,36.9,C,,WEEK 12,7,2025-05-14,84
STUDY001,VS,STUDY001-SUBJ0009,34,BP,Blood Pressure,124/74,mmHg,124/74,,mmHg,,WEEK 12,7,2025-05-14,84
STUDY001,VS,STUDY001-SUBJ0009,35,HR,Heart Rate,85,beats/min,85,85.0,beats/min,,WEEK 12,7,2025-05-14,84
STUDY001,VS,STUDY001-SUBJ0009,36,HEIGHT,Height,175.5,cm,175.5,175.5,cm,,WEEK 16,8,2025-06-11,112
STUDY001,VS,STUDY001-SUBJ0009,37,WEIGHT,Weight,66.0,kg,66.0,66.0,kg,,WEEK 16,8,2025-06-11,112
STUDY001,VS,STUDY001-SUBJ0009,38,TEMP,Temperature,37.0,C,37.0,37.0,C,,WEEK 16,8,2025-06-11,112
STUDY001,VS,STUDY001-SUBJ0009,39,BP,Blood Pressure,125/75,mmHg,125/75,,mmHg,,WEEK 16,8,2025-06-11,112
STUDY001,VS,STUDY001-SUBJ0009,40,HR,Heart Rate,93,beats/min,93,93.0,beats/min,,WEEK 16,8,2025-06-11,112
STUDY001,VS,STUDY001-SUBJ0009,41,HEIGHT,Height,175.8,cm,175.8,175.8,cm,,END OF TREATMENT,9,2025-07-09,140
STUDY001,VS,STUDY001-SUBJ0009,42,WEIGHT,Weight,67.7,kg,67.7,67.7,kg,,END OF TREATMENT,9,2025-07-09,140
STUDY001,VS,STUDY001-SUBJ0009,43,TEMP,Temperature,36.4,C,36.4,36.4,C,,END OF TREATMENT,9,2025-07-09,140
STUDY001,VS,STUDY001-SUBJ0009,44,BP,Blood Pressure,122/70,mmHg,122/70,,mmHg,,END OF TREATMENT,9,2025-07-09,140
STUDY001,VS,STUDY001-SUBJ0009,45,HR,Heart Rate,91,beats/min,91,91.0,beats/min,,END OF TREATMENT,9,2025-07-09,140
STUDY001,VS,STUDY001-SUBJ0010,1,HEIGHT,Height,163.8,cm,163.8,163.8,cm,,SCREENING,1,2024-12-31,-14
STUDY001,VS,STUDY001-SUBJ0010,2,WEIGHT,Weight,108.5,kg,108.5,108.5,kg,,SCREENING,1,2024-12-31,-14
STUDY001,VS,STUDY001-SUBJ0010,3,TEMP,Temperature,35.9,C,35.9,35.9,C,,SCREENING,1,2024-12-31,-14
STUDY001,VS,STUDY001-SUBJ0010,4,BP,Blood Pressure,103/73,mmHg,103/73,,mmHg,,SCREENING,1,2024-12-31,-14
STUDY001,VS,STUDY001-SUBJ0010,5,HR,Heart Rate,85,beats/min,85,85.0,beats/min,,SCREENING,1,2024-12-31,-14
STUDY001,VS,STUDY001-SUBJ0010,6,HEIGHT,Height,163.7,cm,163.7,163.7,cm,Y,BASELINE,2,2025-01-14,1
STUDY001,VS,STUDY001-SUBJ0010,7,WEIGHT,Weight,110.1,kg,110.1,110.1,kg,Y,BASELINE,2,2025-01-14,1
STUDY001,VS,STUDY001-SUBJ0010,8,TEMP,Temperature,36.0,C,36.0,36.0,C,Y,BASELINE,2,2025-01-14,1
STUDY001,VS,STUDY001-SUBJ0010,9,BP,Blood Pressure,103/75,mmHg,103/75,,mmHg,Y,BASELINE,2,2025-01-14,1
STUDY001,VS,STUDY001-SUBJ0010,10,HR,Heart Rate,82,beats/min,82,82.0,beats/min,Y,BASELINE,2,2025-01-14,1
STUDY001,VS,STUDY001-SUBJ0010,11,HEIGHT,Height,163.9,cm,163.9,163.9,cm,,WEEK 1,3,2025-01-20,7
STUDY001,VS,STUDY001-SUBJ0010,12,WEIGHT,Weight,108.4,kg,108.4,108.4,kg,,WEEK 1,3,2025-01-20,7
STUDY001,VS,STUDY001-SUBJ0010,13,TEMP,Temperature,36.2,C,36.2,36.2,C,,WEEK 1,3,2025-01-20,7
STUDY001,VS,STUDY001-SUBJ0010,14,BP,Blood Pressure,104/71,mmHg,104/71,,mmHg,,WEEK 1,3,2025-01-20,7
STUDY001,VS,STUDY001-SUBJ0010,15,HR,Heart Rate,80,beats/min,80,80.0,beats/min,,WEEK 1,3,2025-01-20,7
STUDY001,VS,STUDY001-SUBJ0010,16,HEIGHT,Height,163.7,cm,163.7,163.7,cm,,WEEK 2,4,2025-01-27,14
STUDY001,VS,STUDY001-SUBJ0010,17,WEIGHT,Weight,108.5,kg,108.5,108.5,kg,,WEEK 2,4,2025-01-27,14
STUDY001,VS,STUDY001-SUBJ0010,18,TEMP,Temperature,35.9,C,35.9,35.9,C,,WEEK 2,4,2025-01-27,14
STUDY001,VS,STUDY001-SUBJ0010,19,BP,Blood Pressure,105/69,mmHg,105/69,,mmHg,,WEEK 2,4,2025-01-27,14
STUDY001,VS,STUDY001-SUBJ0010,20,HR,Heart Rate,80,beats/min,80,80.0,beats/min,,WEEK 2,4,2025-01-27,14
STUDY001,VS,STUDY001-SUBJ0010,21,HEIGHT,Height,163.6,cm,163.6,163.6,cm,,WEEK 4,5,2025-02-10,28
STUDY001,VS,STUDY001-SUBJ0010,22,WEIGHT,Weight,109.8,kg,109.8,109.8,kg,,WEEK 4,5,2025-02-10,28
STUDY001,VS,STUDY001-SUBJ0010,23,TEMP,Temperature,36.3,C,36.3,36.3,C,,WEEK 4,5,2025-02-10,28
STUDY001,VS,STUDY001-SUBJ0010,24,BP,Blood Pressure,99/74,mmHg,99/74,,mmHg,,WEEK 4,5,2025-02-10,28
STUDY001,VS,STUDY001-SUBJ0010,25,HR,Heart Rate,83,beats/min,83,83.0,beats/min,,WEEK 4,5,2025-02-10,28
STUDY001,VS,STUDY001-SUBJ0010,26,HEIGHT,Height,163.7,cm,163.7,163.7,cm,,WEEK 8,6,2025-03-10,56
STUDY001,VS,STUDY001-SUBJ0010,27,WEIGHT,Weight,109.6,kg,109.6,109.6,kg,,WEEK 8,6,2025-03-10,56
STUDY001,VS,STUDY001-SUBJ0010,28,TEMP,Temperature,35.9,C,35.9,35.9,C,,WEEK 8,6,2025-03-10,56
STUDY001,VS,STUDY001-SUBJ0010,29,BP,Blood Pressure,101/74,mmHg,101/74,,mmHg,,WEEK 8,6,2025-03-10,56
STUDY001,VS,STUDY001-SUBJ0010,30,HR,Heart Rate,84,beats/min,84,84.0,beats/min,,WEEK 8,6,2025-03-10,56
STUDY001,VS,STUDY001-SUBJ0010,31,HEIGHT,Height,163.9,cm,163.9,163.9,cm,,WEEK 12,7,2025-04-07,84
STUDY001,VS,STUDY001-SUBJ0010,32,WEIGHT,Weight,109.3,kg,109.3,109.3,kg,,WEEK 12,7,2025-04-07,84
STUDY001,VS,STUDY001-SUBJ0010,33,TEMP,Temperature,36.2,C,36.2,36.2,C,,WEEK 12,7,2025-04-07,84
STUDY001,VS,STUDY001-SUBJ0010,34,BP,Blood Pressure,98/77,mmHg,98/77,,mmHg,,WEEK 12,7,2025-04-07,84
STUDY001,VS,STUDY001-SUBJ0010,35,HR,Heart Rate,85,beats/min,85,85.0,beats/min,,WEEK 12,7,2025-04-07,84
STUDY001,VS,STUDY001-SUBJ0010,36,HEIGHT,Height,163.9,cm,163.9,163.9,cm,,WEEK 16,8,2025-05-05,112
STUDY001,VS,STUDY001-SUBJ0010,37,WEIGHT,Weight,108.7,kg,108.7,108.7,kg,,WEEK 16,8,2025-05-05,112
STUDY001,VS,STUDY001-SUBJ0010,38,TEMP,Temperature,35.9,C,35.9,35.9,C,,WEEK 16,8,2025-05-05,112
STUDY001,VS,STUDY001-SUBJ0010,39,BP,Blood Pressure,104/70,mmHg,104/70,,mmHg,,WEEK 16,8,2025-05-05,112
STUDY001,VS,STUDY001-SUBJ0010,40,HR,Heart Rate,84,beats/min,84,84.0,beats/min,,WEEK 16,8,2025-05-05,112
STUDY001,VS,STUDY001-SUBJ0010,41,HEIGHT,Height,163.8,cm,163.8,163.8,cm,,END OF TREATMENT,9,2025-06-02,140
STUDY001,VS,STUDY001-SUBJ0010,42,WEIGHT,Weight,108.6,kg,108.6,108.6,kg,,END OF TREATMENT,9,2025-06-02,140
STUDY001,VS,STUDY001-SUBJ0010,43,TEMP,Temperature,36.1,C,36.1,36.1,C,,END OF TREATMENT,9,2025-06-02,140
STUDY001,VS,STUDY001-SUBJ0010,44,BP,Blood Pressure,99/74,mmHg,99/74,,mmHg,,END OF TREATMENT,9,2025-06-02,140
STUDY001,VS,STUDY001-SUBJ0010,45,HR,Heart Rate,83,beats/min,83,83.0,beats/min,,END OF TREATMENT,9,2025-06-02,140
