STUDYID,DOMAIN,USUBJID,SUBJID,RFSTDTC,RFENDTC,RFXSTDTC,RFXENDTC,RFICDTC,RFPENDTC,DTHDTC,DTHFL,SITEID,AGE,AGEU,SEX,RACE,ETHNIC,ARMCD,ARM,ACTARMCD,ACTARM,COUNTRY,DMDTC,DMDY
STUDY001,DM,STUDY001-SUBJ0001,SUBJ0001,2025-02-26,2025-08-09,2025-06-11,2025-08-13,2025-01-27,2025-08-09,,,5,61,YEARS,M,AMERICAN INDIAN OR ALASKA NATIVE,NOT HISPANIC OR LATINO,ARM1,Treatment 3,ARM1,Treatment 3,MV,2025-05-19,15
STUDY001,DM,STUDY001-SUBJ0002,SUBJ0002,2024-09-13,2025-07-31,2025-05-06,2025-08-01,2025-04-03,2025-07-31,,,9,78,YEARS,M,AMERICAN INDIAN OR ALASKA NATIVE,NOT HISPANIC OR LATINO,ARM2,Treatment 2,ARM2,Treatment 2,MR,2025-01-31,1
STUDY001,DM,STUDY001-SUBJ0003,SUBJ0003,2024-11-11,2025-08-11,2024-12-12,2025-08-18,2024-12-30,2025-08-11,,,33,22,YEARS,M,ASIAN,NOT HISPANIC OR LATINO,ARM3,Treatment 2,ARM3,Treatment 2,JP,2025-06-04,12
STUDY001,DM,STUDY001-SUBJ0004,SUBJ0004,2024-09-14,2025-07-30,2025-04-14,2025-08-18,2024-10-02,2025-07-30,,,50,63,YEARS,F,ASIAN,HISPANIC OR LATINO,ARM1,Treatment 3,ARM1,Treatment 3,VA,2025-04-12,7
STUDY001,DM,STUDY001-SUBJ0005,SUBJ0005,2024-09-14,2025-07-27,2025-05-06,2025-07-27,2025-07-23,2025-07-27,,,30,40,YEARS,F,ASIAN,HISPANIC OR LATINO,ARM2,Treatment 1,ARM2,Treatment 1,AL,2025-07-22,8
STUDY001,DM,STUDY001-SUBJ0006,SUBJ0006,2025-02-23,2025-08-18,2024-11-25,2025-07-27,2024-10-03,2025-08-18,,,14,62,YEARS,F,WHITE,NOT HISPANIC OR LATINO,ARM3,Treatment 2,ARM3,Treatment 2,BN,2024-10-06,25
STUDY001,DM,STUDY001-SUBJ0007,SUBJ0007,2025-03-06,2025-08-02,2025-04-19,2025-08-07,2024-11-24,2025-08-02,,,45,78,YEARS,M,AMERICAN INDIAN OR ALASKA NATIVE,NOT HISPANIC OR LATINO,ARM1,Treatment 2,ARM1,Treatment 2,PE,2025-05-10,6
STUDY001,DM,STUDY001-SUBJ0008,SUBJ0008,2025-05-13,2025-08-03,2025-02-10,2025-08-13,2025-04-09,2025-08-03,,,14,63,YEARS,M,WHITE,HISPANIC OR LATINO,ARM2,Treatment 1,ARM2,Treatment 1,AR,2024-12-14,29
STUDY001,DM,STUDY001-SUBJ0009,SUBJ0009,2025-03-23,2025-08-10,2025-01-11,2025-08-01,2024-12-26,2025-08-10,,,29,56,YEARS,F,AMERICAN INDIAN OR ALASKA NATIVE,HISPANIC OR LATINO,ARM3,Treatment 3,ARM3,Treatment 3,SN,2025-05-19,9
STUDY001,DM,STUDY001-SUBJ0010,SUBJ0010,2025-02-07,2025-08-13,2024-09-11,2025-08-11,2025-07-08,2025-08-13,,,8,62,YEARS,M,BLACK OR AFRICAN AMERICAN,HISPANIC OR LATINO,ARM1,Treatment 1,ARM1,Treatment 1,ES,2024-09-04,5
