STUDYID,DOMAIN,USUBJID,LBSEQ,LBREFID,LBTESTCD,LBTEST,LBCAT,LBORRES,LBORRESU,LBORNRLO,LBORNRHI,LBSTRESC,LBSTRESN,LBSTRESU,LBSTNRLO,LBSTNRHI,LBNRIND,LBBLFL,VISIT,VISITNUM,LBDTC,LBDY
STUDY001,LB,STUDY001-SUBJ0001,1,L00001,HGB,Hemoglobin,HEMATOLOGY,13.63,g/dL,13.5,17.5,13.63,13.63,g/dL,13.5,17.5,NORMAL,,SCREENING,1,2024-12-22,-14
STUDY001,LB,STUDY001-SUBJ0001,2,L00002,HCT,Hematocrit,HEMATOLOGY,47.3,%,41.0,51.0,47.3,47.3,%,41.0,51.0,NORMAL,,SCREENING,1,2024-12-22,-14
STUDY001,LB,STUDY001-SUBJ0001,3,L00003,WBC,White Blood Cell Count,HEMATOLOGY,7.48,10^9/L,4.5,11.0,7.48,7.48,10^9/L,4.5,11.0,NORMAL,,SCREENING,1,2024-12-22,-14
STUDY001,LB,STUDY001-SUBJ0001,4,L00004,PLT,Platelet Count,HEMATOLOGY,300.34,10^9/L,150.0,450.0,300.34,300.34,10^9/L,150.0,450.0,NORMAL,,SCREENING,1,2024-12-22,-14
STUDY001,LB,STUDY001-SUBJ0001,5,L00005,GLUC,Glucose,CHEMISTRY,64.11,mg/dL,70.0,100.0,64.11,64.11,mg/dL,70.0,100.0,LOW,,SCREENING,1,2024-12-22,-14
STUDY001,LB,STUDY001-SUBJ0001,6,L00006,BUN,Blood Urea Nitrogen,CHEMISTRY,12.37,mg/dL,7.0,20.0,12.37,12.37,mg/dL,7.0,20.0,NORMAL,,SCREENING,1,2024-12-22,-14
STUDY001,LB,STUDY001-SUBJ0001,7,L00007,CREAT,Creatinine,CHEMISTRY,0.95,mg/dL,0.6,1.2,0.95,0.95,mg/dL,0.6,1.2,NORMAL,,SCREENING,1,2024-12-22,-14
STUDY001,LB,STUDY001-SUBJ0001,8,L00008,BILI,Total Bilirubin,CHEMISTRY,0.28,mg/dL,0.1,1.2,0.28,0.28,mg/dL,0.1,1.2,NORMAL,,SCREENING,1,2024-12-22,-14
STUDY001,LB,STUDY001-SUBJ0001,9,L00009,ALP,Alkaline Phosphatase,CHEMISTRY,84.39,U/L,44.0,147.0,84.39,84.39,U/L,44.0,147.0,NORMAL,,SCREENING,1,2024-12-22,-14
STUDY001,LB,STUDY001-SUBJ0001,10,L00010,ALT,Alanine Aminotransferase,CHEMISTRY,34.33,U/L,7.0,56.0,34.33,34.33,U/L,7.0,56.0,NORMAL,,SCREENING,1,2024-12-22,-14
STUDY001,LB,STUDY001-SUBJ0001,11,L00011,HGB,Hemoglobin,HEMATOLOGY,13.82,g/dL,13.5,17.5,13.82,13.82,g/dL,13.5,17.5,NORMAL,Y,BASELINE,2,2025-01-05,1
STUDY001,LB,STUDY001-SUBJ0001,12,L00012,HCT,Hematocrit,HEMATOLOGY,47.58,%,41.0,51.0,47.58,47.58,%,41.0,51.0,NORMAL,Y,BASELINE,2,2025-01-05,1
STUDY001,LB,STUDY001-SUBJ0001,13,L00013,WBC,White Blood Cell Count,HEMATOLOGY,7.66,10^9/L,4.5,11.0,7.66,7.66,10^9/L,4.5,11.0,NORMAL,Y,BASELINE,2,2025-01-05,1
STUDY001,LB,STUDY001-SUBJ0001,14,L00014,PLT,Platelet Count,HEMATOLOGY,287.45,10^9/L,150.0,450.0,287.45,287.45,10^9/L,150.0,450.0,NORMAL,Y,BASELINE,2,2025-01-05,1
STUDY001,LB,STUDY001-SUBJ0001,15,L00015,GLUC,Glucose,CHEMISTRY,64.85,mg/dL,70.0,100.0,64.85,64.85,mg/dL,70.0,100.0,LOW,Y,BASELINE,2,2025-01-05,1
STUDY001,LB,STUDY001-SUBJ0001,16,L00016,BUN,Blood Urea Nitrogen,CHEMISTRY,13.02,mg/dL,7.0,20.0,13.02,13.02,mg/dL,7.0,20.0,NORMAL,Y,BASELINE,2,2025-01-05,1
STUDY001,LB,STUDY001-SUBJ0001,17,L00017,CREAT,Creatinine,CHEMISTRY,0.95,mg/dL,0.6,1.2,0.95,0.95,mg/dL,0.6,1.2,NORMAL,Y,BASELINE,2,2025-01-05,1
STUDY001,LB,STUDY001-SUBJ0001,18,L00018,BILI,Total Bilirubin,CHEMISTRY,0.25,mg/dL,0.1,1.2,0.25,0.25,mg/dL,0.1,1.2,NORMAL,Y,BASELINE,2,2025-01-05,1
STUDY001,LB,STUDY001-SUBJ0001,19,L00019,ALP,Alkaline Phosphatase,CHEMISTRY,82.11,U/L,44.0,147.0,82.11,82.11,U/L,44.0,147.0,NORMAL,Y,BASELINE,2,2025-01-05,1
STUDY001,LB,STUDY001-SUBJ0001,20,L00020,ALT,Alanine Aminotransferase,CHEMISTRY,32.77,U/L,7.0,56.0,32.77,32.77,U/L,7.0,56.0,NORMAL,Y,BASELINE,2,2025-01-05,1
STUDY001,LB,STUDY001-SUBJ0001,21,L00021,HGB,Hemoglobin,HEMATOLOGY,13.71,g/dL,13.5,17.5,13.71,13.71,g/dL,13.5,17.5,NORMAL,,WEEK 1,3,2025-01-11,7
STUDY001,LB,STUDY001-SUBJ0001,22,L00022,HCT,Hematocrit,HEMATOLOGY,47.79,%,41.0,51.0,47.79,47.79,%,41.0,51.0,NORMAL,,WEEK 1,3,2025-01-11,7
STUDY001,LB,STUDY001-SUBJ0001,23,L00023,WBC,White Blood Cell Count,HEMATOLOGY,7.55,10^9/L,4.5,11.0,7.55,7.55,10^9/L,4.5,11.0,NORMAL,,WEEK 1,3,2025-01-11,7
STUDY001,LB,STUDY001-SUBJ0001,24,L00024,PLT,Platelet Count,HEMATOLOGY,283.42,10^9/L,150.0,450.0,283.42,283.42,10^9/L,150.0,450.0,NORMAL,,WEEK 1,3,2025-01-11,7
STUDY001,LB,STUDY001-SUBJ0001,25,L00025,GLUC,Glucose,CHEMISTRY,64.57,mg/dL,70.0,100.0,64.57,64.57,mg/dL,70.0,100.0,LOW,,WEEK 1,3,2025-01-11,7
STUDY001,LB,STUDY001-SUBJ0001,26,L00026,BUN,Blood Urea Nitrogen,CHEMISTRY,13.22,mg/dL,7.0,20.0,13.22,13.22,mg/dL,7.0,20.0,NORMAL,,WEEK 1,3,2025-01-11,7
STUDY001,LB,STUDY001-SUBJ0001,27,L00027,CREAT,Creatinine,CHEMISTRY,0.95,mg/dL,0.6,1.2,0.95,0.95,mg/dL,0.6,1.2,NORMAL,,WEEK 1,3,2025-01-11,7
STUDY001,LB,STUDY001-SUBJ0001,28,L00028,BILI,Total Bilirubin,CHEMISTRY,0.27,mg/dL,0.1,1.2,0.27,0.27,mg/dL,0.1,1.2,NORMAL,,WEEK 1,3,2025-01-11,7
STUDY001,LB,STUDY001-SUBJ0001,29,L00029,ALP,Alkaline Phosphatase,CHEMISTRY,81.26,U/L,44.0,147.0,81.26,81.26,U/L,44.0,147.0,NORMAL,,WEEK 1,3,2025-01-11,7
STUDY001,LB,STUDY001-SUBJ0001,30,L00030,ALT,Alanine Aminotransferase,CHEMISTRY,33.7,U/L,7.0,56.0,33.7,33.7,U/L,7.0,56.0,NORMAL,,WEEK 1,3,2025-01-11,7
STUDY001,LB,STUDY001-SUBJ0001,31,L00031,HGB,Hemoglobin,HEMATOLOGY,13.87,g/dL,13.5,17.5,13.87,13.87,g/dL,13.5,17.5,NORMAL,,WEEK 2,4,2025-01-18,14
STUDY001,LB,STUDY001-SUBJ0001,32,L00032,HCT,Hematocrit,HEMATOLOGY,47.62,%,41.0,51.0,47.62,47.62,%,41.0,51.0,NORMAL,,WEEK 2,4,2025-01-18,14
STUDY001,LB,STUDY001-SUBJ0001,33,L00033,WBC,White Blood Cell Count,HEMATOLOGY,7.7,10^9/L,4.5,11.0,7.7,7.7,10^9/L,4.5,11.0,NORMAL,,WEEK 2,4,2025-01-18,14
STUDY001,LB,STUDY001-SUBJ0001,34,L00034,PLT,Platelet Count,HEMATOLOGY,289.74,10^9/L,150.0,450.0,289.74,289.74,10^9/L,150.0,450.0,NORMAL,,WEEK 2,4,2025-01-18,14
STUDY001,LB,STUDY001-SUBJ0001,35,L00035,GLUC,Glucose,CHEMISTRY,65.84,mg/dL,70.0,100.0,65.84,65.84,mg/dL,70.0,100.0,LOW,,WEEK 2,4,2025-01-18,14
STUDY001,LB,STUDY001-SUBJ0001,36,L00036,BUN,Blood Urea Nitrogen,CHEMISTRY,12.99,mg/dL,7.0,20.0,12.99,12.99,mg/dL,7.0,20.0,NORMAL,,WEEK 2,4,2025-01-18,14
STUDY001,LB,STUDY001-SUBJ0001,37,L00037,CREAT,Creatinine,CHEMISTRY,0.95,mg/dL,0.6,1.2,0.95,0.95,mg/dL,0.6,1.2,NORMAL,,WEEK 2,4,2025-01-18,14
STUDY001,LB,STUDY001-SUBJ0001,38,L00038,BILI,Total Bilirubin,CHEMISTRY,0.27,mg/dL,0.1,1.2,0.27,0.27,mg/dL,0.1,1.2,NORMAL,,WEEK 2,4,2025-01-18,14
STUDY001,LB,STUDY001-SUBJ0001,39,L00039,ALP,Alkaline Phosphatase,CHEMISTRY,79.68,U/L,44.0,147.0,79.68,79.68,U/L,44.0,147.0,NORMAL,,WEEK 2,4,2025-01-18,14
STUDY001,LB,STUDY001-SUBJ0001,40,L00040,ALT,Alanine Aminotransferase,CHEMISTRY,34.71,U/L,7.0,56.0,34.71,34.71,U/L,7.0,56.0,NORMAL,,WEEK 2,4,2025-01-18,14
STUDY001,LB,STUDY001-SUBJ0001,41,L00041,HGB,Hemoglobin,HEMATOLOGY,13.77,g/dL,13.5,17.5,13.77,13.77,g/dL,13.5,17.5,NORMAL,,WEEK 4,5,2025-02-01,28
STUDY001,LB,STUDY001-SUBJ0001,42,L00042,HCT,Hematocrit,HEMATOLOGY,47.71,%,41.0,51.0,47.71,47.71,%,41.0,51.0,NORMAL,,WEEK 4,5,2025-02-01,28
STUDY001,LB,STUDY001-SUBJ0001,43,L00043,WBC,White Blood Cell Count,HEMATOLOGY,7.66,10^9/L,4.5,11.0,7.66,7.66,10^9/L,4.5,11.0,NORMAL,,WEEK 4,5,2025-02-01,28
STUDY001,LB,STUDY001-SUBJ0001,44,L00044,PLT,Platelet Count,HEMATOLOGY,288.98,10^9/L,150.0,450.0,288.98,288.98,10^9/L,150.0,450.0,NORMAL,,WEEK 4,5,2025-02-01,28
STUDY001,LB,STUDY001-SUBJ0001,45,L00045,GLUC,Glucose,CHEMISTRY,66.31,mg/dL,70.0,100.0,66.31,66.31,mg/dL,70.0,100.0,LOW,,WEEK 4,5,2025-02-01,28
STUDY001,LB,STUDY001-SUBJ0001,46,L00046,BUN,Blood Urea Nitrogen,CHEMISTRY,13.08,mg/dL,7.0,20.0,13.08,13.08,mg/dL,7.0,20.0,NORMAL,,WEEK 4,5,2025-02-01,28
STUDY001,LB,STUDY001-SUBJ0001,47,L00047,CREAT,Creatinine,CHEMISTRY,0.92,mg/dL,0.6,1.2,0.92,0.92,mg/dL,0.6,1.2,NORMAL,,WEEK 4,5,2025-02-01,28
STUDY001,LB,STUDY001-SUBJ0001,48,L00048,BILI,Total Bilirubin,CHEMISTRY,0.26,mg/dL,0.1,1.2,0.26,0.26,mg/dL,0.1,1.2,NORMAL,,WEEK 4,5,2025-02-01,28
STUDY001,LB,STUDY001-SUBJ0001,49,L00049,ALP,Alkaline Phosphatase,CHEMISTRY,81.44,U/L,44.0,147.0,81.44,81.44,U/L,44.0,147.0,NORMAL,,WEEK 4,5,2025-02-01,28
STUDY001,LB,STUDY001-SUBJ0001,50,L00050,ALT,Alanine Aminotransferase,CHEMISTRY,34.49,U/L,7.0,56.0,34.49,34.49,U/L,7.0,56.0,NORMAL,,WEEK 4,5,2025-02-01,28
STUDY001,LB,STUDY001-SUBJ0001,51,L00051,HGB,Hemoglobin,HEMATOLOGY,13.57,g/dL,13.5,17.5,13.57,13.57,g/dL,13.5,17.5,NORMAL,,WEEK 8,6,2025-03-01,56
STUDY001,LB,STUDY001-SUBJ0001,52,L00052,HCT,Hematocrit,HEMATOLOGY,47.22,%,41.0,51.0,47.22,47.22,%,41.0,51.0,NORMAL,,WEEK 8,6,2025-03-01,56
STUDY001,LB,STUDY001-SUBJ0001,53,L00053,WBC,White Blood Cell Count,HEMATOLOGY,7.65,10^9/L,4.5,11.0,7.65,7.65,10^9/L,4.5,11.0,NORMAL,,WEEK 8,6,2025-03-01,56
STUDY001,LB,STUDY001-SUBJ0001,54,L00054,PLT,Platelet Count,HEMATOLOGY,290.45,10^9/L,150.0,450.0,290.45,290.45,10^9/L,150.0,450.0,NORMAL,,WEEK 8,6,2025-03-01,56
STUDY001,LB,STUDY001-SUBJ0001,55,L00055,GLUC,Glucose,CHEMISTRY,66.24,mg/dL,70.0,100.0,66.24,66.24,mg/dL,70.0,100.0,LOW,,WEEK 8,6,2025-03-01,56
STUDY001,LB,STUDY001-SUBJ0001,56,L00056,BUN,Blood Urea Nitrogen,CHEMISTRY,12.59,mg/dL,7.0,20.0,12.59,12.59,mg/dL,7.0,20.0,NORMAL,,WEEK 8,6,2025-03-01,56
STUDY001,LB,STUDY001-SUBJ0001,57,L00057,CREAT,Creatinine,CHEMISTRY,0.94,mg/dL,0.6,1.2,0.94,0.94,mg/dL,0.6,1.2,NORMAL,,WEEK 8,6,2025-03-01,56
STUDY001,LB,STUDY001-SUBJ0001,58,L00058,BILI,Total Bilirubin,CHEMISTRY,0.28,mg/dL,0.1,1.2,0.28,0.28,mg/dL,0.1,1.2,NORMAL,,WEEK 8,6,2025-03-01,56
STUDY001,LB,STUDY001-SUBJ0001,59,L00059,ALP,Alkaline Phosphatase,CHEMISTRY,80.48,U/L,44.0,147.0,80.48,80.48,U/L,44.0,147.0,NORMAL,,WEEK 8,6,2025-03-01,56
STUDY001,LB,STUDY001-SUBJ0001,60,L00060,ALT,Alanine Aminotransferase,CHEMISTRY,35.4,U/L,7.0,56.0,35.4,35.4,U/L,7.0,56.0,NORMAL,,WEEK 8,6,2025-03-01,56
STUDY001,LB,STUDY001-SUBJ0001,61,L00061,HGB,Hemoglobin,HEMATOLOGY,13.84,g/dL,13.5,17.5,13.84,13.84,g/dL,13.5,17.5,NORMAL,,WEEK 12,7,2025-03-29,84
STUDY001,LB,STUDY001-SUBJ0001,62,L00062,HCT,Hematocrit,HEMATOLOGY,47.51,%,41.0,51.0,47.51,47.51,%,41.0,51.0,NORMAL,,WEEK 12,7,2025-03-29,84
STUDY001,LB,STUDY001-SUBJ0001,63,L00063,WBC,White Blood Cell Count,HEMATOLOGY,7.47,10^9/L,4.5,11.0,7.47,7.47,10^9/L,4.5,11.0,NORMAL,,WEEK 12,7,2025-03-29,84
STUDY001,LB,STUDY001-SUBJ0001,64,L00064,PLT,Platelet Count,HEMATOLOGY,291.39,10^9/L,150.0,450.0,291.39,291.39,10^9/L,150.0,450.0,NORMAL,,WEEK 12,7,2025-03-29,84
STUDY001,LB,STUDY001-SUBJ0001,65,L00065,GLUC,Glucose,CHEMISTRY,64.03,mg/dL,70.0,100.0,64.03,64.03,mg/dL,70.0,100.0,LOW,,WEEK 12,7,2025-03-29,84
STUDY001,LB,STUDY001-SUBJ0001,66,L00066,BUN,Blood Urea Nitrogen,CHEMISTRY,12.45,mg/dL,7.0,20.0,12.45,12.45,mg/dL,7.0,20.0,NORMAL,,WEEK 12,7,2025-03-29,84
STUDY001,LB,STUDY001-SUBJ0001,67,L00067,CREAT,Creatinine,CHEMISTRY,0.95,mg/dL,0.6,1.2,0.95,0.95,mg/dL,0.6,1.2,NORMAL,,WEEK 12,7,2025-03-29,84
STUDY001,LB,STUDY001-SUBJ0001,68,L00068,BILI,Total Bilirubin,CHEMISTRY,0.3,mg/dL,0.1,1.2,0.3,0.3,mg/dL,0.1,1.2,NORMAL,,WEEK 12,7,2025-03-29,84
STUDY001,LB,STUDY001-SUBJ0001,69,L00069,ALP,Alkaline Phosphatase,CHEMISTRY,82.01,U/L,44.0,147.0,82.01,82.01,U/L,44.0,147.0,NORMAL,,WEEK 12,7,2025-03-29,84
STUDY001,LB,STUDY001-SUBJ0001,70,L00070,ALT,Alanine Aminotransferase,CHEMISTRY,34.25,U/L,7.0,56.0,34.25,34.25,U/L,7.0,56.0,NORMAL,,WEEK 12,7,2025-03-29,84
STUDY001,LB,STUDY001-SUBJ0001,71,L00071,HGB,Hemoglobin,HEMATOLOGY,13.83,g/dL,13.5,17.5,13.83,13.83,g/dL,13.5,17.5,NORMAL,,WEEK 16,8,2025-04-26,112
STUDY001,LB,STUDY001-SUBJ0001,72,L00072,HCT,Hematocrit,HEMATOLOGY,47.58,%,41.0,51.0,47.58,47.58,%,41.0,51.0,NORMAL,,WEEK 16,8,2025-04-26,112
STUDY001,LB,STUDY001-SUBJ0001,73,L00073,WBC,White Blood Cell Count,HEMATOLOGY,7.53,10^9/L,4.5,11.0,7.53,7.53,10^9/L,4.5,11.0,NORMAL,,WEEK 16,8,2025-04-26,112
STUDY001,LB,STUDY001-SUBJ0001,74,L00074,PLT,Platelet Count,HEMATOLOGY,291.67,10^9/L,150.0,450.0,291.67,291.67,10^9/L,150.0,450.0,NORMAL,,WEEK 16,8,2025-04-26,112
STUDY001,LB,STUDY001-SUBJ0001,75,L00075,GLUC,Glucose,CHEMISTRY,63.48,mg/dL,70.0,100.0,63.48,63.48,mg/dL,70.0,100.0,LOW,,WEEK 16,8,2025-04-26,112
STUDY001,LB,STUDY001-SUBJ0001,76,L00076,BUN,Blood Urea Nitrogen,CHEMISTRY,12.88,mg/dL,7.0,20.0,12.88,12.88,mg/dL,7.0,20.0,NORMAL,,WEEK 16,8,2025-04-26,112
STUDY001,LB,STUDY001-SUBJ0001,77,L00077,CREAT,Creatinine,CHEMISTRY,0.94,mg/dL,0.6,1.2,0.94,0.94,mg/dL,0.6,1.2,NORMAL,,WEEK 16,8,2025-04-26,112
STUDY001,LB,STUDY001-SUBJ0001,78,L00078,BILI,Total Bilirubin,CHEMISTRY,0.29,mg/dL,0.1,1.2,0.29,0.29,mg/dL,0.1,1.2,NORMAL,,WEEK 16,8,2025-04-26,112
STUDY001,LB,STUDY001-SUBJ0001,79,L00079,ALP,Alkaline Phosphatase,CHEMISTRY,79.45,U/L,44.0,147.0,79.45,79.45,U/L,44.0,147.0,NORMAL,,WEEK 16,8,2025-04-26,112
STUDY001,LB,STUDY001-SUBJ0001,80,L00080,ALT,Alanine Aminotransferase,CHEMISTRY,33.94,U/L,7.0,56.0,33.94,33.94,U/L,7.0,56.0,NORMAL,,WEEK 16,8,2025-04-26,112
STUDY001,LB,STUDY001-SUBJ0001,81,L00081,HGB,Hemoglobin,HEMATOLOGY,13.68,g/dL,13.5,17.5,13.68,13.68,g/dL,13.5,17.5,NORMAL,,END OF TREATMENT,9,2025-05-24,140
STUDY001,LB,STUDY001-SUBJ0001,82,L00082,HCT,Hematocrit,HEMATOLOGY,47.82,%,41.0,51.0,47.82,47.82,%,41.0,51.0,NORMAL,,END OF TREATMENT,9,2025-05-24,140
STUDY001,LB,STUDY001-SUBJ0001,83,L00083,WBC,White Blood Cell Count,HEMATOLOGY,7.66,10^9/L,4.5,11.0,7.66,7.66,10^9/L,4.5,11.0,NORMAL,,END OF TREATMENT,9,2025-05-24,140
STUDY001,LB,STUDY001-SUBJ0001,84,L00084,PLT,Platelet Count,HEMATOLOGY,295.34,10^9/L,150.0,450.0,295.34,295.34,10^9/L,150.0,450.0,NORMAL,,END OF TREATMENT,9,2025-05-24,140
STUDY001,LB,STUDY001-SUBJ0001,85,L00085,GLUC,Glucose,CHEMISTRY,63.97,mg/dL,70.0,100.0,63.97,63.97,mg/dL,70.0,100.0,LOW,,END OF TREATMENT,9,2025-05-24,140
STUDY001,LB,STUDY001-SUBJ0001,86,L00086,BUN,Blood Urea Nitrogen,CHEMISTRY,12.82,mg/dL,7.0,20.0,12.82,12.82,mg/dL,7.0,20.0,NORMAL,,END OF TREATMENT,9,2025-05-24,140
STUDY001,LB,STUDY001-SUBJ0001,87,L00087,CREAT,Creatinine,CHEMISTRY,0.97,mg/dL,0.6,1.2,0.97,0.97,mg/dL,0.6,1.2,NORMAL,,END OF TREATMENT,9,2025-05-24,140
STUDY001,LB,STUDY001-SUBJ0001,88,L00088,BILI,Total Bilirubin,CHEMISTRY,0.27,mg/dL,0.1,1.2,0.27,0.27,mg/dL,0.1,1.2,NORMAL,,END OF TREATMENT,9,2025-05-24,140
STUDY001,LB,STUDY001-SUBJ0001,89,L00089,ALP,Alkaline Phosphatase,CHEMISTRY,83.83,U/L,44.0,147.0,83.83,83.83,U/L,44.0,147.0,NORMAL,,END OF TREATMENT,9,2025-05-24,140
STUDY001,LB,STUDY001-SUBJ0001,90,L00090,ALT,Alanine Aminotransferase,CHEMISTRY,34.5,U/L,7.0,56.0,34.5,34.5,U/L,7.0,56.0,NORMAL,,END OF TREATMENT,9,2025-05-24,140
STUDY001,LB,STUDY001-SUBJ0002,1,L00001,HGB,Hemoglobin,HEMATOLOGY,12.98,g/dL,13.5,17.5,12.98,12.98,g/dL,13.5,17.5,LOW,,SCREENING,1,2024-12-22,-14
STUDY001,LB,STUDY001-SUBJ0002,2,L00002,HCT,Hematocrit,HEMATOLOGY,45.91,%,41.0,51.0,45.91,45.91,%,41.0,51.0,NORMAL,,SCREENING,1,2024-12-22,-14
STUDY001,LB,STUDY001-SUBJ0002,3,L00003,WBC,White Blood Cell Count,HEMATOLOGY,6.08,10^9/L,4.5,11.0,6.08,6.08,10^9/L,4.5,11.0,NORMAL,,SCREENING,1,2024-12-22,-14
STUDY001,LB,STUDY001-SUBJ0002,4,L00004,PLT,Platelet Count,HEMATOLOGY,290.08,10^9/L,150.0,450.0,290.08,290.08,10^9/L,150.0,450.0,NORMAL,,SCREENING,1,2024-12-22,-14
STUDY001,LB,STUDY001-SUBJ0002,5,L00005,GLUC,Glucose,CHEMISTRY,70.3,mg/dL,70.0,100.0,70.3,70.3,mg/dL,70.0,100.0,NORMAL,,SCREENING,1,2024-12-22,-14
STUDY001,LB,STUDY001-SUBJ0002,6,L00006,BUN,Blood Urea Nitrogen,CHEMISTRY,14.23,mg/dL,7.0,20.0,14.23,14.23,mg/dL,7.0,20.0,NORMAL,,SCREENING,1,2024-12-22,-14
STUDY001,LB,STUDY001-SUBJ0002,7,L00007,CREAT,Creatinine,CHEMISTRY,0.74,mg/dL,0.6,1.2,0.74,0.74,mg/dL,0.6,1.2,NORMAL,,SCREENING,1,2024-12-22,-14
STUDY001,LB,STUDY001-SUBJ0002,8,L00008,BILI,Total Bilirubin,CHEMISTRY,0.52,mg/dL,0.1,1.2,0.52,0.52,mg/dL,0.1,1.2,NORMAL,,SCREENING,1,2024-12-22,-14
STUDY001,LB,STUDY001-SUBJ0002,9,L00009,ALP,Alkaline Phosphatase,CHEMISTRY,104.97,U/L,44.0,147.0,104.97,104.97,U/L,44.0,147.0,NORMAL,,SCREENING,1,2024-12-22,-14
STUDY001,LB,STUDY001-SUBJ0002,10,L00010,ALT,Alanine Aminotransferase,CHEMISTRY,33.06,U/L,7.0,56.0,33.06,33.06,U/L,7.0,56.0,NORMAL,,SCREENING,1,2024-12-22,-14
STUDY001,LB,STUDY001-SUBJ0002,11,L00011,HGB,Hemoglobin,HEMATOLOGY,12.89,g/dL,13.5,17.5,12.89,12.89,g/dL,13.5,17.5,LOW,Y,BASELINE,2,2025-01-05,1
STUDY001,LB,STUDY001-SUBJ0002,12,L00012,HCT,Hematocrit,HEMATOLOGY,45.89,%,41.0,51.0,45.89,45.89,%,41.0,51.0,NORMAL,Y,BASELINE,2,2025-01-05,1
STUDY001,LB,STUDY001-SUBJ0002,13,L00013,WBC,White Blood Cell Count,HEMATOLOGY,5.89,10^9/L,4.5,11.0,5.89,5.89,10^9/L,4.5,11.0,NORMAL,Y,BASELINE,2,2025-01-05,1
STUDY001,LB,STUDY001-SUBJ0002,14,L00014,PLT,Platelet Count,HEMATOLOGY,288.75,10^9/L,150.0,450.0,288.75,288.75,10^9/L,150.0,450.0,NORMAL,Y,BASELINE,2,2025-01-05,1
STUDY001,LB,STUDY001-SUBJ0002,15,L00015,GLUC,Glucose,CHEMISTRY,73.64,mg/dL,70.0,100.0,73.64,73.64,mg/dL,70.0,100.0,NORMAL,Y,BASELINE,2,2025-01-05,1
STUDY001,LB,STUDY001-SUBJ0002,16,L00016,BUN,Blood Urea Nitrogen,CHEMISTRY,14.06,mg/dL,7.0,20.0,14.06,14.06,mg/dL,7.0,20.0,NORMAL,Y,BASELINE,2,2025-01-05,1
STUDY001,LB,STUDY001-SUBJ0002,17,L00017,CREAT,Creatinine,CHEMISTRY,0.75,mg/dL,0.6,1.2,0.75,0.75,mg/dL,0.6,1.2,NORMAL,Y,BASELINE,2,2025-01-05,1
STUDY001,LB,STUDY001-SUBJ0002,18,L00018,BILI,Total Bilirubin,CHEMISTRY,0.55,mg/dL,0.1,1.2,0.55,0.55,mg/dL,0.1,1.2,NORMAL,Y,BASELINE,2,2025-01-05,1
STUDY001,LB,STUDY001-SUBJ0002,19,L00019,ALP,Alkaline Phosphatase,CHEMISTRY,107.11,U/L,44.0,147.0,107.11,107.11,U/L,44.0,147.0,NORMAL,Y,BASELINE,2,2025-01-05,1
STUDY001,LB,STUDY001-SUBJ0002,20,L00020,ALT,Alanine Aminotransferase,CHEMISTRY,31.75,U/L,7.0,56.0,31.75,31.75,U/L,7.0,56.0,NORMAL,Y,BASELINE,2,2025-01-05,1
STUDY001,LB,STUDY001-SUBJ0002,21,L00021,HGB,Hemoglobin,HEMATOLOGY,13.07,g/dL,13.5,17.5,13.07,13.07,g/dL,13.5,17.5,LOW,,WEEK 1,3,2025-01-11,7
STUDY001,LB,STUDY001-SUBJ0002,22,L00022,HCT,Hematocrit,HEMATOLOGY,45.92,%,41.0,51.0,45.92,45.92,%,41.0,51.0,NORMAL,,WEEK 1,3,2025-01-11,7
STUDY001,LB,STUDY001-SUBJ0002,23,L00023,WBC,White Blood Cell Count,HEMATOLOGY,5.76,10^9/L,4.5,11.0,5.76,5.76,10^9/L,4.5,11.0,NORMAL,,WEEK 1,3,2025-01-11,7
STUDY001,LB,STUDY001-SUBJ0002,24,L00024,PLT,Platelet Count,HEMATOLOGY,291.75,10^9/L,150.0,450.0,291.75,291.75,10^9/L,150.0,450.0,NORMAL,,WEEK 1,3,2025-01-11,7
STUDY001,LB,STUDY001-SUBJ0002,25,L00025,GLUC,Glucose,CHEMISTRY,71.55,mg/dL,70.0,100.0,71.55,71.55,mg/dL,70.0,100.0,NORMAL,,WEEK 1,3,2025-01-11,7
STUDY001,LB,STUDY001-SUBJ0002,26,L00026,BUN,Blood Urea Nitrogen,CHEMISTRY,14.44,mg/dL,7.0,20.0,14.44,14.44,mg/dL,7.0,20.0,NORMAL,,WEEK 1,3,2025-01-11,7
STUDY001,LB,STUDY001-SUBJ0002,27,L00027,CREAT,Creatinine,CHEMISTRY,0.73,mg/dL,0.6,1.2,0.73,0.73,mg/dL,0.6,1.2,NORMAL,,WEEK 1,3,2025-01-11,7
STUDY001,LB,STUDY001-SUBJ0002,28,L00028,BILI,Total Bilirubin,CHEMISTRY,0.52,mg/dL,0.1,1.2,0.52,0.52,mg/dL,0.1,1.2,NORMAL,,WEEK 1,3,2025-01-11,7
STUDY001,LB,STUDY001-SUBJ0002,29,L00029,ALP,Alkaline Phosphatase,CHEMISTRY,105.08,U/L,44.0,147.0,105.08,105.08,U/L,44.0,147.0,NORMAL,,WEEK 1,3,2025-01-11,7
STUDY001,LB,STUDY001-SUBJ0002,30,L00030,ALT,Alanine Aminotransferase,CHEMISTRY,31.83,U/L,7.0,56.0,31.83,31.83,U/L,7.0,56.0,NORMAL,,WEEK 1,3,2025-01-11,7
STUDY001,LB,STUDY001-SUBJ0002,31,L00031,HGB,Hemoglobin,HEMATOLOGY,12.89,g/dL,13.5,17.5,12.89,12.89,g/dL,13.5,17.5,LOW,,WEEK 2,4,2025-01-18,14
STUDY001,LB,STUDY001-SUBJ0002,32,L00032,HCT,Hematocrit,HEMATOLOGY,45.49,%,41.0,51.0,45.49,45.49,%,41.0,51.0,NORMAL,,WEEK 2,4,2025-01-18,14
STUDY001,LB,STUDY001-SUBJ0002,33,L00033,WBC,White Blood Cell Count,HEMATOLOGY,5.57,10^9/L,4.5,11.0,5.57,5.57,10^9/L,4.5,11.0,NORMAL,,WEEK 2,4,2025-01-18,14
STUDY001,LB,STUDY001-SUBJ0002,34,L00034,PLT,Platelet Count,HEMATOLOGY,294.26,10^9/L,150.0,450.0,294.26,294.26,10^9/L,150.0,450.0,NORMAL,,WEEK 2,4,2025-01-18,14
STUDY001,LB,STUDY001-SUBJ0002,35,L00035,GLUC,Glucose,CHEMISTRY,71.76,mg/dL,70.0,100.0,71.76,71.76,mg/dL,70.0,100.0,NORMAL,,WEEK 2,4,2025-01-18,14
STUDY001,LB,STUDY001-SUBJ0002,36,L00036,BUN,Blood Urea Nitrogen,CHEMISTRY,15.05,mg/dL,7.0,20.0,15.05,15.05,mg/dL,7.0,20.0,NORMAL,,WEEK 2,4,2025-01-18,14
STUDY001,LB,STUDY001-SUBJ0002,37,L00037,CREAT,Creatinine,CHEMISTRY,0.76,mg/dL,0.6,1.2,0.76,0.76,mg/dL,0.6,1.2,NORMAL,,WEEK 2,4,2025-01-18,14
STUDY001,LB,STUDY001-SUBJ0002,38,L00038,BILI,Total Bilirubin,CHEMISTRY,0.55,mg/dL,0.1,1.2,0.55,0.55,mg/dL,0.1,1.2,NORMAL,,WEEK 2,4,2025-01-18,14
STUDY001,LB,STUDY001-SUBJ0002,39,L00039,ALP,Alkaline Phosphatase,CHEMISTRY,108.88,U/L,44.0,147.0,108.88,108.88,U/L,44.0,147.0,NORMAL,,WEEK 2,4,2025-01-18,14
STUDY001,LB,STUDY001-SUBJ0002,40,L00040,ALT,Alanine Aminotransferase,CHEMISTRY,29.09,U/L,7.0,56.0,29.09,29.09,U/L,7.0,56.0,NORMAL,,WEEK 2,4,2025-01-18,14
STUDY001,LB,STUDY001-SUBJ0002,41,L00041,HGB,Hemoglobin,HEMATOLOGY,12.91,g/dL,13.5,17.5,12.91,12.91,g/dL,13.5,17.5,LOW,,WEEK 4,5,2025-02-01,28
STUDY001,LB,STUDY001-SUBJ0002,42,L00042,HCT,Hematocrit,HEMATOLOGY,46.04,%,41.0,51.0,46.04,46.04,%,41.0,51.0,NORMAL,,WEEK 4,5,2025-02-01,28
STUDY001,LB,STUDY001-SUBJ0002,43,L00043,WBC,White Blood Cell Count,HEMATOLOGY,5.87,10^9/L,4.5,11.0,5.87,5.87,10^9/L,4.5,11.0,NORMAL,,WEEK 4,5,2025-02-01,28
STUDY001,LB,STUDY001-SUBJ0002,44,L00044,PLT,Platelet Count,HEMATOLOGY,297.69,10^9/L,150.0,450.0,297.69,297.69,10^9/L,150.0,450.0,NORMAL,,WEEK 4,5,2025-02-01,28
STUDY001,LB,STUDY001-SUBJ0002,45,L00045,GLUC,Glucose,CHEMISTRY,72.5,mg/dL,70.0,100.0,72.5,72.5,mg/dL,70.0,100.0,NORMAL,,WEEK 4,5,2025-02-01,28
STUDY001,LB,STUDY001-SUBJ0002,46,L00046,BUN,Blood Urea Nitrogen,CHEMISTRY,14.63,mg/dL,7.0,20.0,14.63,14.63,mg/dL,7.0,20.0,NORMAL,,WEEK 4,5,2025-02-01,28
STUDY001,LB,STUDY001-SUBJ0002,47,L00047,CREAT,Creatinine,CHEMISTRY,0.72,mg/dL,0.6,1.2,0.72,0.72,mg/dL,0.6,1.2,NORMAL,,WEEK 4,5,2025-02-01,28
STUDY001,LB,STUDY001-SUBJ0002,48,L00048,BILI,Total Bilirubin,CHEMISTRY,0.51,mg/dL,0.1,1.2,0.51,0.51,mg/dL,0.1,1.2,NORMAL,,WEEK 4,5,2025-02-01,28
STUDY001,LB,STUDY001-SUBJ0002,49,L00049,ALP,Alkaline Phosphatase,CHEMISTRY,105.46,U/L,44.0,147.0,105.46,105.46,U/L,44.0,147.0,NORMAL,,WEEK 4,5,2025-02-01,28
STUDY001,LB,STUDY001-SUBJ0002,50,L00050,ALT,Alanine Aminotransferase,CHEMISTRY,31.68,U/L,7.0,56.0,31.68,31.68,U/L,7.0,56.0,NORMAL,,WEEK 4,5,2025-02-01,28
STUDY001,LB,STUDY001-SUBJ0002,51,L00051,HGB,Hemoglobin,HEMATOLOGY,12.87,g/dL,13.5,17.5,12.87,12.87,g/dL,13.5,17.5,LOW,,WEEK 8,6,2025-03-01,56
STUDY001,LB,STUDY001-SUBJ0002,52,L00052,HCT,Hematocrit,HEMATOLOGY,46.25,%,41.0,51.0,46.25,46.25,%,41.0,51.0,NORMAL,,WEEK 8,6,2025-03-01,56
STUDY001,LB,STUDY001-SUBJ0002,53,L00053,WBC,White Blood Cell Count,HEMATOLOGY,5.68,10^9/L,4.5,11.0,5.68,5.68,10^9/L,4.5,11.0,NORMAL,,WEEK 8,6,2025-03-01,56
STUDY001,LB,STUDY001-SUBJ0002,54,L00054,PLT,Platelet Count,HEMATOLOGY,288.74,10^9/L,150.0,450.0,288.74,288.74,10^9/L,150.0,450.0,NORMAL,,WEEK 8,6,2025-03-01,56
STUDY001,LB,STUDY001-SUBJ0002,55,L00055,GLUC,Glucose,CHEMISTRY,71.29,mg/dL,70.0,100.0,71.29,71.29,mg/dL,70.0,100.0,NORMAL,,WEEK 8,6,2025-03-01,56
STUDY001,LB,STUDY001-SUBJ0002,56,L00056,BUN,Blood Urea Nitrogen,CHEMISTRY,14.22,mg/dL,7.0,20.0,14.22,14.22,mg/dL,7.0,20.0,NORMAL,,WEEK 8,6,2025-03-01,56
STUDY001,LB,STUDY001-SUBJ0002,57,L00057,CREAT,Creatinine,CHEMISTRY,0.73,mg/dL,0.6,1.2,0.73,0.73,mg/dL,0.6,1.2,NORMAL,,WEEK 8,6,2025-03-01,56
STUDY001,LB,STUDY001-SUBJ0002,58,L00058,BILI,Total Bilirubin,CHEMISTRY,0.52,mg/dL,0.1,1.2,0.52,0.52,mg/dL,0.1,1.2,NORMAL,,WEEK 8,6,2025-03-01,56
STUDY001,LB,STUDY001-SUBJ0002,59,L00059,ALP,Alkaline Phosphatase,CHEMISTRY,105.68,U/L,44.0,147.0,105.68,105.68,U/L,44.0,147.0,NORMAL,,WEEK 8,6,2025-03-01,56
STUDY001,LB,STUDY001-SUBJ0002,60,L00060,ALT,Alanine Aminotransferase,CHEMISTRY,30.05,U/L,7.0,56.0,30.05,30.05,U/L,7.0,56.0,NORMAL,,WEEK 8,6,2025-03-01,56
STUDY001,LB,STUDY001-SUBJ0002,61,L00061,HGB,Hemoglobin,HEMATOLOGY,12.9,g/dL,13.5,17.5,12.9,12.9,g/dL,13.5,17.5,LOW,,WEEK 12,7,2025-03-29,84
STUDY001,LB,STUDY001-SUBJ0002,62,L00062,HCT,Hematocrit,HEMATOLOGY,45.56,%,41.0,51.0,45.56,45.56,%,41.0,51.0,NORMAL,,WEEK 12,7,2025-03-29,84
STUDY001,LB,STUDY001-SUBJ0002,63,L00063,WBC,White Blood Cell Count,HEMATOLOGY,5.78,10^9/L,4.5,11.0,5.78,5.78,10^9/L,4.5,11.0,NORMAL,,WEEK 12,7,2025-03-29,84
STUDY001,LB,STUDY001-SUBJ0002,64,L00064,PLT,Platelet Count,HEMATOLOGY,284.22,10^9/L,150.0,450.0,284.22,284.22,10^9/L,150.0,450.0,NORMAL,,WEEK 12,7,2025-03-29,84
STUDY001,LB,STUDY001-SUBJ0002,65,L00065,GLUC,Glucose,CHEMISTRY,71.2,mg/dL,70.0,100.0,71.2,71.2,mg/dL,70.0,100.0,NORMAL,,WEEK 12,7,2025-03-29,84
STUDY001,LB,STUDY001-SUBJ0002,66,L00066,BUN,Blood Urea Nitrogen,CHEMISTRY,14.82,mg/dL,7.0,20.0,14.82,14.82,mg/dL,7.0,20.0,NORMAL,,WEEK 12,7,2025-03-29,84
STUDY001,LB,STUDY001-SUBJ0002,67,L00067,CREAT,Creatinine,CHEMISTRY,0.73,mg/dL,0.6,1.2,0.73,0.73,mg/dL,0.6,1.2,NORMAL,,WEEK 12,7,2025-03-29,84
STUDY001,LB,STUDY001-SUBJ0002,68,L00068,BILI,Total Bilirubin,CHEMISTRY,0.5,mg/dL,0.1,1.2,0.5,0.5,mg/dL,0.1,1.2,NORMAL,,WEEK 12,7,2025-03-29,84
STUDY001,LB,STUDY001-SUBJ0002,69,L00069,ALP,Alkaline Phosphatase,CHEMISTRY,108.84,U/L,44.0,147.0,108.84,108.84,U/L,44.0,147.0,NORMAL,,WEEK 12,7,2025-03-29,84
STUDY001,LB,STUDY001-SUBJ0002,70,L00070,ALT,Alanine Aminotransferase,CHEMISTRY,30.29,U/L,7.0,56.0,30.29,30.29,U/L,7.0,56.0,NORMAL,,WEEK 12,7,2025-03-29,84
STUDY001,LB,STUDY001-SUBJ0002,71,L00071,HGB,Hemoglobin,HEMATOLOGY,12.92,g/dL,13.5,17.5,12.92,12.92,g/dL,13.5,17.5,LOW,,WEEK 16,8,2025-04-26,112
STUDY001,LB,STUDY001-SUBJ0002,72,L00072,HCT,Hematocrit,HEMATOLOGY,46.15,%,41.0,51.0,46.15,46.15,%,41.0,51.0,NORMAL,,WEEK 16,8,2025-04-26,112
STUDY001,LB,STUDY001-SUBJ0002,73,L00073,WBC,White Blood Cell Count,HEMATOLOGY,6.18,10^9/L,4.5,11.0,6.18,6.18,10^9/L,4.5,11.0,NORMAL,,WEEK 16,8,2025-04-26,112
STUDY001,LB,STUDY001-SUBJ0002,74,L00074,PLT,Platelet Count,HEMATOLOGY,299.34,10^9/L,150.0,450.0,299.34,299.34,10^9/L,150.0,450.0,NORMAL,,WEEK 16,8,2025-04-26,112
STUDY001,LB,STUDY001-SUBJ0002,75,L00075,GLUC,Glucose,CHEMISTRY,72.29,mg/dL,70.0,100.0,72.29,72.29,mg/dL,70.0,100.0,NORMAL,,WEEK 16,8,2025-04-26,112
STUDY001,LB,STUDY001-SUBJ0002,76,L00076,BUN,Blood Urea Nitrogen,CHEMISTRY,14.8,mg/dL,7.0,20.0,14.8,14.8,mg/dL,7.0,20.0,NORMAL,,WEEK 16,8,2025-04-26,112
STUDY001,LB,STUDY001-SUBJ0002,77,L00077,CREAT,Creatinine,CHEMISTRY,0.72,mg/dL,0.6,1.2,0.72,0.72,mg/dL,0.6,1.2,NORMAL,,WEEK 16,8,2025-04-26,112
STUDY001,LB,STUDY001-SUBJ0002,78,L00078,BILI,Total Bilirubin,CHEMISTRY,0.5,mg/dL,0.1,1.2,0.5,0.5,mg/dL,0.1,1.2,NORMAL,,WEEK 16,8,2025-04-26,112
STUDY001,LB,STUDY001-SUBJ0002,79,L00079,ALP,Alkaline Phosphatase,CHEMISTRY,106.32,U/L,44.0,147.0,106.32,106.32,U/L,44.0,147.0,NORMAL,,WEEK 16,8,2025-04-26,112
STUDY001,LB,STUDY001-SUBJ0002,80,L00080,ALT,Alanine Aminotransferase,CHEMISTRY,30.37,U/L,7.0,56.0,30.37,30.37,U/L,7.0,56.0,NORMAL,,WEEK 16,8,2025-04-26,112
STUDY001,LB,STUDY001-SUBJ0002,81,L00081,HGB,Hemoglobin,HEMATOLOGY,12.84,g/dL,13.5,17.5,12.84,12.84,g/dL,13.5,17.5,LOW,,END OF TREATMENT,9,2025-05-24,140
STUDY001,LB,STUDY001-SUBJ0002,82,L00082,HCT,Hematocrit,HEMATOLOGY,46.11,%,41.0,51.0,46.11,46.11,%,41.0,51.0,NORMAL,,END OF TREATMENT,9,2025-05-24,140
STUDY001,LB,STUDY001-SUBJ0002,83,L00083,WBC,White Blood Cell Count,HEMATOLOGY,5.93,10^9/L,4.5,11.0,5.93,5.93,10^9/L,4.5,11.0,NORMAL,,END OF TREATMENT,9,2025-05-24,140
STUDY001,LB,STUDY001-SUBJ0002,84,L00084,PLT,Platelet Count,HEMATOLOGY,282.26,10^9/L,150.0,450.0,282.26,282.26,10^9/L,150.0,450.0,NORMAL,,END OF TREATMENT,9,2025-05-24,140
STUDY001,LB,STUDY001-SUBJ0002,85,L00085,GLUC,Glucose,CHEMISTRY,73.03,mg/dL,70.0,100.0,73.03,73.03,mg/dL,70.0,100.0,NORMAL,,END OF TREATMENT,9,2025-05-24,140
STUDY001,LB,STUDY001-SUBJ0002,86,L00086,BUN,Blood Urea Nitrogen,CHEMISTRY,14.81,mg/dL,7.0,20.0,14.81,14.81,mg/dL,7.0,20.0,NORMAL,,END OF TREATMENT,9,2025-05-24,140
STUDY001,LB,STUDY001-SUBJ0002,87,L00087,CREAT,Creatinine,CHEMISTRY,0.71,mg/dL,0.6,1.2,0.71,0.71,mg/dL,0.6,1.2,NORMAL,,END OF TREATMENT,9,2025-05-24,140
STUDY001,LB,STUDY001-SUBJ0002,88,L00088,BILI,Total Bilirubin,CHEMISTRY,0.51,mg/dL,0.1,1.2,0.51,0.51,mg/dL,0.1,1.2,NORMAL,,END OF TREATMENT,9,2025-05-24,140
STUDY001,LB,STUDY001-SUBJ0002,89,L00089,ALP,Alkaline Phosphatase,CHEMISTRY,108.14,U/L,44.0,147.0,108.14,108.14,U/L,44.0,147.0,NORMAL,,END OF TREATMENT,9,2025-05-24,140
STUDY001,LB,STUDY001-SUBJ0002,90,L00090,ALT,Alanine Aminotransferase,CHEMISTRY,29.52,U/L,7.0,56.0,29.52,29.52,U/L,7.0,56.0,NORMAL,,END OF TREATMENT,9,2025-05-24,140
STUDY001,LB,STUDY001-SUBJ0003,1,L00001,HGB,Hemoglobin,HEMATOLOGY,16.44,g/dL,13.5,17.5,16.44,16.44,g/dL,13.5,17.5,NORMAL,,SCREENING,1,2024-11-15,-14
STUDY001,LB,STUDY001-SUBJ0003,2,L00002,HCT,Hematocrit,HEMATOLOGY,47.05,%,41.0,51.0,47.05,47.05,%,41.0,51.0,NORMAL,,SCREENING,1,2024-11-15,-14
STUDY001,LB,STUDY001-SUBJ0003,3,L00003,WBC,White Blood Cell Count,HEMATOLOGY,7.21,10^9/L,4.5,11.0,7.21,7.21,10^9/L,4.5,11.0,NORMAL,,SCREENING,1,2024-11-15,-14
STUDY001,LB,STUDY001-SUBJ0003,4,L00004,PLT,Platelet Count,HEMATOLOGY,214.33,10^9/L,150.0,450.0,214.33,214.33,10^9/L,150.0,450.0,NORMAL,,SCREENING,1,2024-11-15,-14
STUDY001,LB,STUDY001-SUBJ0003,5,L00005,GLUC,Glucose,CHEMISTRY,95.21,mg/dL,70.0,100.0,95.21,95.21,mg/dL,70.0,100.0,NORMAL,,SCREENING,1,2024-11-15,-14
STUDY001,LB,STUDY001-SUBJ0003,6,L00006,BUN,Blood Urea Nitrogen,CHEMISTRY,15.8,mg/dL,7.0,20.0,15.8,15.8,mg/dL,7.0,20.0,NORMAL,,SCREENING,1,2024-11-15,-14
STUDY001,LB,STUDY001-SUBJ0003,7,L00007,CREAT,Creatinine,CHEMISTRY,0.79,mg/dL,0.6,1.2,0.79,0.79,mg/dL,0.6,1.2,NORMAL,,SCREENING,1,2024-11-15,-14
STUDY001,LB,STUDY001-SUBJ0003,8,L00008,BILI,Total Bilirubin,CHEMISTRY,0.88,mg/dL,0.1,1.2,0.88,0.88,mg/dL,0.1,1.2,NORMAL,,SCREENING,1,2024-11-15,-14
STUDY001,LB,STUDY001-SUBJ0003,9,L00009,ALP,Alkaline Phosphatase,CHEMISTRY,77.76,U/L,44.0,147.0,77.76,77.76,U/L,44.0,147.0,NORMAL,,SCREENING,1,2024-11-15,-14
STUDY001,LB,STUDY001-SUBJ0003,10,L00010,ALT,Alanine Aminotransferase,CHEMISTRY,39.16,U/L,7.0,56.0,39.16,39.16,U/L,7.0,56.0,NORMAL,,SCREENING,1,2024-11-15,-14
STUDY001,LB,STUDY001-SUBJ0003,11,L00011,HGB,Hemoglobin,HEMATOLOGY,16.09,g/dL,13.5,17.5,16.09,16.09,g/dL,13.5,17.5,NORMAL,Y,BASELINE,2,2024-11-29,1
STUDY001,LB,STUDY001-SUBJ0003,12,L00012,HCT,Hematocrit,HEMATOLOGY,46.78,%,41.0,51.0,46.78,46.78,%,41.0,51.0,NORMAL,Y,BASELINE,2,2024-11-29,1
STUDY001,LB,STUDY001-SUBJ0003,13,L00013,WBC,White Blood Cell Count,HEMATOLOGY,7.16,10^9/L,4.5,11.0,7.16,7.16,10^9/L,4.5,11.0,NORMAL,Y,BASELINE,2,2024-11-29,1
STUDY001,LB,STUDY001-SUBJ0003,14,L00014,PLT,Platelet Count,HEMATOLOGY,217.18,10^9/L,150.0,450.0,217.18,217.18,10^9/L,150.0,450.0,NORMAL,Y,BASELINE,2,2024-11-29,1
STUDY001,LB,STUDY001-SUBJ0003,15,L00015,GLUC,Glucose,CHEMISTRY,93.05,mg/dL,70.0,100.0,93.05,93.05,mg/dL,70.0,100.0,NORMAL,Y,BASELINE,2,2024-11-29,1
STUDY001,LB,STUDY001-SUBJ0003,16,L00016,BUN,Blood Urea Nitrogen,CHEMISTRY,15.54,mg/dL,7.0,20.0,15.54,15.54,mg/dL,7.0,20.0,NORMAL,Y,BASELINE,2,2024-11-29,1
STUDY001,LB,STUDY001-SUBJ0003,17,L00017,CREAT,Creatinine,CHEMISTRY,0.79,mg/dL,0.6,1.2,0.79,0.79,mg/dL,0.6,1.2,NORMAL,Y,BASELINE,2,2024-11-29,1
STUDY001,LB,STUDY001-SUBJ0003,18,L00018,BILI,Total Bilirubin,CHEMISTRY,0.87,mg/dL,0.1,1.2,0.87,0.87,mg/dL,0.1,1.2,NORMAL,Y,BASELINE,2,2024-11-29,1
STUDY001,LB,STUDY001-SUBJ0003,19,L00019,ALP,Alkaline Phosphatase,CHEMISTRY,78.92,U/L,44.0,147.0,78.92,78.92,U/L,44.0,147.0,NORMAL,Y,BASELINE,2,2024-11-29,1
STUDY001,LB,STUDY001-SUBJ0003,20,L00020,ALT,Alanine Aminotransferase,CHEMISTRY,39.53,U/L,7.0,56.0,39.53,39.53,U/L,7.0,56.0,NORMAL,Y,BASELINE,2,2024-11-29,1
STUDY001,LB,STUDY001-SUBJ0003,21,L00021,HGB,Hemoglobin,HEMATOLOGY,16.17,g/dL,13.5,17.5,16.17,16.17,g/dL,13.5,17.5,NORMAL,,WEEK 1,3,2024-12-05,7
STUDY001,LB,STUDY001-SUBJ0003,22,L00022,HCT,Hematocrit,HEMATOLOGY,46.48,%,41.0,51.0,46.48,46.48,%,41.0,51.0,NORMAL,,WEEK 1,3,2024-12-05,7
STUDY001,LB,STUDY001-SUBJ0003,23,L00023,WBC,White Blood Cell Count,HEMATOLOGY,7.21,10^9/L,4.5,11.0,7.21,7.21,10^9/L,4.5,11.0,NORMAL,,WEEK 1,3,2024-12-05,7
STUDY001,LB,STUDY001-SUBJ0003,24,L00024,PLT,Platelet Count,HEMATOLOGY,214.77,10^9/L,150.0,450.0,214.77,214.77,10^9/L,150.0,450.0,NORMAL,,WEEK 1,3,2024-12-05,7
STUDY001,LB,STUDY001-SUBJ0003,25,L00025,GLUC,Glucose,CHEMISTRY,94.11,mg/dL,70.0,100.0,94.11,94.11,mg/dL,70.0,100.0,NORMAL,,WEEK 1,3,2024-12-05,7
STUDY001,LB,STUDY001-SUBJ0003,26,L00026,BUN,Blood Urea Nitrogen,CHEMISTRY,15.87,mg/dL,7.0,20.0,15.87,15.87,mg/dL,7.0,20.0,NORMAL,,WEEK 1,3,2024-12-05,7
STUDY001,LB,STUDY001-SUBJ0003,27,L00027,CREAT,Creatinine,CHEMISTRY,0.79,mg/dL,0.6,1.2,0.79,0.79,mg/dL,0.6,1.2,NORMAL,,WEEK 1,3,2024-12-05,7
STUDY001,LB,STUDY001-SUBJ0003,28,L00028,BILI,Total Bilirubin,CHEMISTRY,0.89,mg/dL,0.1,1.2,0.89,0.89,mg/dL,0.1,1.2,NORMAL,,WEEK 1,3,2024-12-05,7
STUDY001,LB,STUDY001-SUBJ0003,29,L00029,ALP,Alkaline Phosphatase,CHEMISTRY,79.44,U/L,44.0,147.0,79.44,79.44,U/L,44.0,147.0,NORMAL,,WEEK 1,3,2024-12-05,7
STUDY001,LB,STUDY001-SUBJ0003,30,L00030,ALT,Alanine Aminotransferase,CHEMISTRY,39.49,U/L,7.0,56.0,39.49,39.49,U/L,7.0,56.0,NORMAL,,WEEK 1,3,2024-12-05,7
STUDY001,LB,STUDY001-SUBJ0003,31,L00031,HGB,Hemoglobin,HEMATOLOGY,16.04,g/dL,13.5,17.5,16.04,16.04,g/dL,13.5,17.5,NORMAL,,WEEK 2,4,2024-12-12,14
STUDY001,LB,STUDY001-SUBJ0003,32,L00032,HCT,Hematocrit,HEMATOLOGY,47.03,%,41.0,51.0,47.03,47.03,%,41.0,51.0,NORMAL,,WEEK 2,4,2024-12-12,14
STUDY001,LB,STUDY001-SUBJ0003,33,L00033,WBC,White Blood Cell Count,HEMATOLOGY,7.33,10^9/L,4.5,11.0,7.33,7.33,10^9/L,4.5,11.0,NORMAL,,WEEK 2,4,2024-12-12,14
STUDY001,LB,STUDY001-SUBJ0003,34,L00034,PLT,Platelet Count,HEMATOLOGY,218.92,10^9/L,150.0,450.0,218.92,218.92,10^9/L,150.0,450.0,NORMAL,,WEEK 2,4,2024-12-12,14
STUDY001,LB,STUDY001-SUBJ0003,35,L00035,GLUC,Glucose,CHEMISTRY,95.02,mg/dL,70.0,100.0,95.02,95.02,mg/dL,70.0,100.0,NORMAL,,WEEK 2,4,2024-12-12,14
STUDY001,LB,STUDY001-SUBJ0003,36,L00036,BUN,Blood Urea Nitrogen,CHEMISTRY,15.71,mg/dL,7.0,20.0,15.71,15.71,mg/dL,7.0,20.0,NORMAL,,WEEK 2,4,2024-12-12,14
STUDY001,LB,STUDY001-SUBJ0003,37,L00037,CREAT,Creatinine,CHEMISTRY,0.79,mg/dL,0.6,1.2,0.79,0.79,mg/dL,0.6,1.2,NORMAL,,WEEK 2,4,2024-12-12,14
STUDY001,LB,STUDY001-SUBJ0003,38,L00038,BILI,Total Bilirubin,CHEMISTRY,0.87,mg/dL,0.1,1.2,0.87,0.87,mg/dL,0.1,1.2,NORMAL,,WEEK 2,4,2024-12-12,14
STUDY001,LB,STUDY001-SUBJ0003,39,L00039,ALP,Alkaline Phosphatase,CHEMISTRY,81.74,U/L,44.0,147.0,81.74,81.74,U/L,44.0,147.0,NORMAL,,WEEK 2,4,2024-12-12,14
STUDY001,LB,STUDY001-SUBJ0003,40,L00040,ALT,Alanine Aminotransferase,CHEMISTRY,39.8,U/L,7.0,56.0,39.8,39.8,U/L,7.0,56.0,NORMAL,,WEEK 2,4,2024-12-12,14
STUDY001,LB,STUDY001-SUBJ0003,41,L00041,HGB,Hemoglobin,HEMATOLOGY,16.16,g/dL,13.5,17.5,16.16,16.16,g/dL,13.5,17.5,NORMAL,,WEEK 4,5,2024-12-26,28
STUDY001,LB,STUDY001-SUBJ0003,42,L00042,HCT,Hematocrit,HEMATOLOGY,46.36,%,41.0,51.0,46.36,46.36,%,41.0,51.0,NORMAL,,WEEK 4,5,2024-12-26,28
STUDY001,LB,STUDY001-SUBJ0003,43,L00043,WBC,White Blood Cell Count,HEMATOLOGY,6.88,10^9/L,4.5,11.0,6.88,6.88,10^9/L,4.5,11.0,NORMAL,,WEEK 4,5,2024-12-26,28
STUDY001,LB,STUDY001-SUBJ0003,44,L00044,PLT,Platelet Count,HEMATOLOGY,214.26,10^9/L,150.0,450.0,214.26,214.26,10^9/L,150.0,450.0,NORMAL,,WEEK 4,5,2024-12-26,28
STUDY001,LB,STUDY001-SUBJ0003,45,L00045,GLUC,Glucose,CHEMISTRY,94.58,mg/dL,70.0,100.0,94.58,94.58,mg/dL,70.0,100.0,NORMAL,,WEEK 4,5,2024-12-26,28
STUDY001,LB,STUDY001-SUBJ0003,46,L00046,BUN,Blood Urea Nitrogen,CHEMISTRY,15.52,mg/dL,7.0,20.0,15.52,15.52,mg/dL,7.0,20.0,NORMAL,,WEEK 4,5,2024-12-26,28
STUDY001,LB,STUDY001-SUBJ0003,47,L00047,CREAT,Creatinine,CHEMISTRY,0.79,mg/dL,0.6,1.2,0.79,0.79,mg/dL,0.6,1.2,NORMAL,,WEEK 4,5,2024-12-26,28
STUDY001,LB,STUDY001-SUBJ0003,48,L00048,BILI,Total Bilirubin,CHEMISTRY,0.89,mg/dL,0.1,1.2,0.89,0.89,mg/dL,0.1,1.2,NORMAL,,WEEK 4,5,2024-12-26,28
STUDY001,LB,STUDY001-SUBJ0003,49,L00049,ALP,Alkaline Phosphatase,CHEMISTRY,80.62,U/L,44.0,147.0,80.62,80.62,U/L,44.0,147.0,NORMAL,,WEEK 4,5,2024-12-26,28
STUDY001,LB,STUDY001-SUBJ0003,50,L00050,ALT,Alanine Aminotransferase,CHEMISTRY,38.34,U/L,7.0,56.0,38.34,38.34,U/L,7.0,56.0,NORMAL,,WEEK 4,5,2024-12-26,28
STUDY001,LB,STUDY001-SUBJ0003,51,L00051,HGB,Hemoglobin,HEMATOLOGY,16.28,g/dL,13.5,17.5,16.28,16.28,g/dL,13.5,17.5,NORMAL,,WEEK 8,6,2025-01-23,56
STUDY001,LB,STUDY001-SUBJ0003,52,L00052,HCT,Hematocrit,HEMATOLOGY,46.77,%,41.0,51.0,46.77,46.77,%,41.0,51.0,NORMAL,,WEEK 8,6,2025-01-23,56
STUDY001,LB,STUDY001-SUBJ0003,53,L00053,WBC,White Blood Cell Count,HEMATOLOGY,7.14,10^9/L,4.5,11.0,7.14,7.14,10^9/L,4.5,11.0,NORMAL,,WEEK 8,6,2025-01-23,56
STUDY001,LB,STUDY001-SUBJ0003,54,L00054,PLT,Platelet Count,HEMATOLOGY,220.9,10^9/L,150.0,450.0,220.9,220.9,10^9/L,150.0,450.0,NORMAL,,WEEK 8,6,2025-01-23,56
STUDY001,LB,STUDY001-SUBJ0003,55,L00055,GLUC,Glucose,CHEMISTRY,94.54,mg/dL,70.0,100.0,94.54,94.54,mg/dL,70.0,100.0,NORMAL,,WEEK 8,6,2025-01-23,56
STUDY001,LB,STUDY001-SUBJ0003,56,L00056,BUN,Blood Urea Nitrogen,CHEMISTRY,15.83,mg/dL,7.0,20.0,15.83,15.83,mg/dL,7.0,20.0,NORMAL,,WEEK 8,6,2025-01-23,56
STUDY001,LB,STUDY001-SUBJ0003,57,L00057,CREAT,Creatinine,CHEMISTRY,0.78,mg/dL,0.6,1.2,0.78,0.78,mg/dL,0.6,1.2,NORMAL,,WEEK 8,6,2025-01-23,56
STUDY001,LB,STUDY001-SUBJ0003,58,L00058,BILI,Total Bilirubin,CHEMISTRY,0.86,mg/dL,0.1,1.2,0.86,0.86,mg/dL,0.1,1.2,NORMAL,,WEEK 8,6,2025-01-23,56
STUDY001,LB,STUDY001-SUBJ0003,59,L00059,ALP,Alkaline Phosphatase,CHEMISTRY,80.95,U/L,44.0,147.0,80.95,80.95,U/L,44.0,147.0,NORMAL,,WEEK 8,6,2025-01-23,56
STUDY001,LB,STUDY001-SUBJ0003,60,L00060,ALT,Alanine Aminotransferase,CHEMISTRY,39.42,U/L,7.0,56.0,39.42,39.42,U/L,7.0,56.0,NORMAL,,WEEK 8,6,2025-01-23,56
STUDY001,LB,STUDY001-SUBJ0003,61,L00061,HGB,Hemoglobin,HEMATOLOGY,16.35,g/dL,13.5,17.5,16.35,16.35,g/dL,13.5,17.5,NORMAL,,WEEK 12,7,2025-02-20,84
STUDY001,LB,STUDY001-SUBJ0003,62,L00062,HCT,Hematocrit,HEMATOLOGY,46.81,%,41.0,51.0,46.81,46.81,%,41.0,51.0,NORMAL,,WEEK 12,7,2025-02-20,84
STUDY001,LB,STUDY001-SUBJ0003,63,L00063,WBC,White Blood Cell Count,HEMATOLOGY,7.41,10^9/L,4.5,11.0,7.41,7.41,10^9/L,4.5,11.0,NORMAL,,WEEK 12,7,2025-02-20,84
STUDY001,LB,STUDY001-SUBJ0003,64,L00064,PLT,Platelet Count,HEMATOLOGY,225.25,10^9/L,150.0,450.0,225.25,225.25,10^9/L,150.0,450.0,NORMAL,,WEEK 12,7,2025-02-20,84
STUDY001,LB,STUDY001-SUBJ0003,65,L00065,GLUC,Glucose,CHEMISTRY,93.32,mg/dL,70.0,100.0,93.32,93.32,mg/dL,70.0,100.0,NORMAL,,WEEK 12,7,2025-02-20,84
STUDY001,LB,STUDY001-SUBJ0003,66,L00066,BUN,Blood Urea Nitrogen,CHEMISTRY,16.23,mg/dL,7.0,20.0,16.23,16.23,mg/dL,7.0,20.0,NORMAL,,WEEK 12,7,2025-02-20,84
STUDY001,LB,STUDY001-SUBJ0003,67,L00067,CREAT,Creatinine,CHEMISTRY,0.8,mg/dL,0.6,1.2,0.8,0.8,mg/dL,0.6,1.2,NORMAL,,WEEK 12,7,2025-02-20,84
STUDY001,LB,STUDY001-SUBJ0003,68,L00068,BILI,Total Bilirubin,CHEMISTRY,0.9,mg/dL,0.1,1.2,0.9,0.9,mg/dL,0.1,1.2,NORMAL,,WEEK 12,7,2025-02-20,84
STUDY001,LB,STUDY001-SUBJ0003,69,L00069,ALP,Alkaline Phosphatase,CHEMISTRY,80.95,U/L,44.0,147.0,80.95,80.95,U/L,44.0,147.0,NORMAL,,WEEK 12,7,2025-02-20,84
STUDY001,LB,STUDY001-SUBJ0003,70,L00070,ALT,Alanine Aminotransferase,CHEMISTRY,40.76,U/L,7.0,56.0,40.76,40.76,U/L,7.0,56.0,NORMAL,,WEEK 12,7,2025-02-20,84
STUDY001,LB,STUDY001-SUBJ0003,71,L00071,HGB,Hemoglobin,HEMATOLOGY,16.04,g/dL,13.5,17.5,16.04,16.04,g/dL,13.5,17.5,NORMAL,,WEEK 16,8,2025-03-20,112
STUDY001,LB,STUDY001-SUBJ0003,72,L00072,HCT,Hematocrit,HEMATOLOGY,47.07,%,41.0,51.0,47.07,47.07,%,41.0,51.0,NORMAL,,WEEK 16,8,2025-03-20,112
STUDY001,LB,STUDY001-SUBJ0003,73,L00073,WBC,White Blood Cell Count,HEMATOLOGY,7.04,10^9/L,4.5,11.0,7.04,7.04,10^9/L,4.5,11.0,NORMAL,,WEEK 16,8,2025-03-20,112
STUDY001,LB,STUDY001-SUBJ0003,74,L00074,PLT,Platelet Count,HEMATOLOGY,213.63,10^9/L,150.0,450.0,213.63,213.63,10^9/L,150.0,450.0,NORMAL,,WEEK 16,8,2025-03-20,112
STUDY001,LB,STUDY001-SUBJ0003,75,L00075,GLUC,Glucose,CHEMISTRY,95.81,mg/dL,70.0,100.0,95.81,95.81,mg/dL,70.0,100.0,NORMAL,,WEEK 16,8,2025-03-20,112
STUDY001,LB,STUDY001-SUBJ0003,76,L00076,BUN,Blood Urea Nitrogen,CHEMISTRY,15.58,mg/dL,7.0,20.0,15.58,15.58,mg/dL,7.0,20.0,NORMAL,,WEEK 16,8,2025-03-20,112
STUDY001,LB,STUDY001-SUBJ0003,77,L00077,CREAT,Creatinine,CHEMISTRY,0.8,mg/dL,0.6,1.2,0.8,0.8,mg/dL,0.6,1.2,NORMAL,,WEEK 16,8,2025-03-20,112
STUDY001,LB,STUDY001-SUBJ0003,78,L00078,BILI,Total Bilirubin,CHEMISTRY,0.89,mg/dL,0.1,1.2,0.89,0.89,mg/dL,0.1,1.2,NORMAL,,WEEK 16,8,2025-03-20,112
STUDY001,LB,STUDY001-SUBJ0003,79,L00079,ALP,Alkaline Phosphatase,CHEMISTRY,85.5,U/L,44.0,147.0,85.5,85.5,U/L,44.0,147.0,NORMAL,,WEEK 16,8,2025-03-20,112
STUDY001,LB,STUDY001-SUBJ0003,80,L00080,ALT,Alanine Aminotransferase,CHEMISTRY,39.41,U/L,7.0,56.0,39.41,39.41,U/L,7.0,56.0,NORMAL,,WEEK 16,8,2025-03-20,112
STUDY001,LB,STUDY001-SUBJ0003,81,L00081,HGB,Hemoglobin,HEMATOLOGY,16.48,g/dL,13.5,17.5,16.48,16.48,g/dL,13.5,17.5,NORMAL,,END OF TREATMENT,9,2025-04-17,140
STUDY001,LB,STUDY001-SUBJ0003,82,L00082,HCT,Hematocrit,HEMATOLOGY,46.75,%,41.0,51.0,46.75,46.75,%,41.0,51.0,NORMAL,,END OF TREATMENT,9,2025-04-17,140
STUDY001,LB,STUDY001-SUBJ0003,83,L00083,WBC,White Blood Cell Count,HEMATOLOGY,7.53,10^9/L,4.5,11.0,7.53,7.53,10^9/L,4.5,11.0,NORMAL,,END OF TREATMENT,9,2025-04-17,140
STUDY001,LB,STUDY001-SUBJ0003,84,L00084,PLT,Platelet Count,HEMATOLOGY,217.19,10^9/L,150.0,450.0,217.19,217.19,10^9/L,150.0,450.0,NORMAL,,END OF TREATMENT,9,2025-04-17,140
STUDY001,LB,STUDY001-SUBJ0003,85,L00085,GLUC,Glucose,CHEMISTRY,94.13,mg/dL,70.0,100.0,94.13,94.13,mg/dL,70.0,100.0,NORMAL,,END OF TREATMENT,9,2025-04-17,140
STUDY001,LB,STUDY001-SUBJ0003,86,L00086,BUN,Blood Urea Nitrogen,CHEMISTRY,15.49,mg/dL,7.0,20.0,15.49,15.49,mg/dL,7.0,20.0,NORMAL,,END OF TREATMENT,9,2025-04-17,140
STUDY001,LB,STUDY001-SUBJ0003,87,L00087,CREAT,Creatinine,CHEMISTRY,0.8,mg/dL,0.6,1.2,0.8,0.8,mg/dL,0.6,1.2,NORMAL,,END OF TREATMENT,9,2025-04-17,140
STUDY001,LB,STUDY001-SUBJ0003,88,L00088,BILI,Total Bilirubin,CHEMISTRY,0.86,mg/dL,0.1,1.2,0.86,0.86,mg/dL,0.1,1.2,NORMAL,,END OF TREATMENT,9,2025-04-17,140
STUDY001,LB,STUDY001-SUBJ0003,89,L00089,ALP,Alkaline Phosphatase,CHEMISTRY,82.71,U/L,44.0,147.0,82.71,82.71,U/L,44.0,147.0,NORMAL,,END OF TREATMENT,9,2025-04-17,140
STUDY001,LB,STUDY001-SUBJ0003,90,L00090,ALT,Alanine Aminotransferase,CHEMISTRY,39.77,U/L,7.0,56.0,39.77,39.77,U/L,7.0,56.0,NORMAL,,END OF TREATMENT,9,2025-04-17,140
STUDY001,LB,STUDY001-SUBJ0004,1,L00001,HGB,Hemoglobin,HEMATOLOGY,15.69,g/dL,13.5,17.5,15.69,15.69,g/dL,13.5,17.5,NORMAL,,SCREENING,1,2024-08-28,-14
STUDY001,LB,STUDY001-SUBJ0004,2,L00002,HCT,Hematocrit,HEMATOLOGY,44.34,%,41.0,51.0,44.34,44.34,%,41.0,51.0,NORMAL,,SCREENING,1,2024-08-28,-14
STUDY001,LB,STUDY001-SUBJ0004,3,L00003,WBC,White Blood Cell Count,HEMATOLOGY,6.75,10^9/L,4.5,11.0,6.75,6.75,10^9/L,4.5,11.0,NORMAL,,SCREENING,1,2024-08-28,-14
STUDY001,LB,STUDY001-SUBJ0004,4,L00004,PLT,Platelet Count,HEMATOLOGY,280.73,10^9/L,150.0,450.0,280.73,280.73,10^9/L,150.0,450.0,NORMAL,,SCREENING,1,2024-08-28,-14
STUDY001,LB,STUDY001-SUBJ0004,5,L00005,GLUC,Glucose,CHEMISTRY,97.3,mg/dL,70.0,100.0,97.3,97.3,mg/dL,70.0,100.0,NORMAL,,SCREENING,1,2024-08-28,-14
STUDY001,LB,STUDY001-SUBJ0004,6,L00006,BUN,Blood Urea Nitrogen,CHEMISTRY,18.02,mg/dL,7.0,20.0,18.02,18.02,mg/dL,7.0,20.0,NORMAL,,SCREENING,1,2024-08-28,-14
STUDY001,LB,STUDY001-SUBJ0004,7,L00007,CREAT,Creatinine,CHEMISTRY,1.16,mg/dL,0.6,1.2,1.16,1.16,mg/dL,0.6,1.2,NORMAL,,SCREENING,1,2024-08-28,-14
STUDY001,LB,STUDY001-SUBJ0004,8,L00008,BILI,Total Bilirubin,CHEMISTRY,0.49,mg/dL,0.1,1.2,0.49,0.49,mg/dL,0.1,1.2,NORMAL,,SCREENING,1,2024-08-28,-14
STUDY001,LB,STUDY001-SUBJ0004,9,L00009,ALP,Alkaline Phosphatase,CHEMISTRY,69.73,U/L,44.0,147.0,69.73,69.73,U/L,44.0,147.0,NORMAL,,SCREENING,1,2024-08-28,-14
STUDY001,LB,STUDY001-SUBJ0004,10,L00010,ALT,Alanine Aminotransferase,CHEMISTRY,18.05,U/L,7.0,56.0,18.05,18.05,U/L,7.0,56.0,NORMAL,,SCREENING,1,2024-08-28,-14
STUDY001,LB,STUDY001-SUBJ0004,11,L00011,HGB,Hemoglobin,HEMATOLOGY,15.67,g/dL,13.5,17.5,15.67,15.67,g/dL,13.5,17.5,NORMAL,Y,BASELINE,2,2024-09-11,1
STUDY001,LB,STUDY001-SUBJ0004,12,L00012,HCT,Hematocrit,HEMATOLOGY,43.58,%,41.0,51.0,43.58,43.58,%,41.0,51.0,NORMAL,Y,BASELINE,2,2024-09-11,1
STUDY001,LB,STUDY001-SUBJ0004,13,L00013,WBC,White Blood Cell Count,HEMATOLOGY,6.68,10^9/L,4.5,11.0,6.68,6.68,10^9/L,4.5,11.0,NORMAL,Y,BASELINE,2,2024-09-11,1
STUDY001,LB,STUDY001-SUBJ0004,14,L00014,PLT,Platelet Count,HEMATOLOGY,283.64,10^9/L,150.0,450.0,283.64,283.64,10^9/L,150.0,450.0,NORMAL,Y,BASELINE,2,2024-09-11,1
STUDY001,LB,STUDY001-SUBJ0004,15,L00015,GLUC,Glucose,CHEMISTRY,97.07,mg/dL,70.0,100.0,97.07,97.07,mg/dL,70.0,100.0,NORMAL,Y,BASELINE,2,2024-09-11,1
STUDY001,LB,STUDY001-SUBJ0004,16,L00016,BUN,Blood Urea Nitrogen,CHEMISTRY,18.05,mg/dL,7.0,20.0,18.05,18.05,mg/dL,7.0,20.0,NORMAL,Y,BASELINE,2,2024-09-11,1
STUDY001,LB,STUDY001-SUBJ0004,17,L00017,CREAT,Creatinine,CHEMISTRY,1.12,mg/dL,0.6,1.2,1.12,1.12,mg/dL,0.6,1.2,NORMAL,Y,BASELINE,2,2024-09-11,1
STUDY001,LB,STUDY001-SUBJ0004,18,L00018,BILI,Total Bilirubin,CHEMISTRY,0.46,mg/dL,0.1,1.2,0.46,0.46,mg/dL,0.1,1.2,NORMAL,Y,BASELINE,2,2024-09-11,1
STUDY001,LB,STUDY001-SUBJ0004,19,L00019,ALP,Alkaline Phosphatase,CHEMISTRY,72.17,U/L,44.0,147.0,72.17,72.17,U/L,44.0,147.0,NORMAL,Y,BASELINE,2,2024-09-11,1
STUDY001,LB,STUDY001-SUBJ0004,20,L00020,ALT,Alanine Aminotransferase,CHEMISTRY,18.55,U/L,7.0,56.0,18.55,18.55,U/L,7.0,56.0,NORMAL,Y,BASELINE,2,2024-09-11,1
STUDY001,LB,STUDY001-SUBJ0004,21,L00021,HGB,Hemoglobin,HEMATOLOGY,15.67,g/dL,13.5,17.5,15.67,15.67,g/dL,13.5,17.5,NORMAL,,WEEK 1,3,2024-09-17,7
STUDY001,LB,STUDY001-SUBJ0004,22,L00022,HCT,Hematocrit,HEMATOLOGY,43.62,%,41.0,51.0,43.62,43.62,%,41.0,51.0,NORMAL,,WEEK 1,3,2024-09-17,7
STUDY001,LB,STUDY001-SUBJ0004,23,L00023,WBC,White Blood Cell Count,HEMATOLOGY,6.53,10^9/L,4.5,11.0,6.53,6.53,10^9/L,4.5,11.0,NORMAL,,WEEK 1,3,2024-09-17,7
STUDY001,LB,STUDY001-SUBJ0004,24,L00024,PLT,Platelet Count,HEMATOLOGY,282.67,10^9/L,150.0,450.0,282.67,282.67,10^9/L,150.0,450.0,NORMAL,,WEEK 1,3,2024-09-17,7
STUDY001,LB,STUDY001-SUBJ0004,25,L00025,GLUC,Glucose,CHEMISTRY,96.6,mg/dL,70.0,100.0,96.6,96.6,mg/dL,70.0,100.0,NORMAL,,WEEK 1,3,2024-09-17,7
STUDY001,LB,STUDY001-SUBJ0004,26,L00026,BUN,Blood Urea Nitrogen,CHEMISTRY,18.39,mg/dL,7.0,20.0,18.39,18.39,mg/dL,7.0,20.0,NORMAL,,WEEK 1,3,2024-09-17,7
STUDY001,LB,STUDY001-SUBJ0004,27,L00027,CREAT,Creatinine,CHEMISTRY,1.14,mg/dL,0.6,1.2,1.14,1.14,mg/dL,0.6,1.2,NORMAL,,WEEK 1,3,2024-09-17,7
STUDY001,LB,STUDY001-SUBJ0004,28,L00028,BILI,Total Bilirubin,CHEMISTRY,0.5,mg/dL,0.1,1.2,0.5,0.5,mg/dL,0.1,1.2,NORMAL,,WEEK 1,3,2024-09-17,7
STUDY001,LB,STUDY001-SUBJ0004,29,L00029,ALP,Alkaline Phosphatase,CHEMISTRY,71.8,U/L,44.0,147.0,71.8,71.8,U/L,44.0,147.0,NORMAL,,WEEK 1,3,2024-09-17,7
STUDY001,LB,STUDY001-SUBJ0004,30,L00030,ALT,Alanine Aminotransferase,CHEMISTRY,16.7,U/L,7.0,56.0,16.7,16.7,U/L,7.0,56.0,NORMAL,,WEEK 1,3,2024-09-17,7
STUDY001,LB,STUDY001-SUBJ0004,31,L00031,HGB,Hemoglobin,HEMATOLOGY,15.93,g/dL,13.5,17.5,15.93,15.93,g/dL,13.5,17.5,NORMAL,,WEEK 2,4,2024-09-24,14
STUDY001,LB,STUDY001-SUBJ0004,32,L00032,HCT,Hematocrit,HEMATOLOGY,43.93,%,41.0,51.0,43.93,43.93,%,41.0,51.0,NORMAL,,WEEK 2,4,2024-09-24,14
STUDY001,LB,STUDY001-SUBJ0004,33,L00033,WBC,White Blood Cell Count,HEMATOLOGY,6.55,10^9/L,4.5,11.0,6.55,6.55,10^9/L,4.5,11.0,NORMAL,,WEEK 2,4,2024-09-24,14
STUDY001,LB,STUDY001-SUBJ0004,34,L00034,PLT,Platelet Count,HEMATOLOGY,281.7,10^9/L,150.0,450.0,281.7,281.7,10^9/L,150.0,450.0,NORMAL,,WEEK 2,4,2024-09-24,14
STUDY001,LB,STUDY001-SUBJ0004,35,L00035,GLUC,Glucose,CHEMISTRY,97.02,mg/dL,70.0,100.0,97.02,97.02,mg/dL,70.0,100.0,NORMAL,,WEEK 2,4,2024-09-24,14
STUDY001,LB,STUDY001-SUBJ0004,36,L00036,BUN,Blood Urea Nitrogen,CHEMISTRY,18.25,mg/dL,7.0,20.0,18.25,18.25,mg/dL,7.0,20.0,NORMAL,,WEEK 2,4,2024-09-24,14
STUDY001,LB,STUDY001-SUBJ0004,37,L00037,CREAT,Creatinine,CHEMISTRY,1.12,mg/dL,0.6,1.2,1.12,1.12,mg/dL,0.6,1.2,NORMAL,,WEEK 2,4,2024-09-24,14
STUDY001,LB,STUDY001-SUBJ0004,38,L00038,BILI,Total Bilirubin,CHEMISTRY,0.51,mg/dL,0.1,1.2,0.51,0.51,mg/dL,0.1,1.2,NORMAL,,WEEK 2,4,2024-09-24,14
STUDY001,LB,STUDY001-SUBJ0004,39,L00039,ALP,Alkaline Phosphatase,CHEMISTRY,69.51,U/L,44.0,147.0,69.51,69.51,U/L,44.0,147.0,NORMAL,,WEEK 2,4,2024-09-24,14
STUDY001,LB,STUDY001-SUBJ0004,40,L00040,ALT,Alanine Aminotransferase,CHEMISTRY,17.14,U/L,7.0,56.0,17.14,17.14,U/L,7.0,56.0,NORMAL,,WEEK 2,4,2024-09-24,14
STUDY001,LB,STUDY001-SUBJ0004,41,L00041,HGB,Hemoglobin,HEMATOLOGY,15.64,g/dL,13.5,17.5,15.64,15.64,g/dL,13.5,17.5,NORMAL,,WEEK 4,5,2024-10-08,28
STUDY001,LB,STUDY001-SUBJ0004,42,L00042,HCT,Hematocrit,HEMATOLOGY,44.16,%,41.0,51.0,44.16,44.16,%,41.0,51.0,NORMAL,,WEEK 4,5,2024-10-08,28
STUDY001,LB,STUDY001-SUBJ0004,43,L00043,WBC,White Blood Cell Count,HEMATOLOGY,6.65,10^9/L,4.5,11.0,6.65,6.65,10^9/L,4.5,11.0,NORMAL,,WEEK 4,5,2024-10-08,28
STUDY001,LB,STUDY001-SUBJ0004,44,L00044,PLT,Platelet Count,HEMATOLOGY,286.58,10^9/L,150.0,450.0,286.58,286.58,10^9/L,150.0,450.0,NORMAL,,WEEK 4,5,2024-10-08,28
STUDY001,LB,STUDY001-SUBJ0004,45,L00045,GLUC,Glucose,CHEMISTRY,98.41,mg/dL,70.0,100.0,98.41,98.41,mg/dL,70.0,100.0,NORMAL,,WEEK 4,5,2024-10-08,28
STUDY001,LB,STUDY001-SUBJ0004,46,L00046,BUN,Blood Urea Nitrogen,CHEMISTRY,17.94,mg/dL,7.0,20.0,17.94,17.94,mg/dL,7.0,20.0,NORMAL,,WEEK 4,5,2024-10-08,28
STUDY001,LB,STUDY001-SUBJ0004,47,L00047,CREAT,Creatinine,CHEMISTRY,1.14,mg/dL,0.6,1.2,1.14,1.14,mg/dL,0.6,1.2,NORMAL,,WEEK 4,5,2024-10-08,28
STUDY001,LB,STUDY001-SUBJ0004,48,L00048,BILI,Total Bilirubin,CHEMISTRY,0.47,mg/dL,0.1,1.2,0.47,0.47,mg/dL,0.1,1.2,NORMAL,,WEEK 4,5,2024-10-08,28
STUDY001,LB,STUDY001-SUBJ0004,49,L00049,ALP,Alkaline Phosphatase,CHEMISTRY,72.57,U/L,44.0,147.0,72.57,72.57,U/L,44.0,147.0,NORMAL,,WEEK 4,5,2024-10-08,28
STUDY001,LB,STUDY001-SUBJ0004,50,L00050,ALT,Alanine Aminotransferase,CHEMISTRY,15.73,U/L,7.0,56.0,15.73,15.73,U/L,7.0,56.0,NORMAL,,WEEK 4,5,2024-10-08,28
STUDY001,LB,STUDY001-SUBJ0004,51,L00051,HGB,Hemoglobin,HEMATOLOGY,15.66,g/dL,13.5,17.5,15.66,15.66,g/dL,13.5,17.5,NORMAL,,WEEK 8,6,2024-11-05,56
STUDY001,LB,STUDY001-SUBJ0004,52,L00052,HCT,Hematocrit,HEMATOLOGY,44.03,%,41.0,51.0,44.03,44.03,%,41.0,51.0,NORMAL,,WEEK 8,6,2024-11-05,56
STUDY001,LB,STUDY001-SUBJ0004,53,L00053,WBC,White Blood Cell Count,HEMATOLOGY,6.46,10^9/L,4.5,11.0,6.46,6.46,10^9/L,4.5,11.0,NORMAL,,WEEK 8,6,2024-11-05,56
STUDY001,LB,STUDY001-SUBJ0004,54,L00054,PLT,Platelet Count,HEMATOLOGY,283.67,10^9/L,150.0,450.0,283.67,283.67,10^9/L,150.0,450.0,NORMAL,,WEEK 8,6,2024-11-05,56
STUDY001,LB,STUDY001-SUBJ0004,55,L00055,GLUC,Glucose,CHEMISTRY,99.3,mg/dL,70.0,100.0,99.3,99.3,mg/dL,70.0,100.0,NORMAL,,WEEK 8,6,2024-11-05,56
STUDY001,LB,STUDY001-SUBJ0004,56,L00056,BUN,Blood Urea Nitrogen,CHEMISTRY,18.26,mg/dL,7.0,20.0,18.26,18.26,mg/dL,7.0,20.0,NORMAL,,WEEK 8,6,2024-11-05,56
STUDY001,LB,STUDY001-SUBJ0004,57,L00057,CREAT,Creatinine,CHEMISTRY,1.16,mg/dL,0.6,1.2,1.16,1.16,mg/dL,0.6,1.2,NORMAL,,WEEK 8,6,2024-11-05,56
STUDY001,LB,STUDY001-SUBJ0004,58,L00058,BILI,Total Bilirubin,CHEMISTRY,0.53,mg/dL,0.1,1.2,0.53,0.53,mg/dL,0.1,1.2,NORMAL,,WEEK 8,6,2024-11-05,56
STUDY001,LB,STUDY001-SUBJ0004,59,L00059,ALP,Alkaline Phosphatase,CHEMISTRY,71.43,U/L,44.0,147.0,71.43,71.43,U/L,44.0,147.0,NORMAL,,WEEK 8,6,2024-11-05,56
STUDY001,LB,STUDY001-SUBJ0004,60,L00060,ALT,Alanine Aminotransferase,CHEMISTRY,14.2,U/L,7.0,56.0,14.2,14.2,U/L,7.0,56.0,NORMAL,,WEEK 8,6,2024-11-05,56
STUDY001,LB,STUDY001-SUBJ0004,61,L00061,HGB,Hemoglobin,HEMATOLOGY,15.64,g/dL,13.5,17.5,15.64,15.64,g/dL,13.5,17.5,NORMAL,,WEEK 12,7,2024-12-03,84
STUDY001,LB,STUDY001-SUBJ0004,62,L00062,HCT,Hematocrit,HEMATOLOGY,43.75,%,41.0,51.0,43.75,43.75,%,41.0,51.0,NORMAL,,WEEK 12,7,2024-12-03,84
STUDY001,LB,STUDY001-SUBJ0004,63,L00063,WBC,White Blood Cell Count,HEMATOLOGY,6.64,10^9/L,4.5,11.0,6.64,6.64,10^9/L,4.5,11.0,NORMAL,,WEEK 12,7,2024-12-03,84
STUDY001,LB,STUDY001-SUBJ0004,64,L00064,PLT,Platelet Count,HEMATOLOGY,278.01,10^9/L,150.0,450.0,278.01,278.01,10^9/L,150.0,450.0,NORMAL,,WEEK 12,7,2024-12-03,84
STUDY001,LB,STUDY001-SUBJ0004,65,L00065,GLUC,Glucose,CHEMISTRY,96.08,mg/dL,70.0,100.0,96.08,96.08,mg/dL,70.0,100.0,NORMAL,,WEEK 12,7,2024-12-03,84
STUDY001,LB,STUDY001-SUBJ0004,66,L00066,BUN,Blood Urea Nitrogen,CHEMISTRY,17.93,mg/dL,7.0,20.0,17.93,17.93,mg/dL,7.0,20.0,NORMAL,,WEEK 12,7,2024-12-03,84
STUDY001,LB,STUDY001-SUBJ0004,67,L00067,CREAT,Creatinine,CHEMISTRY,1.17,mg/dL,0.6,1.2,1.17,1.17,mg/dL,0.6,1.2,NORMAL,,WEEK 12,7,2024-12-03,84
STUDY001,LB,STUDY001-SUBJ0004,68,L00068,BILI,Total Bilirubin,CHEMISTRY,0.49,mg/dL,0.1,1.2,0.49,0.49,mg/dL,0.1,1.2,NORMAL,,WEEK 12,7,2024-12-03,84
STUDY001,LB,STUDY001-SUBJ0004,69,L00069,ALP,Alkaline Phosphatase,CHEMISTRY,72.89,U/L,44.0,147.0,72.89,72.89,U/L,44.0,147.0,NORMAL,,WEEK 12,7,2024-12-03,84
STUDY001,LB,STUDY001-SUBJ0004,70,L00070,ALT,Alanine Aminotransferase,CHEMISTRY,17.59,U/L,7.0,56.0,17.59,17.59,U/L,7.0,56.0,NORMAL,,WEEK 12,7,2024-12-03,84
STUDY001,LB,STUDY001-SUBJ0004,71,L00071,HGB,Hemoglobin,HEMATOLOGY,15.81,g/dL,13.5,17.5,15.81,15.81,g/dL,13.5,17.5,NORMAL,,WEEK 16,8,2024-12-31,112
STUDY001,LB,STUDY001-SUBJ0004,72,L00072,HCT,Hematocrit,HEMATOLOGY,43.83,%,41.0,51.0,43.83,43.83,%,41.0,51.0,NORMAL,,WEEK 16,8,2024-12-31,112
STUDY001,LB,STUDY001-SUBJ0004,73,L00073,WBC,White Blood Cell Count,HEMATOLOGY,6.51,10^9/L,4.5,11.0,6.51,6.51,10^9/L,4.5,11.0,NORMAL,,WEEK 16,8,2024-12-31,112
STUDY001,LB,STUDY001-SUBJ0004,74,L00074,PLT,Platelet Count,HEMATOLOGY,277.17,10^9/L,150.0,450.0,277.17,277.17,10^9/L,150.0,450.0,NORMAL,,WEEK 16,8,2024-12-31,112
STUDY001,LB,STUDY001-SUBJ0004,75,L00075,GLUC,Glucose,CHEMISTRY,98.21,mg/dL,70.0,100.0,98.21,98.21,mg/dL,70.0,100.0,NORMAL,,WEEK 16,8,2024-12-31,112
STUDY001,LB,STUDY001-SUBJ0004,76,L00076,BUN,Blood Urea Nitrogen,CHEMISTRY,18.41,mg/dL,7.0,20.0,18.41,18.41,mg/dL,7.0,20.0,NORMAL,,WEEK 16,8,2024-12-31,112
STUDY001,LB,STUDY001-SUBJ0004,77,L00077,CREAT,Creatinine,CHEMISTRY,1.15,mg/dL,0.6,1.2,1.15,1.15,mg/dL,0.6,1.2,NORMAL,,WEEK 16,8,2024-12-31,112
STUDY001,LB,STUDY001-SUBJ0004,78,L00078,BILI,Total Bilirubin,CHEMISTRY,0.46,mg/dL,0.1,1.2,0.46,0.46,mg/dL,0.1,1.2,NORMAL,,WEEK 16,8,2024-12-31,112
STUDY001,LB,STUDY001-SUBJ0004,79,L00079,ALP,Alkaline Phosphatase,CHEMISTRY,76.11,U/L,44.0,147.0,76.11,76.11,U/L,44.0,147.0,NORMAL,,WEEK 16,8,2024-12-31,112
STUDY001,LB,STUDY001-SUBJ0004,80,L00080,ALT,Alanine Aminotransferase,CHEMISTRY,16.56,U/L,7.0,56.0,16.56,16.56,U/L,7.0,56.0,NORMAL,,WEEK 16,8,2024-12-31,112
STUDY001,LB,STUDY001-SUBJ0004,81,L00081,HGB,Hemoglobin,HEMATOLOGY,15.78,g/dL,13.5,17.5,15.78,15.78,g/dL,13.5,17.5,NORMAL,,END OF TREATMENT,9,2025-01-28,140
STUDY001,LB,STUDY001-SUBJ0004,82,L00082,HCT,Hematocrit,HEMATOLOGY,43.79,%,41.0,51.0,43.79,43.79,%,41.0,51.0,NORMAL,,END OF TREATMENT,9,2025-01-28,140
STUDY001,LB,STUDY001-SUBJ0004,83,L00083,WBC,White Blood Cell Count,HEMATOLOGY,6.65,10^9/L,4.5,11.0,6.65,6.65,10^9/L,4.5,11.0,NORMAL,,END OF TREATMENT,9,2025-01-28,140
STUDY001,LB,STUDY001-SUBJ0004,84,L00084,PLT,Platelet Count,HEMATOLOGY,277.87,10^9/L,150.0,450.0,277.87,277.87,10^9/L,150.0,450.0,NORMAL,,END OF TREATMENT,9,2025-01-28,140
STUDY001,LB,STUDY001-SUBJ0004,85,L00085,GLUC,Glucose,CHEMISTRY,96.79,mg/dL,70.0,100.0,96.79,96.79,mg/dL,70.0,100.0,NORMAL,,END OF TREATMENT,9,2025-01-28,140
STUDY001,LB,STUDY001-SUBJ0004,86,L00086,BUN,Blood Urea Nitrogen,CHEMISTRY,18.2,mg/dL,7.0,20.0,18.2,18.2,mg/dL,7.0,20.0,NORMAL,,END OF TREATMENT,9,2025-01-28,140
STUDY001,LB,STUDY001-SUBJ0004,87,L00087,CREAT,Creatinine,CHEMISTRY,1.13,mg/dL,0.6,1.2,1.13,1.13,mg/dL,0.6,1.2,NORMAL,,END OF TREATMENT,9,2025-01-28,140
STUDY001,LB,STUDY001-SUBJ0004,88,L00088,BILI,Total Bilirubin,CHEMISTRY,0.49,mg/dL,0.1,1.2,0.49,0.49,mg/dL,0.1,1.2,NORMAL,,END OF TREATMENT,9,2025-01-28,140
STUDY001,LB,STUDY001-SUBJ0004,89,L00089,ALP,Alkaline Phosphatase,CHEMISTRY,71.67,U/L,44.0,147.0,71.67,71.67,U/L,44.0,147.0,NORMAL,,END OF TREATMENT,9,2025-01-28,140
STUDY001,LB,STUDY001-SUBJ0004,90,L00090,ALT,Alanine Aminotransferase,CHEMISTRY,15.84,U/L,7.0,56.0,15.84,15.84,U/L,7.0,56.0,NORMAL,,END OF TREATMENT,9,2025-01-28,140
STUDY001,LB,STUDY001-SUBJ0005,1,L00001,HGB,Hemoglobin,HEMATOLOGY,15.25,g/dL,13.5,17.5,15.25,15.25,g/dL,13.5,17.5,NORMAL,,SCREENING,1,2024-11-20,-14
STUDY001,LB,STUDY001-SUBJ0005,2,L00002,HCT,Hematocrit,HEMATOLOGY,44.67,%,41.0,51.0,44.67,44.67,%,41.0,51.0,NORMAL,,SCREENING,1,2024-11-20,-14
STUDY001,LB,STUDY001-SUBJ0005,3,L00003,WBC,White Blood Cell Count,HEMATOLOGY,7.54,10^9/L,4.5,11.0,7.54,7.54,10^9/L,4.5,11.0,NORMAL,,SCREENING,1,2024-11-20,-14
STUDY001,LB,STUDY001-SUBJ0005,4,L00004,PLT,Platelet Count,HEMATOLOGY,218.85,10^9/L,150.0,450.0,218.85,218.85,10^9/L,150.0,450.0,NORMAL,,SCREENING,1,2024-11-20,-14
STUDY001,LB,STUDY001-SUBJ0005,5,L00005,GLUC,Glucose,CHEMISTRY,90.67,mg/dL,70.0,100.0,90.67,90.67,mg/dL,70.0,100.0,NORMAL,,SCREENING,1,2024-11-20,-14
STUDY001,LB,STUDY001-SUBJ0005,6,L00006,BUN,Blood Urea Nitrogen,CHEMISTRY,15.82,mg/dL,7.0,20.0,15.82,15.82,mg/dL,7.0,20.0,NORMAL,,SCREENING,1,2024-11-20,-14
STUDY001,LB,STUDY001-SUBJ0005,7,L00007,CREAT,Creatinine,CHEMISTRY,0.75,mg/dL,0.6,1.2,0.75,0.75,mg/dL,0.6,1.2,NORMAL,,SCREENING,1,2024-11-20,-14
STUDY001,LB,STUDY001-SUBJ0005,8,L00008,BILI,Total Bilirubin,CHEMISTRY,0.67,mg/dL,0.1,1.2,0.67,0.67,mg/dL,0.1,1.2,NORMAL,,SCREENING,1,2024-11-20,-14
STUDY001,LB,STUDY001-SUBJ0005,9,L00009,ALP,Alkaline Phosphatase,CHEMISTRY,124.39,U/L,44.0,147.0,124.39,124.39,U/L,44.0,147.0,NORMAL,,SCREENING,1,2024-11-20,-14
STUDY001,LB,STUDY001-SUBJ0005,10,L00010,ALT,Alanine Aminotransferase,CHEMISTRY,35.82,U/L,7.0,56.0,35.82,35.82,U/L,7.0,56.0,NORMAL,,SCREENING,1,2024-11-20,-14
STUDY001,LB,STUDY001-SUBJ0005,11,L00011,HGB,Hemoglobin,HEMATOLOGY,15.12,g/dL,13.5,17.5,15.12,15.12,g/dL,13.5,17.5,NORMAL,Y,BASELINE,2,2024-12-04,1
STUDY001,LB,STUDY001-SUBJ0005,12,L00012,HCT,Hematocrit,HEMATOLOGY,44.97,%,41.0,51.0,44.97,44.97,%,41.0,51.0,NORMAL,Y,BASELINE,2,2024-12-04,1
STUDY001,LB,STUDY001-SUBJ0005,13,L00013,WBC,White Blood Cell Count,HEMATOLOGY,7.43,10^9/L,4.5,11.0,7.43,7.43,10^9/L,4.5,11.0,NORMAL,Y,BASELINE,2,2024-12-04,1
STUDY001,LB,STUDY001-SUBJ0005,14,L00014,PLT,Platelet Count,HEMATOLOGY,221.88,10^9/L,150.0,450.0,221.88,221.88,10^9/L,150.0,450.0,NORMAL,Y,BASELINE,2,2024-12-04,1
STUDY001,LB,STUDY001-SUBJ0005,15,L00015,GLUC,Glucose,CHEMISTRY,90.09,mg/dL,70.0,100.0,90.09,90.09,mg/dL,70.0,100.0,NORMAL,Y,BASELINE,2,2024-12-04,1
STUDY001,LB,STUDY001-SUBJ0005,16,L00016,BUN,Blood Urea Nitrogen,CHEMISTRY,15.86,mg/dL,7.0,20.0,15.86,15.86,mg/dL,7.0,20.0,NORMAL,Y,BASELINE,2,2024-12-04,1
STUDY001,LB,STUDY001-SUBJ0005,17,L00017,CREAT,Creatinine,CHEMISTRY,0.75,mg/dL,0.6,1.2,0.75,0.75,mg/dL,0.6,1.2,NORMAL,Y,BASELINE,2,2024-12-04,1
STUDY001,LB,STUDY001-SUBJ0005,18,L00018,BILI,Total Bilirubin,CHEMISTRY,0.67,mg/dL,0.1,1.2,0.67,0.67,mg/dL,0.1,1.2,NORMAL,Y,BASELINE,2,2024-12-04,1
STUDY001,LB,STUDY001-SUBJ0005,19,L00019,ALP,Alkaline Phosphatase,CHEMISTRY,122.59,U/L,44.0,147.0,122.59,122.59,U/L,44.0,147.0,NORMAL,Y,BASELINE,2,2024-12-04,1
STUDY001,LB,STUDY001-SUBJ0005,20,L00020,ALT,Alanine Aminotransferase,CHEMISTRY,36.42,U/L,7.0,56.0,36.42,36.42,U/L,7.0,56.0,NORMAL,Y,BASELINE,2,2024-12-04,1
STUDY001,LB,STUDY001-SUBJ0005,21,L00021,HGB,Hemoglobin,HEMATOLOGY,15.32,g/dL,13.5,17.5,15.32,15.32,g/dL,13.5,17.5,NORMAL,,WEEK 1,3,2024-12-10,7
STUDY001,LB,STUDY001-SUBJ0005,22,L00022,HCT,Hematocrit,HEMATOLOGY,44.93,%,41.0,51.0,44.93,44.93,%,41.0,51.0,NORMAL,,WEEK 1,3,2024-12-10,7
STUDY001,LB,STUDY001-SUBJ0005,23,L00023,WBC,White Blood Cell Count,HEMATOLOGY,7.24,10^9/L,4.5,11.0,7.24,7.24,10^9/L,4.5,11.0,NORMAL,,WEEK 1,3,2024-12-10,7
STUDY001,LB,STUDY001-SUBJ0005,24,L00024,PLT,Platelet Count,HEMATOLOGY,224.67,10^9/L,150.0,450.0,224.67,224.67,10^9/L,150.0,450.0,NORMAL,,WEEK 1,3,2024-12-10,7
STUDY001,LB,STUDY001-SUBJ0005,25,L00025,GLUC,Glucose,CHEMISTRY,90.13,mg/dL,70.0,100.0,90.13,90.13,mg/dL,70.0,100.0,NORMAL,,WEEK 1,3,2024-12-10,7
STUDY001,LB,STUDY001-SUBJ0005,26,L00026,BUN,Blood Urea Nitrogen,CHEMISTRY,16.46,mg/dL,7.0,20.0,16.46,16.46,mg/dL,7.0,20.0,NORMAL,,WEEK 1,3,2024-12-10,7
STUDY001,LB,STUDY001-SUBJ0005,27,L00027,CREAT,Creatinine,CHEMISTRY,0.76,mg/dL,0.6,1.2,0.76,0.76,mg/dL,0.6,1.2,NORMAL,,WEEK 1,3,2024-12-10,7
STUDY001,LB,STUDY001-SUBJ0005,28,L00028,BILI,Total Bilirubin,CHEMISTRY,0.69,mg/dL,0.1,1.2,0.69,0.69,mg/dL,0.1,1.2,NORMAL,,WEEK 1,3,2024-12-10,7
STUDY001,LB,STUDY001-SUBJ0005,29,L00029,ALP,Alkaline Phosphatase,CHEMISTRY,123.52,U/L,44.0,147.0,123.52,123.52,U/L,44.0,147.0,NORMAL,,WEEK 1,3,2024-12-10,7
STUDY001,LB,STUDY001-SUBJ0005,30,L00030,ALT,Alanine Aminotransferase,CHEMISTRY,35.42,U/L,7.0,56.0,35.42,35.42,U/L,7.0,56.0,NORMAL,,WEEK 1,3,2024-12-10,7
STUDY001,LB,STUDY001-SUBJ0005,31,L00031,HGB,Hemoglobin,HEMATOLOGY,15.14,g/dL,13.5,17.5,15.14,15.14,g/dL,13.5,17.5,NORMAL,,WEEK 2,4,2024-12-17,14
STUDY001,LB,STUDY001-SUBJ0005,32,L00032,HCT,Hematocrit,HEMATOLOGY,45.0,%,41.0,51.0,45.0,45.0,%,41.0,51.0,NORMAL,,WEEK 2,4,2024-12-17,14
STUDY001,LB,STUDY001-SUBJ0005,33,L00033,WBC,White Blood Cell Count,HEMATOLOGY,7.36,10^9/L,4.5,11.0,7.36,7.36,10^9/L,4.5,11.0,NORMAL,,WEEK 2,4,2024-12-17,14
STUDY001,LB,STUDY001-SUBJ0005,34,L00034,PLT,Platelet Count,HEMATOLOGY,216.96,10^9/L,150.0,450.0,216.96,216.96,10^9/L,150.0,450.0,NORMAL,,WEEK 2,4,2024-12-17,14
STUDY001,LB,STUDY001-SUBJ0005,35,L00035,GLUC,Glucose,CHEMISTRY,89.04,mg/dL,70.0,100.0,89.04,89.04,mg/dL,70.0,100.0,NORMAL,,WEEK 2,4,2024-12-17,14
STUDY001,LB,STUDY001-SUBJ0005,36,L00036,BUN,Blood Urea Nitrogen,CHEMISTRY,15.61,mg/dL,7.0,20.0,15.61,15.61,mg/dL,7.0,20.0,NORMAL,,WEEK 2,4,2024-12-17,14
STUDY001,LB,STUDY001-SUBJ0005,37,L00037,CREAT,Creatinine,CHEMISTRY,0.75,mg/dL,0.6,1.2,0.75,0.75,mg/dL,0.6,1.2,NORMAL,,WEEK 2,4,2024-12-17,14
STUDY001,LB,STUDY001-SUBJ0005,38,L00038,BILI,Total Bilirubin,CHEMISTRY,0.65,mg/dL,0.1,1.2,0.65,0.65,mg/dL,0.1,1.2,NORMAL,,WEEK 2,4,2024-12-17,14
STUDY001,LB,STUDY001-SUBJ0005,39,L00039,ALP,Alkaline Phosphatase,CHEMISTRY,125.65,U/L,44.0,147.0,125.65,125.65,U/L,44.0,147.0,NORMAL,,WEEK 2,4,2024-12-17,14
STUDY001,LB,STUDY001-SUBJ0005,40,L00040,ALT,Alanine Aminotransferase,CHEMISTRY,36.31,U/L,7.0,56.0,36.31,36.31,U/L,7.0,56.0,NORMAL,,WEEK 2,4,2024-12-17,14
STUDY001,LB,STUDY001-SUBJ0005,41,L00041,HGB,Hemoglobin,HEMATOLOGY,15.26,g/dL,13.5,17.5,15.26,15.26,g/dL,13.5,17.5,NORMAL,,WEEK 4,5,2024-12-31,28
STUDY001,LB,STUDY001-SUBJ0005,42,L00042,HCT,Hematocrit,HEMATOLOGY,44.48,%,41.0,51.0,44.48,44.48,%,41.0,51.0,NORMAL,,WEEK 4,5,2024-12-31,28
STUDY001,LB,STUDY001-SUBJ0005,43,L00043,WBC,White Blood Cell Count,HEMATOLOGY,7.62,10^9/L,4.5,11.0,7.62,7.62,10^9/L,4.5,11.0,NORMAL,,WEEK 4,5,2024-12-31,28
STUDY001,LB,STUDY001-SUBJ0005,44,L00044,PLT,Platelet Count,HEMATOLOGY,217.91,10^9/L,150.0,450.0,217.91,217.91,10^9/L,150.0,450.0,NORMAL,,WEEK 4,5,2024-12-31,28
STUDY001,LB,STUDY001-SUBJ0005,45,L00045,GLUC,Glucose,CHEMISTRY,89.17,mg/dL,70.0,100.0,89.17,89.17,mg/dL,70.0,100.0,NORMAL,,WEEK 4,5,2024-12-31,28
STUDY001,LB,STUDY001-SUBJ0005,46,L00046,BUN,Blood Urea Nitrogen,CHEMISTRY,16.02,mg/dL,7.0,20.0,16.02,16.02,mg/dL,7.0,20.0,NORMAL,,WEEK 4,5,2024-12-31,28
STUDY001,LB,STUDY001-SUBJ0005,47,L00047,CREAT,Creatinine,CHEMISTRY,0.72,mg/dL,0.6,1.2,0.72,0.72,mg/dL,0.6,1.2,NORMAL,,WEEK 4,5,2024-12-31,28
STUDY001,LB,STUDY001-SUBJ0005,48,L00048,BILI,Total Bilirubin,CHEMISTRY,0.68,mg/dL,0.1,1.2,0.68,0.68,mg/dL,0.1,1.2,NORMAL,,WEEK 4,5,2024-12-31,28
STUDY001,LB,STUDY001-SUBJ0005,49,L00049,ALP,Alkaline Phosphatase,CHEMISTRY,122.75,U/L,44.0,147.0,122.75,122.75,U/L,44.0,147.0,NORMAL,,WEEK 4,5,2024-12-31,28
STUDY001,LB,STUDY001-SUBJ0005,50,L00050,ALT,Alanine Aminotransferase,CHEMISTRY,36.4,U/L,7.0,56.0,36.4,36.4,U/L,7.0,56.0,NORMAL,,WEEK 4,5,2024-12-31,28
STUDY001,LB,STUDY001-SUBJ0005,51,L00051,HGB,Hemoglobin,HEMATOLOGY,15.18,g/dL,13.5,17.5,15.18,15.18,g/dL,13.5,17.5,NORMAL,,WEEK 8,6,2025-01-28,56
STUDY001,LB,STUDY001-SUBJ0005,52,L00052,HCT,Hematocrit,HEMATOLOGY,44.36,%,41.0,51.0,44.36,44.36,%,41.0,51.0,NORMAL,,WEEK 8,6,2025-01-28,56
STUDY001,LB,STUDY001-SUBJ0005,53,L00053,WBC,White Blood Cell Count,HEMATOLOGY,7.33,10^9/L,4.5,11.0,7.33,7.33,10^9/L,4.5,11.0,NORMAL,,WEEK 8,6,2025-01-28,56
STUDY001,LB,STUDY001-SUBJ0005,54,L00054,PLT,Platelet Count,HEMATOLOGY,217.01,10^9/L,150.0,450.0,217.01,217.01,10^9/L,150.0,450.0,NORMAL,,WEEK 8,6,2025-01-28,56
STUDY001,LB,STUDY001-SUBJ0005,55,L00055,GLUC,Glucose,CHEMISTRY,88.5,mg/dL,70.0,100.0,88.5,88.5,mg/dL,70.0,100.0,NORMAL,,WEEK 8,6,2025-01-28,56
STUDY001,LB,STUDY001-SUBJ0005,56,L00056,BUN,Blood Urea Nitrogen,CHEMISTRY,15.54,mg/dL,7.0,20.0,15.54,15.54,mg/dL,7.0,20.0,NORMAL,,WEEK 8,6,2025-01-28,56
STUDY001,LB,STUDY001-SUBJ0005,57,L00057,CREAT,Creatinine,CHEMISTRY,0.73,mg/dL,0.6,1.2,0.73,0.73,mg/dL,0.6,1.2,NORMAL,,WEEK 8,6,2025-01-28,56
STUDY001,LB,STUDY001-SUBJ0005,58,L00058,BILI,Total Bilirubin,CHEMISTRY,0.64,mg/dL,0.1,1.2,0.64,0.64,mg/dL,0.1,1.2,NORMAL,,WEEK 8,6,2025-01-28,56
STUDY001,LB,STUDY001-SUBJ0005,59,L00059,ALP,Alkaline Phosphatase,CHEMISTRY,124.55,U/L,44.0,147.0,124.55,124.55,U/L,44.0,147.0,NORMAL,,WEEK 8,6,2025-01-28,56
STUDY001,LB,STUDY001-SUBJ0005,60,L00060,ALT,Alanine Aminotransferase,CHEMISTRY,36.57,U/L,7.0,56.0,36.57,36.57,U/L,7.0,56.0,NORMAL,,WEEK 8,6,2025-01-28,56
STUDY001,LB,STUDY001-SUBJ0005,61,L00061,HGB,Hemoglobin,HEMATOLOGY,15.14,g/dL,13.5,17.5,15.14,15.14,g/dL,13.5,17.5,NORMAL,,WEEK 12,7,2025-02-25,84
STUDY001,LB,STUDY001-SUBJ0005,62,L00062,HCT,Hematocrit,HEMATOLOGY,44.44,%,41.0,51.0,44.44,44.44,%,41.0,51.0,NORMAL,,WEEK 12,7,2025-02-25,84
STUDY001,LB,STUDY001-SUBJ0005,63,L00063,WBC,White Blood Cell Count,HEMATOLOGY,7.26,10^9/L,4.5,11.0,7.26,7.26,10^9/L,4.5,11.0,NORMAL,,WEEK 12,7,2025-02-25,84
STUDY001,LB,STUDY001-SUBJ0005,64,L00064,PLT,Platelet Count,HEMATOLOGY,220.64,10^9/L,150.0,450.0,220.64,220.64,10^9/L,150.0,450.0,NORMAL,,WEEK 12,7,2025-02-25,84
STUDY001,LB,STUDY001-SUBJ0005,65,L00065,GLUC,Glucose,CHEMISTRY,88.49,mg/dL,70.0,100.0,88.49,88.49,mg/dL,70.0,100.0,NORMAL,,WEEK 12,7,2025-02-25,84
STUDY001,LB,STUDY001-SUBJ0005,66,L00066,BUN,Blood Urea Nitrogen,CHEMISTRY,15.74,mg/dL,7.0,20.0,15.74,15.74,mg/dL,7.0,20.0,NORMAL,,WEEK 12,7,2025-02-25,84
STUDY001,LB,STUDY001-SUBJ0005,67,L00067,CREAT,Creatinine,CHEMISTRY,0.75,mg/dL,0.6,1.2,0.75,0.75,mg/dL,0.6,1.2,NORMAL,,WEEK 12,7,2025-02-25,84
STUDY001,LB,STUDY001-SUBJ0005,68,L00068,BILI,Total Bilirubin,CHEMISTRY,0.68,mg/dL,0.1,1.2,0.68,0.68,mg/dL,0.1,1.2,NORMAL,,WEEK 12,7,2025-02-25,84
STUDY001,LB,STUDY001-SUBJ0005,69,L00069,ALP,Alkaline Phosphatase,CHEMISTRY,125.27,U/L,44.0,147.0,125.27,125.27,U/L,44.0,147.0,NORMAL,,WEEK 12,7,2025-02-25,84
STUDY001,LB,STUDY001-SUBJ0005,70,L00070,ALT,Alanine Aminotransferase,CHEMISTRY,36.02,U/L,7.0,56.0,36.02,36.02,U/L,7.0,56.0,NORMAL,,WEEK 12,7,2025-02-25,84
STUDY001,LB,STUDY001-SUBJ0005,71,L00071,HGB,Hemoglobin,HEMATOLOGY,15.33,g/dL,13.5,17.5,15.33,15.33,g/dL,13.5,17.5,NORMAL,,WEEK 16,8,2025-03-25,112
STUDY001,LB,STUDY001-SUBJ0005,72,L00072,HCT,Hematocrit,HEMATOLOGY,45.2,%,41.0,51.0,45.2,45.2,%,41.0,51.0,NORMAL,,WEEK 16,8,2025-03-25,112
STUDY001,LB,STUDY001-SUBJ0005,73,L00073,WBC,White Blood Cell Count,HEMATOLOGY,7.38,10^9/L,4.5,11.0,7.38,7.38,10^9/L,4.5,11.0,NORMAL,,WEEK 16,8,2025-03-25,112
STUDY001,LB,STUDY001-SUBJ0005,74,L00074,PLT,Platelet Count,HEMATOLOGY,214.21,10^9/L,150.0,450.0,214.21,214.21,10^9/L,150.0,450.0,NORMAL,,WEEK 16,8,2025-03-25,112
STUDY001,LB,STUDY001-SUBJ0005,75,L00075,GLUC,Glucose,CHEMISTRY,89.31,mg/dL,70.0,100.0,89.31,89.31,mg/dL,70.0,100.0,NORMAL,,WEEK 16,8,2025-03-25,112
STUDY001,LB,STUDY001-SUBJ0005,76,L00076,BUN,Blood Urea Nitrogen,CHEMISTRY,16.24,mg/dL,7.0,20.0,16.24,16.24,mg/dL,7.0,20.0,NORMAL,,WEEK 16,8,2025-03-25,112
STUDY001,LB,STUDY001-SUBJ0005,77,L00077,CREAT,Creatinine,CHEMISTRY,0.72,mg/dL,0.6,1.2,0.72,0.72,mg/dL,0.6,1.2,NORMAL,,WEEK 16,8,2025-03-25,112
STUDY001,LB,STUDY001-SUBJ0005,78,L00078,BILI,Total Bilirubin,CHEMISTRY,0.66,mg/dL,0.1,1.2,0.66,0.66,mg/dL,0.1,1.2,NORMAL,,WEEK 16,8,2025-03-25,112
STUDY001,LB,STUDY001-SUBJ0005,79,L00079,ALP,Alkaline Phosphatase,CHEMISTRY,120.4,U/L,44.0,147.0,120.4,120.4,U/L,44.0,147.0,NORMAL,,WEEK 16,8,2025-03-25,112
STUDY001,LB,STUDY001-SUBJ0005,80,L00080,ALT,Alanine Aminotransferase,CHEMISTRY,35.27,U/L,7.0,56.0,35.27,35.27,U/L,7.0,56.0,NORMAL,,WEEK 16,8,2025-03-25,112
STUDY001,LB,STUDY001-SUBJ0005,81,L00081,HGB,Hemoglobin,HEMATOLOGY,15.25,g/dL,13.5,17.5,15.25,15.25,g/dL,13.5,17.5,NORMAL,,END OF TREATMENT,9,2025-04-22,140
STUDY001,LB,STUDY001-SUBJ0005,82,L00082,HCT,Hematocrit,HEMATOLOGY,44.75,%,41.0,51.0,44.75,44.75,%,41.0,51.0,NORMAL,,END OF TREATMENT,9,2025-04-22,140
STUDY001,LB,STUDY001-SUBJ0005,83,L00083,WBC,White Blood Cell Count,HEMATOLOGY,7.67,10^9/L,4.5,11.0,7.67,7.67,10^9/L,4.5,11.0,NORMAL,,END OF TREATMENT,9,2025-04-22,140
STUDY001,LB,STUDY001-SUBJ0005,84,L00084,PLT,Platelet Count,HEMATOLOGY,219.9,10^9/L,150.0,450.0,219.9,219.9,10^9/L,150.0,450.0,NORMAL,,END OF TREATMENT,9,2025-04-22,140
STUDY001,LB,STUDY001-SUBJ0005,85,L00085,GLUC,Glucose,CHEMISTRY,90.14,mg/dL,70.0,100.0,90.14,90.14,mg/dL,70.0,100.0,NORMAL,,END OF TREATMENT,9,2025-04-22,140
STUDY001,LB,STUDY001-SUBJ0005,86,L00086,BUN,Blood Urea Nitrogen,CHEMISTRY,15.68,mg/dL,7.0,20.0,15.68,15.68,mg/dL,7.0,20.0,NORMAL,,END OF TREATMENT,9,2025-04-22,140
STUDY001,LB,STUDY001-SUBJ0005,87,L00087,CREAT,Creatinine,CHEMISTRY,0.72,mg/dL,0.6,1.2,0.72,0.72,mg/dL,0.6,1.2,NORMAL,,END OF TREATMENT,9,2025-04-22,140
STUDY001,LB,STUDY001-SUBJ0005,88,L00088,BILI,Total Bilirubin,CHEMISTRY,0.67,mg/dL,0.1,1.2,0.67,0.67,mg/dL,0.1,1.2,NORMAL,,END OF TREATMENT,9,2025-04-22,140
STUDY001,LB,STUDY001-SUBJ0005,89,L00089,ALP,Alkaline Phosphatase,CHEMISTRY,121.85,U/L,44.0,147.0,121.85,121.85,U/L,44.0,147.0,NORMAL,,END OF TREATMENT,9,2025-04-22,140
STUDY001,LB,STUDY001-SUBJ0005,90,L00090,ALT,Alanine Aminotransferase,CHEMISTRY,34.3,U/L,7.0,56.0,34.3,34.3,U/L,7.0,56.0,NORMAL,,END OF TREATMENT,9,2025-04-22,140
STUDY001,LB,STUDY001-SUBJ0006,1,L00001,HGB,Hemoglobin,HEMATOLOGY,15.2,g/dL,13.5,17.5,15.2,15.2,g/dL,13.5,17.5,NORMAL,,SCREENING,1,2025-07-05,-14
STUDY001,LB,STUDY001-SUBJ0006,2,L00002,HCT,Hematocrit,HEMATOLOGY,49.95,%,41.0,51.0,49.95,49.95,%,41.0,51.0,NORMAL,,SCREENING,1,2025-07-05,-14
STUDY001,LB,STUDY001-SUBJ0006,3,L00003,WBC,White Blood Cell Count,HEMATOLOGY,8.75,10^9/L,4.5,11.0,8.75,8.75,10^9/L,4.5,11.0,NORMAL,,SCREENING,1,2025-07-05,-14
STUDY001,LB,STUDY001-SUBJ0006,4,L00004,PLT,Platelet Count,HEMATOLOGY,298.21,10^9/L,150.0,450.0,298.21,298.21,10^9/L,150.0,450.0,NORMAL,,SCREENING,1,2025-07-05,-14
STUDY001,LB,STUDY001-SUBJ0006,5,L00005,GLUC,Glucose,CHEMISTRY,89.67,mg/dL,70.0,100.0,89.67,89.67,mg/dL,70.0,100.0,NORMAL,,SCREENING,1,2025-07-05,-14
STUDY001,LB,STUDY001-SUBJ0006,6,L00006,BUN,Blood Urea Nitrogen,CHEMISTRY,15.24,mg/dL,7.0,20.0,15.24,15.24,mg/dL,7.0,20.0,NORMAL,,SCREENING,1,2025-07-05,-14
STUDY001,LB,STUDY001-SUBJ0006,7,L00007,CREAT,Creatinine,CHEMISTRY,1.32,mg/dL,0.6,1.2,1.32,1.32,mg/dL,0.6,1.2,HIGH,,SCREENING,1,2025-07-05,-14
STUDY001,LB,STUDY001-SUBJ0006,8,L00008,BILI,Total Bilirubin,CHEMISTRY,0.62,mg/dL,0.1,1.2,0.62,0.62,mg/dL,0.1,1.2,NORMAL,,SCREENING,1,2025-07-05,-14
STUDY001,LB,STUDY001-SUBJ0006,9,L00009,ALP,Alkaline Phosphatase,CHEMISTRY,85.53,U/L,44.0,147.0,85.53,85.53,U/L,44.0,147.0,NORMAL,,SCREENING,1,2025-07-05,-14
STUDY001,LB,STUDY001-SUBJ0006,10,L00010,ALT,Alanine Aminotransferase,CHEMISTRY,11.34,U/L,7.0,56.0,11.34,11.34,U/L,7.0,56.0,NORMAL,,SCREENING,1,2025-07-05,-14
STUDY001,LB,STUDY001-SUBJ0006,11,L00011,HGB,Hemoglobin,HEMATOLOGY,14.87,g/dL,13.5,17.5,14.87,14.87,g/dL,13.5,17.5,NORMAL,Y,BASELINE,2,2025-07-19,1
STUDY001,LB,STUDY001-SUBJ0006,12,L00012,HCT,Hematocrit,HEMATOLOGY,50.01,%,41.0,51.0,50.01,50.01,%,41.0,51.0,NORMAL,Y,BASELINE,2,2025-07-19,1
STUDY001,LB,STUDY001-SUBJ0006,13,L00013,WBC,White Blood Cell Count,HEMATOLOGY,8.98,10^9/L,4.5,11.0,8.98,8.98,10^9/L,4.5,11.0,NORMAL,Y,BASELINE,2,2025-07-19,1
STUDY001,LB,STUDY001-SUBJ0006,14,L00014,PLT,Platelet Count,HEMATOLOGY,299.99,10^9/L,150.0,450.0,299.99,299.99,10^9/L,150.0,450.0,NORMAL,Y,BASELINE,2,2025-07-19,1
STUDY001,LB,STUDY001-SUBJ0006,15,L00015,GLUC,Glucose,CHEMISTRY,89.75,mg/dL,70.0,100.0,89.75,89.75,mg/dL,70.0,100.0,NORMAL,Y,BASELINE,2,2025-07-19,1
STUDY001,LB,STUDY001-SUBJ0006,16,L00016,BUN,Blood Urea Nitrogen,CHEMISTRY,15.44,mg/dL,7.0,20.0,15.44,15.44,mg/dL,7.0,20.0,NORMAL,Y,BASELINE,2,2025-07-19,1
STUDY001,LB,STUDY001-SUBJ0006,17,L00017,CREAT,Creatinine,CHEMISTRY,1.32,mg/dL,0.6,1.2,1.32,1.32,mg/dL,0.6,1.2,HIGH,Y,BASELINE,2,2025-07-19,1
STUDY001,LB,STUDY001-SUBJ0006,18,L00018,BILI,Total Bilirubin,CHEMISTRY,0.59,mg/dL,0.1,1.2,0.59,0.59,mg/dL,0.1,1.2,NORMAL,Y,BASELINE,2,2025-07-19,1
STUDY001,LB,STUDY001-SUBJ0006,19,L00019,ALP,Alkaline Phosphatase,CHEMISTRY,89.31,U/L,44.0,147.0,89.31,89.31,U/L,44.0,147.0,NORMAL,Y,BASELINE,2,2025-07-19,1
STUDY001,LB,STUDY001-SUBJ0006,20,L00020,ALT,Alanine Aminotransferase,CHEMISTRY,15.12,U/L,7.0,56.0,15.12,15.12,U/L,7.0,56.0,NORMAL,Y,BASELINE,2,2025-07-19,1
STUDY001,LB,STUDY001-SUBJ0006,21,L00021,HGB,Hemoglobin,HEMATOLOGY,15.23,g/dL,13.5,17.5,15.23,15.23,g/dL,13.5,17.5,NORMAL,,WEEK 1,3,2025-07-25,7
STUDY001,LB,STUDY001-SUBJ0006,22,L00022,HCT,Hematocrit,HEMATOLOGY,50.21,%,41.0,51.0,50.21,50.21,%,41.0,51.0,NORMAL,,WEEK 1,3,2025-07-25,7
STUDY001,LB,STUDY001-SUBJ0006,23,L00023,WBC,White Blood Cell Count,HEMATOLOGY,8.86,10^9/L,4.5,11.0,8.86,8.86,10^9/L,4.5,11.0,NORMAL,,WEEK 1,3,2025-07-25,7
STUDY001,LB,STUDY001-SUBJ0006,24,L00024,PLT,Platelet Count,HEMATOLOGY,300.14,10^9/L,150.0,450.0,300.14,300.14,10^9/L,150.0,450.0,NORMAL,,WEEK 1,3,2025-07-25,7
STUDY001,LB,STUDY001-SUBJ0006,25,L00025,GLUC,Glucose,CHEMISTRY,89.94,mg/dL,70.0,100.0,89.94,89.94,mg/dL,70.0,100.0,NORMAL,,WEEK 1,3,2025-07-25,7
STUDY001,LB,STUDY001-SUBJ0006,26,L00026,BUN,Blood Urea Nitrogen,CHEMISTRY,15.69,mg/dL,7.0,20.0,15.69,15.69,mg/dL,7.0,20.0,NORMAL,,WEEK 1,3,2025-07-25,7
STUDY001,LB,STUDY001-SUBJ0006,27,L00027,CREAT,Creatinine,CHEMISTRY,1.33,mg/dL,0.6,1.2,1.33,1.33,mg/dL,0.6,1.2,HIGH,,WEEK 1,3,2025-07-25,7
STUDY001,LB,STUDY001-SUBJ0006,28,L00028,BILI,Total Bilirubin,CHEMISTRY,0.59,mg/dL,0.1,1.2,0.59,0.59,mg/dL,0.1,1.2,NORMAL,,WEEK 1,3,2025-07-25,7
STUDY001,LB,STUDY001-SUBJ0006,29,L00029,ALP,Alkaline Phosphatase,CHEMISTRY,84.96,U/L,44.0,147.0,84.96,84.96,U/L,44.0,147.0,NORMAL,,WEEK 1,3,2025-07-25,7
STUDY001,LB,STUDY001-SUBJ0006,30,L00030,ALT,Alanine Aminotransferase,CHEMISTRY,10.13,U/L,7.0,56.0,10.13,10.13,U/L,7.0,56.0,NORMAL,,WEEK 1,3,2025-07-25,7
STUDY001,LB,STUDY001-SUBJ0006,31,L00031,HGB,Hemoglobin,HEMATOLOGY,15.14,g/dL,13.5,17.5,15.14,15.14,g/dL,13.5,17.5,NORMAL,,WEEK 2,4,2025-08-01,14
STUDY001,LB,STUDY001-SUBJ0006,32,L00032,HCT,Hematocrit,HEMATOLOGY,49.94,%,41.0,51.0,49.94,49.94,%,41.0,51.0,NORMAL,,WEEK 2,4,2025-08-01,14
STUDY001,LB,STUDY001-SUBJ0006,33,L00033,WBC,White Blood Cell Count,HEMATOLOGY,8.56,10^9/L,4.5,11.0,8.56,8.56,10^9/L,4.5,11.0,NORMAL,,WEEK 2,4,2025-08-01,14
STUDY001,LB,STUDY001-SUBJ0006,34,L00034,PLT,Platelet Count,HEMATOLOGY,303.17,10^9/L,150.0,450.0,303.17,303.17,10^9/L,150.0,450.0,NORMAL,,WEEK 2,4,2025-08-01,14
STUDY001,LB,STUDY001-SUBJ0006,35,L00035,GLUC,Glucose,CHEMISTRY,90.52,mg/dL,70.0,100.0,90.52,90.52,mg/dL,70.0,100.0,NORMAL,,WEEK 2,4,2025-08-01,14
STUDY001,LB,STUDY001-SUBJ0006,36,L00036,BUN,Blood Urea Nitrogen,CHEMISTRY,15.38,mg/dL,7.0,20.0,15.38,15.38,mg/dL,7.0,20.0,NORMAL,,WEEK 2,4,2025-08-01,14
STUDY001,LB,STUDY001-SUBJ0006,37,L00037,CREAT,Creatinine,CHEMISTRY,1.31,mg/dL,0.6,1.2,1.31,1.31,mg/dL,0.6,1.2,HIGH,,WEEK 2,4,2025-08-01,14
STUDY001,LB,STUDY001-SUBJ0006,38,L00038,BILI,Total Bilirubin,CHEMISTRY,0.59,mg/dL,0.1,1.2,0.59,0.59,mg/dL,0.1,1.2,NORMAL,,WEEK 2,4,2025-08-01,14
STUDY001,LB,STUDY001-SUBJ0006,39,L00039,ALP,Alkaline Phosphatase,CHEMISTRY,84.16,U/L,44.0,147.0,84.16,84.16,U/L,44.0,147.0,NORMAL,,WEEK 2,4,2025-08-01,14
STUDY001,LB,STUDY001-SUBJ0006,40,L00040,ALT,Alanine Aminotransferase,CHEMISTRY,14.21,U/L,7.0,56.0,14.21,14.21,U/L,7.0,56.0,NORMAL,,WEEK 2,4,2025-08-01,14
STUDY001,LB,STUDY001-SUBJ0006,41,L00041,HGB,Hemoglobin,HEMATOLOGY,15.18,g/dL,13.5,17.5,15.18,15.18,g/dL,13.5,17.5,NORMAL,,WEEK 4,5,2025-08-15,28
STUDY001,LB,STUDY001-SUBJ0006,42,L00042,HCT,Hematocrit,HEMATOLOGY,49.83,%,41.0,51.0,49.83,49.83,%,41.0,51.0,NORMAL,,WEEK 4,5,2025-08-15,28
STUDY001,LB,STUDY001-SUBJ0006,43,L00043,WBC,White Blood Cell Count,HEMATOLOGY,8.87,10^9/L,4.5,11.0,8.87,8.87,10^9/L,4.5,11.0,NORMAL,,WEEK 4,5,2025-08-15,28
STUDY001,LB,STUDY001-SUBJ0006,44,L00044,PLT,Platelet Count,HEMATOLOGY,306.6,10^9/L,150.0,450.0,306.6,306.6,10^9/L,150.0,450.0,NORMAL,,WEEK 4,5,2025-08-15,28
STUDY001,LB,STUDY001-SUBJ0006,45,L00045,GLUC,Glucose,CHEMISTRY,90.34,mg/dL,70.0,100.0,90.34,90.34,mg/dL,70.0,100.0,NORMAL,,WEEK 4,5,2025-08-15,28
STUDY001,LB,STUDY001-SUBJ0006,46,L00046,BUN,Blood Urea Nitrogen,CHEMISTRY,15.26,mg/dL,7.0,20.0,15.26,15.26,mg/dL,7.0,20.0,NORMAL,,WEEK 4,5,2025-08-15,28
STUDY001,LB,STUDY001-SUBJ0006,47,L00047,CREAT,Creatinine,CHEMISTRY,1.32,mg/dL,0.6,1.2,1.32,1.32,mg/dL,0.6,1.2,HIGH,,WEEK 4,5,2025-08-15,28
STUDY001,LB,STUDY001-SUBJ0006,48,L00048,BILI,Total Bilirubin,CHEMISTRY,0.63,mg/dL,0.1,1.2,0.63,0.63,mg/dL,0.1,1.2,NORMAL,,WEEK 4,5,2025-08-15,28
STUDY001,LB,STUDY001-SUBJ0006,49,L00049,ALP,Alkaline Phosphatase,CHEMISTRY,84.68,U/L,44.0,147.0,84.68,84.68,U/L,44.0,147.0,NORMAL,,WEEK 4,5,2025-08-15,28
STUDY001,LB,STUDY001-SUBJ0006,50,L00050,ALT,Alanine Aminotransferase,CHEMISTRY,13.01,U/L,7.0,56.0,13.01,13.01,U/L,7.0,56.0,NORMAL,,WEEK 4,5,2025-08-15,28
STUDY001,LB,STUDY001-SUBJ0006,51,L00051,HGB,Hemoglobin,HEMATOLOGY,15.06,g/dL,13.5,17.5,15.06,15.06,g/dL,13.5,17.5,NORMAL,,WEEK 8,6,2025-09-12,56
STUDY001,LB,STUDY001-SUBJ0006,52,L00052,HCT,Hematocrit,HEMATOLOGY,49.99,%,41.0,51.0,49.99,49.99,%,41.0,51.0,NORMAL,,WEEK 8,6,2025-09-12,56
STUDY001,LB,STUDY001-SUBJ0006,53,L00053,WBC,White Blood Cell Count,HEMATOLOGY,8.79,10^9/L,4.5,11.0,8.79,8.79,10^9/L,4.5,11.0,NORMAL,,WEEK 8,6,2025-09-12,56
STUDY001,LB,STUDY001-SUBJ0006,54,L00054,PLT,Platelet Count,HEMATOLOGY,302.44,10^9/L,150.0,450.0,302.44,302.44,10^9/L,150.0,450.0,NORMAL,,WEEK 8,6,2025-09-12,56
STUDY001,LB,STUDY001-SUBJ0006,55,L00055,GLUC,Glucose,CHEMISTRY,89.84,mg/dL,70.0,100.0,89.84,89.84,mg/dL,70.0,100.0,NORMAL,,WEEK 8,6,2025-09-12,56
STUDY001,LB,STUDY001-SUBJ0006,56,L00056,BUN,Blood Urea Nitrogen,CHEMISTRY,15.71,mg/dL,7.0,20.0,15.71,15.71,mg/dL,7.0,20.0,NORMAL,,WEEK 8,6,2025-09-12,56
STUDY001,LB,STUDY001-SUBJ0006,57,L00057,CREAT,Creatinine,CHEMISTRY,1.36,mg/dL,0.6,1.2,1.36,1.36,mg/dL,0.6,1.2,HIGH,,WEEK 8,6,2025-09-12,56
STUDY001,LB,STUDY001-SUBJ0006,58,L00058,BILI,Total Bilirubin,CHEMISTRY,0.55,mg/dL,0.1,1.2,0.55,0.55,mg/dL,0.1,1.2,NORMAL,,WEEK 8,6,2025-09-12,56
STUDY001,LB,STUDY001-SUBJ0006,59,L00059,ALP,Alkaline Phosphatase,CHEMISTRY,85.05,U/L,44.0,147.0,85.05,85.05,U/L,44.0,147.0,NORMAL,,WEEK 8,6,2025-09-12,56
STUDY001,LB,STUDY001-SUBJ0006,60,L00060,ALT,Alanine Aminotransferase,CHEMISTRY,14.18,U/L,7.0,56.0,14.18,14.18,U/L,7.0,56.0,NORMAL,,WEEK 8,6,2025-09-12,56
STUDY001,LB,STUDY001-SUBJ0006,61,L00061,HGB,Hemoglobin,HEMATOLOGY,15.1,g/dL,13.5,17.5,15.1,15.1,g/dL,13.5,17.5,NORMAL,,WEEK 12,7,2025-10-10,84
STUDY001,LB,STUDY001-SUBJ0006,62,L00062,HCT,Hematocrit,HEMATOLOGY,49.83,%,41.0,51.0,49.83,49.83,%,41.0,51.0,NORMAL,,WEEK 12,7,2025-10-10,84
STUDY001,LB,STUDY001-SUBJ0006,63,L00063,WBC,White Blood Cell Count,HEMATOLOGY,8.62,10^9/L,4.5,11.0,8.62,8.62,10^9/L,4.5,11.0,NORMAL,,WEEK 12,7,2025-10-10,84
STUDY001,LB,STUDY001-SUBJ0006,64,L00064,PLT,Platelet Count,HEMATOLOGY,294.8,10^9/L,150.0,450.0,294.8,294.8,10^9/L,150.0,450.0,NORMAL,,WEEK 12,7,2025-10-10,84
STUDY001,LB,STUDY001-SUBJ0006,65,L00065,GLUC,Glucose,CHEMISTRY,89.11,mg/dL,70.0,100.0,89.11,89.11,mg/dL,70.0,100.0,NORMAL,,WEEK 12,7,2025-10-10,84
STUDY001,LB,STUDY001-SUBJ0006,66,L00066,BUN,Blood Urea Nitrogen,CHEMISTRY,15.36,mg/dL,7.0,20.0,15.36,15.36,mg/dL,7.0,20.0,NORMAL,,WEEK 12,7,2025-10-10,84
STUDY001,LB,STUDY001-SUBJ0006,67,L00067,CREAT,Creatinine,CHEMISTRY,1.32,mg/dL,0.6,1.2,1.32,1.32,mg/dL,0.6,1.2,HIGH,,WEEK 12,7,2025-10-10,84
STUDY001,LB,STUDY001-SUBJ0006,68,L00068,BILI,Total Bilirubin,CHEMISTRY,0.6,mg/dL,0.1,1.2,0.6,0.6,mg/dL,0.1,1.2,NORMAL,,WEEK 12,7,2025-10-10,84
STUDY001,LB,STUDY001-SUBJ0006,69,L00069,ALP,Alkaline Phosphatase,CHEMISTRY,85.02,U/L,44.0,147.0,85.02,85.02,U/L,44.0,147.0,NORMAL,,WEEK 12,7,2025-10-10,84
STUDY001,LB,STUDY001-SUBJ0006,70,L00070,ALT,Alanine Aminotransferase,CHEMISTRY,11.24,U/L,7.0,56.0,11.24,11.24,U/L,7.0,56.0,NORMAL,,WEEK 12,7,2025-10-10,84
STUDY001,LB,STUDY001-SUBJ0006,71,L00071,HGB,Hemoglobin,HEMATOLOGY,15.04,g/dL,13.5,17.5,15.04,15.04,g/dL,13.5,17.5,NORMAL,,WEEK 16,8,2025-11-07,112
STUDY001,LB,STUDY001-SUBJ0006,72,L00072,HCT,Hematocrit,HEMATOLOGY,50.0,%,41.0,51.0,50.0,50.0,%,41.0,51.0,NORMAL,,WEEK 16,8,2025-11-07,112
STUDY001,LB,STUDY001-SUBJ0006,73,L00073,WBC,White Blood Cell Count,HEMATOLOGY,8.88,10^9/L,4.5,11.0,8.88,8.88,10^9/L,4.5,11.0,NORMAL,,WEEK 16,8,2025-11-07,112
STUDY001,LB,STUDY001-SUBJ0006,74,L00074,PLT,Platelet Count,HEMATOLOGY,295.05,10^9/L,150.0,450.0,295.05,295.05,10^9/L,150.0,450.0,NORMAL,,WEEK 16,8,2025-11-07,112
STUDY001,LB,STUDY001-SUBJ0006,75,L00075,GLUC,Glucose,CHEMISTRY,90.91,mg/dL,70.0,100.0,90.91,90.91,mg/dL,70.0,100.0,NORMAL,,WEEK 16,8,2025-11-07,112
STUDY001,LB,STUDY001-SUBJ0006,76,L00076,BUN,Blood Urea Nitrogen,CHEMISTRY,15.4,mg/dL,7.0,20.0,15.4,15.4,mg/dL,7.0,20.0,NORMAL,,WEEK 16,8,2025-11-07,112
STUDY001,LB,STUDY001-SUBJ0006,77,L00077,CREAT,Creatinine,CHEMISTRY,1.32,mg/dL,0.6,1.2,1.32,1.32,mg/dL,0.6,1.2,HIGH,,WEEK 16,8,2025-11-07,112
STUDY001,LB,STUDY001-SUBJ0006,78,L00078,BILI,Total Bilirubin,CHEMISTRY,0.58,mg/dL,0.1,1.2,0.58,0.58,mg/dL,0.1,1.2,NORMAL,,WEEK 16,8,2025-11-07,112
STUDY001,LB,STUDY001-SUBJ0006,79,L00079,ALP,Alkaline Phosphatase,CHEMISTRY,86.46,U/L,44.0,147.0,86.46,86.46,U/L,44.0,147.0,NORMAL,,WEEK 16,8,2025-11-07,112
STUDY001,LB,STUDY001-SUBJ0006,80,L00080,ALT,Alanine Aminotransferase,CHEMISTRY,13.68,U/L,7.0,56.0,13.68,13.68,U/L,7.0,56.0,NORMAL,,WEEK 16,8,2025-11-07,112
STUDY001,LB,STUDY001-SUBJ0006,81,L00081,HGB,Hemoglobin,HEMATOLOGY,15.09,g/dL,13.5,17.5,15.09,15.09,g/dL,13.5,17.5,NORMAL,,END OF TREATMENT,9,2025-12-05,140
STUDY001,LB,STUDY001-SUBJ0006,82,L00082,HCT,Hematocrit,HEMATOLOGY,50.04,%,41.0,51.0,50.04,50.04,%,41.0,51.0,NORMAL,,END OF TREATMENT,9,2025-12-05,140
STUDY001,LB,STUDY001-SUBJ0006,83,L00083,WBC,White Blood Cell Count,HEMATOLOGY,9.08,10^9/L,4.5,11.0,9.08,9.08,10^9/L,4.5,11.0,NORMAL,,END OF TREATMENT,9,2025-12-05,140
STUDY001,LB,STUDY001-SUBJ0006,84,L00084,PLT,Platelet Count,HEMATOLOGY,294.92,10^9/L,150.0,450.0,294.92,294.92,10^9/L,150.0,450.0,NORMAL,,END OF TREATMENT,9,2025-12-05,140
STUDY001,LB,STUDY001-SUBJ0006,85,L00085,GLUC,Glucose,CHEMISTRY,89.87,mg/dL,70.0,100.0,89.87,89.87,mg/dL,70.0,100.0,NORMAL,,END OF TREATMENT,9,2025-12-05,140
STUDY001,LB,STUDY001-SUBJ0006,86,L00086,BUN,Blood Urea Nitrogen,CHEMISTRY,15.33,mg/dL,7.0,20.0,15.33,15.33,mg/dL,7.0,20.0,NORMAL,,END OF TREATMENT,9,2025-12-05,140
STUDY001,LB,STUDY001-SUBJ0006,87,L00087,CREAT,Creatinine,CHEMISTRY,1.32,mg/dL,0.6,1.2,1.32,1.32,mg/dL,0.6,1.2,HIGH,,END OF TREATMENT,9,2025-12-05,140
STUDY001,LB,STUDY001-SUBJ0006,88,L00088,BILI,Total Bilirubin,CHEMISTRY,0.65,mg/dL,0.1,1.2,0.65,0.65,mg/dL,0.1,1.2,NORMAL,,END OF TREATMENT,9,2025-12-05,140
STUDY001,LB,STUDY001-SUBJ0006,89,L00089,ALP,Alkaline Phosphatase,CHEMISTRY,85.89,U/L,44.0,147.0,85.89,85.89,U/L,44.0,147.0,NORMAL,,END OF TREATMENT,9,2025-12-05,140
STUDY001,LB,STUDY001-SUBJ0006,90,L00090,ALT,Alanine Aminotransferase,CHEMISTRY,13.53,U/L,7.0,56.0,13.53,13.53,U/L,7.0,56.0,NORMAL,,END OF TREATMENT,9,2025-12-05,140
STUDY001,LB,STUDY001-SUBJ0007,1,L00001,HGB,Hemoglobin,HEMATOLOGY,17.2,g/dL,13.5,17.5,17.2,17.2,g/dL,13.5,17.5,NORMAL,,SCREENING,1,2025-01-26,-14
STUDY001,LB,STUDY001-SUBJ0007,2,L00002,HCT,Hematocrit,HEMATOLOGY,44.18,%,41.0,51.0,44.18,44.18,%,41.0,51.0,NORMAL,,SCREENING,1,2025-01-26,-14
STUDY001,LB,STUDY001-SUBJ0007,3,L00003,WBC,White Blood Cell Count,HEMATOLOGY,5.37,10^9/L,4.5,11.0,5.37,5.37,10^9/L,4.5,11.0,NORMAL,,SCREENING,1,2025-01-26,-14
STUDY001,LB,STUDY001-SUBJ0007,4,L00004,PLT,Platelet Count,HEMATOLOGY,253.16,10^9/L,150.0,450.0,253.16,253.16,10^9/L,150.0,450.0,NORMAL,,SCREENING,1,2025-01-26,-14
STUDY001,LB,STUDY001-SUBJ0007,5,L00005,GLUC,Glucose,CHEMISTRY,94.42,mg/dL,70.0,100.0,94.42,94.42,mg/dL,70.0,100.0,NORMAL,,SCREENING,1,2025-01-26,-14
STUDY001,LB,STUDY001-SUBJ0007,6,L00006,BUN,Blood Urea Nitrogen,CHEMISTRY,13.03,mg/dL,7.0,20.0,13.03,13.03,mg/dL,7.0,20.0,NORMAL,,SCREENING,1,2025-01-26,-14
STUDY001,LB,STUDY001-SUBJ0007,7,L00007,CREAT,Creatinine,CHEMISTRY,1.23,mg/dL,0.6,1.2,1.23,1.23,mg/dL,0.6,1.2,HIGH,,SCREENING,1,2025-01-26,-14
STUDY001,LB,STUDY001-SUBJ0007,8,L00008,BILI,Total Bilirubin,CHEMISTRY,0.71,mg/dL,0.1,1.2,0.71,0.71,mg/dL,0.1,1.2,NORMAL,,SCREENING,1,2025-01-26,-14
STUDY001,LB,STUDY001-SUBJ0007,9,L00009,ALP,Alkaline Phosphatase,CHEMISTRY,112.64,U/L,44.0,147.0,112.64,112.64,U/L,44.0,147.0,NORMAL,,SCREENING,1,2025-01-26,-14
STUDY001,LB,STUDY001-SUBJ0007,10,L00010,ALT,Alanine Aminotransferase,CHEMISTRY,45.83,U/L,7.0,56.0,45.83,45.83,U/L,7.0,56.0,NORMAL,,SCREENING,1,2025-01-26,-14
STUDY001,LB,STUDY001-SUBJ0007,11,L00011,HGB,Hemoglobin,HEMATOLOGY,17.39,g/dL,13.5,17.5,17.39,17.39,g/dL,13.5,17.5,NORMAL,Y,BASELINE,2,2025-02-09,1
STUDY001,LB,STUDY001-SUBJ0007,12,L00012,HCT,Hematocrit,HEMATOLOGY,43.6,%,41.0,51.0,43.6,43.6,%,41.0,51.0,NORMAL,Y,BASELINE,2,2025-02-09,1
STUDY001,LB,STUDY001-SUBJ0007,13,L00013,WBC,White Blood Cell Count,HEMATOLOGY,5.49,10^9/L,4.5,11.0,5.49,5.49,10^9/L,4.5,11.0,NORMAL,Y,BASELINE,2,2025-02-09,1
STUDY001,LB,STUDY001-SUBJ0007,14,L00014,PLT,Platelet Count,HEMATOLOGY,239.94,10^9/L,150.0,450.0,239.94,239.94,10^9/L,150.0,450.0,NORMAL,Y,BASELINE,2,2025-02-09,1
STUDY001,LB,STUDY001-SUBJ0007,15,L00015,GLUC,Glucose,CHEMISTRY,92.7,mg/dL,70.0,100.0,92.7,92.7,mg/dL,70.0,100.0,NORMAL,Y,BASELINE,2,2025-02-09,1
STUDY001,LB,STUDY001-SUBJ0007,16,L00016,BUN,Blood Urea Nitrogen,CHEMISTRY,13.13,mg/dL,7.0,20.0,13.13,13.13,mg/dL,7.0,20.0,NORMAL,Y,BASELINE,2,2025-02-09,1
STUDY001,LB,STUDY001-SUBJ0007,17,L00017,CREAT,Creatinine,CHEMISTRY,1.25,mg/dL,0.6,1.2,1.25,1.25,mg/dL,0.6,1.2,HIGH,Y,BASELINE,2,2025-02-09,1
STUDY001,LB,STUDY001-SUBJ0007,18,L00018,BILI,Total Bilirubin,CHEMISTRY,0.72,mg/dL,0.1,1.2,0.72,0.72,mg/dL,0.1,1.2,NORMAL,Y,BASELINE,2,2025-02-09,1
STUDY001,LB,STUDY001-SUBJ0007,19,L00019,ALP,Alkaline Phosphatase,CHEMISTRY,115.11,U/L,44.0,147.0,115.11,115.11,U/L,44.0,147.0,NORMAL,Y,BASELINE,2,2025-02-09,1
STUDY001,LB,STUDY001-SUBJ0007,20,L00020,ALT,Alanine Aminotransferase,CHEMISTRY,45.39,U/L,7.0,56.0,45.39,45.39,U/L,7.0,56.0,NORMAL,Y,BASELINE,2,2025-02-09,1
STUDY001,LB,STUDY001-SUBJ0007,21,L00021,HGB,Hemoglobin,HEMATOLOGY,17.26,g/dL,13.5,17.5,17.26,17.26,g/dL,13.5,17.5,NORMAL,,WEEK 1,3,2025-02-15,7
STUDY001,LB,STUDY001-SUBJ0007,22,L00022,HCT,Hematocrit,HEMATOLOGY,44.16,%,41.0,51.0,44.16,44.16,%,41.0,51.0,NORMAL,,WEEK 1,3,2025-02-15,7
STUDY001,LB,STUDY001-SUBJ0007,23,L00023,WBC,White Blood Cell Count,HEMATOLOGY,5.42,10^9/L,4.5,11.0,5.42,5.42,10^9/L,4.5,11.0,NORMAL,,WEEK 1,3,2025-02-15,7
STUDY001,LB,STUDY001-SUBJ0007,24,L00024,PLT,Platelet Count,HEMATOLOGY,247.82,10^9/L,150.0,450.0,247.82,247.82,10^9/L,150.0,450.0,NORMAL,,WEEK 1,3,2025-02-15,7
STUDY001,LB,STUDY001-SUBJ0007,25,L00025,GLUC,Glucose,CHEMISTRY,93.26,mg/dL,70.0,100.0,93.26,93.26,mg/dL,70.0,100.0,NORMAL,,WEEK 1,3,2025-02-15,7
STUDY001,LB,STUDY001-SUBJ0007,26,L00026,BUN,Blood Urea Nitrogen,CHEMISTRY,12.54,mg/dL,7.0,20.0,12.54,12.54,mg/dL,7.0,20.0,NORMAL,,WEEK 1,3,2025-02-15,7
STUDY001,LB,STUDY001-SUBJ0007,27,L00027,CREAT,Creatinine,CHEMISTRY,1.26,mg/dL,0.6,1.2,1.26,1.26,mg/dL,0.6,1.2,HIGH,,WEEK 1,3,2025-02-15,7
STUDY001,LB,STUDY001-SUBJ0007,28,L00028,BILI,Total Bilirubin,CHEMISTRY,0.68,mg/dL,0.1,1.2,0.68,0.68,mg/dL,0.1,1.2,NORMAL,,WEEK 1,3,2025-02-15,7
STUDY001,LB,STUDY001-SUBJ0007,29,L00029,ALP,Alkaline Phosphatase,CHEMISTRY,110.85,U/L,44.0,147.0,110.85,110.85,U/L,44.0,147.0,NORMAL,,WEEK 1,3,2025-02-15,7
STUDY001,LB,STUDY001-SUBJ0007,30,L00030,ALT,Alanine Aminotransferase,CHEMISTRY,44.68,U/L,7.0,56.0,44.68,44.68,U/L,7.0,56.0,NORMAL,,WEEK 1,3,2025-02-15,7
STUDY001,LB,STUDY001-SUBJ0007,31,L00031,HGB,Hemoglobin,HEMATOLOGY,17.21,g/dL,13.5,17.5,17.21,17.21,g/dL,13.5,17.5,NORMAL,,WEEK 2,4,2025-02-22,14
STUDY001,LB,STUDY001-SUBJ0007,32,L00032,HCT,Hematocrit,HEMATOLOGY,44.04,%,41.0,51.0,44.04,44.04,%,41.0,51.0,NORMAL,,WEEK 2,4,2025-02-22,14
STUDY001,LB,STUDY001-SUBJ0007,33,L00033,WBC,White Blood Cell Count,HEMATOLOGY,5.42,10^9/L,4.5,11.0,5.42,5.42,10^9/L,4.5,11.0,NORMAL,,WEEK 2,4,2025-02-22,14
STUDY001,LB,STUDY001-SUBJ0007,34,L00034,PLT,Platelet Count,HEMATOLOGY,238.84,10^9/L,150.0,450.0,238.84,238.84,10^9/L,150.0,450.0,NORMAL,,WEEK 2,4,2025-02-22,14
STUDY001,LB,STUDY001-SUBJ0007,35,L00035,GLUC,Glucose,CHEMISTRY,92.89,mg/dL,70.0,100.0,92.89,92.89,mg/dL,70.0,100.0,NORMAL,,WEEK 2,4,2025-02-22,14
STUDY001,LB,STUDY001-SUBJ0007,36,L00036,BUN,Blood Urea Nitrogen,CHEMISTRY,12.82,mg/dL,7.0,20.0,12.82,12.82,mg/dL,7.0,20.0,NORMAL,,WEEK 2,4,2025-02-22,14
STUDY001,LB,STUDY001-SUBJ0007,37,L00037,CREAT,Creatinine,CHEMISTRY,1.26,mg/dL,0.6,1.2,1.26,1.26,mg/dL,0.6,1.2,HIGH,,WEEK 2,4,2025-02-22,14
STUDY001,LB,STUDY001-SUBJ0007,38,L00038,BILI,Total Bilirubin,CHEMISTRY,0.73,mg/dL,0.1,1.2,0.73,0.73,mg/dL,0.1,1.2,NORMAL,,WEEK 2,4,2025-02-22,14
STUDY001,LB,STUDY001-SUBJ0007,39,L00039,ALP,Alkaline Phosphatase,CHEMISTRY,115.33,U/L,44.0,147.0,115.33,115.33,U/L,44.0,147.0,NORMAL,,WEEK 2,4,2025-02-22,14
STUDY001,LB,STUDY001-SUBJ0007,40,L00040,ALT,Alanine Aminotransferase,CHEMISTRY,46.13,U/L,7.0,56.0,46.13,46.13,U/L,7.0,56.0,NORMAL,,WEEK 2,4,2025-02-22,14
STUDY001,LB,STUDY001-SUBJ0007,41,L00041,HGB,Hemoglobin,HEMATOLOGY,17.14,g/dL,13.5,17.5,17.14,17.14,g/dL,13.5,17.5,NORMAL,,WEEK 4,5,2025-03-08,28
STUDY001,LB,STUDY001-SUBJ0007,42,L00042,HCT,Hematocrit,HEMATOLOGY,43.97,%,41.0,51.0,43.97,43.97,%,41.0,51.0,NORMAL,,WEEK 4,5,2025-03-08,28
STUDY001,LB,STUDY001-SUBJ0007,43,L00043,WBC,White Blood Cell Count,HEMATOLOGY,5.46,10^9/L,4.5,11.0,5.46,5.46,10^9/L,4.5,11.0,NORMAL,,WEEK 4,5,2025-03-08,28
STUDY001,LB,STUDY001-SUBJ0007,44,L00044,PLT,Platelet Count,HEMATOLOGY,242.89,10^9/L,150.0,450.0,242.89,242.89,10^9/L,150.0,450.0,NORMAL,,WEEK 4,5,2025-03-08,28
STUDY001,LB,STUDY001-SUBJ0007,45,L00045,GLUC,Glucose,CHEMISTRY,92.83,mg/dL,70.0,100.0,92.83,92.83,mg/dL,70.0,100.0,NORMAL,,WEEK 4,5,2025-03-08,28
STUDY001,LB,STUDY001-SUBJ0007,46,L00046,BUN,Blood Urea Nitrogen,CHEMISTRY,12.8,mg/dL,7.0,20.0,12.8,12.8,mg/dL,7.0,20.0,NORMAL,,WEEK 4,5,2025-03-08,28
STUDY001,LB,STUDY001-SUBJ0007,47,L00047,CREAT,Creatinine,CHEMISTRY,1.26,mg/dL,0.6,1.2,1.26,1.26,mg/dL,0.6,1.2,HIGH,,WEEK 4,5,2025-03-08,28
STUDY001,LB,STUDY001-SUBJ0007,48,L00048,BILI,Total Bilirubin,CHEMISTRY,0.7,mg/dL,0.1,1.2,0.7,0.7,mg/dL,0.1,1.2,NORMAL,,WEEK 4,5,2025-03-08,28
STUDY001,LB,STUDY001-SUBJ0007,49,L00049,ALP,Alkaline Phosphatase,CHEMISTRY,111.85,U/L,44.0,147.0,111.85,111.85,U/L,44.0,147.0,NORMAL,,WEEK 4,5,2025-03-08,28
STUDY001,LB,STUDY001-SUBJ0007,50,L00050,ALT,Alanine Aminotransferase,CHEMISTRY,44.12,U/L,7.0,56.0,44.12,44.12,U/L,7.0,56.0,NORMAL,,WEEK 4,5,2025-03-08,28
STUDY001,LB,STUDY001-SUBJ0007,51,L00051,HGB,Hemoglobin,HEMATOLOGY,17.13,g/dL,13.5,17.5,17.13,17.13,g/dL,13.5,17.5,NORMAL,,WEEK 8,6,2025-04-05,56
STUDY001,LB,STUDY001-SUBJ0007,52,L00052,HCT,Hematocrit,HEMATOLOGY,44.2,%,41.0,51.0,44.2,44.2,%,41.0,51.0,NORMAL,,WEEK 8,6,2025-04-05,56
STUDY001,LB,STUDY001-SUBJ0007,53,L00053,WBC,White Blood Cell Count,HEMATOLOGY,5.32,10^9/L,4.5,11.0,5.32,5.32,10^9/L,4.5,11.0,NORMAL,,WEEK 8,6,2025-04-05,56
STUDY001,LB,STUDY001-SUBJ0007,54,L00054,PLT,Platelet Count,HEMATOLOGY,237.57,10^9/L,150.0,450.0,237.57,237.57,10^9/L,150.0,450.0,NORMAL,,WEEK 8,6,2025-04-05,56
STUDY001,LB,STUDY001-SUBJ0007,55,L00055,GLUC,Glucose,CHEMISTRY,93.08,mg/dL,70.0,100.0,93.08,93.08,mg/dL,70.0,100.0,NORMAL,,WEEK 8,6,2025-04-05,56
STUDY001,LB,STUDY001-SUBJ0007,56,L00056,BUN,Blood Urea Nitrogen,CHEMISTRY,12.66,mg/dL,7.0,20.0,12.66,12.66,mg/dL,7.0,20.0,NORMAL,,WEEK 8,6,2025-04-05,56
STUDY001,LB,STUDY001-SUBJ0007,57,L00057,CREAT,Creatinine,CHEMISTRY,1.25,mg/dL,0.6,1.2,1.25,1.25,mg/dL,0.6,1.2,HIGH,,WEEK 8,6,2025-04-05,56
STUDY001,LB,STUDY001-SUBJ0007,58,L00058,BILI,Total Bilirubin,CHEMISTRY,0.72,mg/dL,0.1,1.2,0.72,0.72,mg/dL,0.1,1.2,NORMAL,,WEEK 8,6,2025-04-05,56
STUDY001,LB,STUDY001-SUBJ0007,59,L00059,ALP,Alkaline Phosphatase,CHEMISTRY,110.31,U/L,44.0,147.0,110.31,110.31,U/L,44.0,147.0,NORMAL,,WEEK 8,6,2025-04-05,56
STUDY001,LB,STUDY001-SUBJ0007,60,L00060,ALT,Alanine Aminotransferase,CHEMISTRY,44.38,U/L,7.0,56.0,44.38,44.38,U/L,7.0,56.0,NORMAL,,WEEK 8,6,2025-04-05,56
STUDY001,LB,STUDY001-SUBJ0007,61,L00061,HGB,Hemoglobin,HEMATOLOGY,17.11,g/dL,13.5,17.5,17.11,17.11,g/dL,13.5,17.5,NORMAL,,WEEK 12,7,2025-05-03,84
STUDY001,LB,STUDY001-SUBJ0007,62,L00062,HCT,Hematocrit,HEMATOLOGY,43.72,%,41.0,51.0,43.72,43.72,%,41.0,51.0,NORMAL,,WEEK 12,7,2025-05-03,84
STUDY001,LB,STUDY001-SUBJ0007,63,L00063,WBC,White Blood Cell Count,HEMATOLOGY,5.35,10^9/L,4.5,11.0,5.35,5.35,10^9/L,4.5,11.0,NORMAL,,WEEK 12,7,2025-05-03,84
STUDY001,LB,STUDY001-SUBJ0007,64,L00064,PLT,Platelet Count,HEMATOLOGY,239.81,10^9/L,150.0,450.0,239.81,239.81,10^9/L,150.0,450.0,NORMAL,,WEEK 12,7,2025-05-03,84
STUDY001,LB,STUDY001-SUBJ0007,65,L00065,GLUC,Glucose,CHEMISTRY,93.8,mg/dL,70.0,100.0,93.8,93.8,mg/dL,70.0,100.0,NORMAL,,WEEK 12,7,2025-05-03,84
STUDY001,LB,STUDY001-SUBJ0007,66,L00066,BUN,Blood Urea Nitrogen,CHEMISTRY,12.64,mg/dL,7.0,20.0,12.64,12.64,mg/dL,7.0,20.0,NORMAL,,WEEK 12,7,2025-05-03,84
STUDY001,LB,STUDY001-SUBJ0007,67,L00067,CREAT,Creatinine,CHEMISTRY,1.24,mg/dL,0.6,1.2,1.24,1.24,mg/dL,0.6,1.2,HIGH,,WEEK 12,7,2025-05-03,84
STUDY001,LB,STUDY001-SUBJ0007,68,L00068,BILI,Total Bilirubin,CHEMISTRY,0.72,mg/dL,0.1,1.2,0.72,0.72,mg/dL,0.1,1.2,NORMAL,,WEEK 12,7,2025-05-03,84
STUDY001,LB,STUDY001-SUBJ0007,69,L00069,ALP,Alkaline Phosphatase,CHEMISTRY,113.14,U/L,44.0,147.0,113.14,113.14,U/L,44.0,147.0,NORMAL,,WEEK 12,7,2025-05-03,84
STUDY001,LB,STUDY001-SUBJ0007,70,L00070,ALT,Alanine Aminotransferase,CHEMISTRY,45.05,U/L,7.0,56.0,45.05,45.05,U/L,7.0,56.0,NORMAL,,WEEK 12,7,2025-05-03,84
STUDY001,LB,STUDY001-SUBJ0007,71,L00071,HGB,Hemoglobin,HEMATOLOGY,17.24,g/dL,13.5,17.5,17.24,17.24,g/dL,13.5,17.5,NORMAL,,WEEK 16,8,2025-05-31,112
STUDY001,LB,STUDY001-SUBJ0007,72,L00072,HCT,Hematocrit,HEMATOLOGY,44.29,%,41.0,51.0,44.29,44.29,%,41.0,51.0,NORMAL,,WEEK 16,8,2025-05-31,112
STUDY001,LB,STUDY001-SUBJ0007,73,L00073,WBC,White Blood Cell Count,HEMATOLOGY,5.33,10^9/L,4.5,11.0,5.33,5.33,10^9/L,4.5,11.0,NORMAL,,WEEK 16,8,2025-05-31,112
STUDY001,LB,STUDY001-SUBJ0007,74,L00074,PLT,Platelet Count,HEMATOLOGY,234.7,10^9/L,150.0,450.0,234.7,234.7,10^9/L,150.0,450.0,NORMAL,,WEEK 16,8,2025-05-31,112
STUDY001,LB,STUDY001-SUBJ0007,75,L00075,GLUC,Glucose,CHEMISTRY,92.63,mg/dL,70.0,100.0,92.63,92.63,mg/dL,70.0,100.0,NORMAL,,WEEK 16,8,2025-05-31,112
STUDY001,LB,STUDY001-SUBJ0007,76,L00076,BUN,Blood Urea Nitrogen,CHEMISTRY,12.74,mg/dL,7.0,20.0,12.74,12.74,mg/dL,7.0,20.0,NORMAL,,WEEK 16,8,2025-05-31,112
STUDY001,LB,STUDY001-SUBJ0007,77,L00077,CREAT,Creatinine,CHEMISTRY,1.25,mg/dL,0.6,1.2,1.25,1.25,mg/dL,0.6,1.2,HIGH,,WEEK 16,8,2025-05-31,112
STUDY001,LB,STUDY001-SUBJ0007,78,L00078,BILI,Total Bilirubin,CHEMISTRY,0.7,mg/dL,0.1,1.2,0.7,0.7,mg/dL,0.1,1.2,NORMAL,,WEEK 16,8,2025-05-31,112
STUDY001,LB,STUDY001-SUBJ0007,79,L00079,ALP,Alkaline Phosphatase,CHEMISTRY,113.65,U/L,44.0,147.0,113.65,113.65,U/L,44.0,147.0,NORMAL,,WEEK 16,8,2025-05-31,112
STUDY001,LB,STUDY001-SUBJ0007,80,L00080,ALT,Alanine Aminotransferase,CHEMISTRY,45.97,U/L,7.0,56.0,45.97,45.97,U/L,7.0,56.0,NORMAL,,WEEK 16,8,2025-05-31,112
STUDY001,LB,STUDY001-SUBJ0007,81,L00081,HGB,Hemoglobin,HEMATOLOGY,17.13,g/dL,13.5,17.5,17.13,17.13,g/dL,13.5,17.5,NORMAL,,END OF TREATMENT,9,2025-06-28,140
STUDY001,LB,STUDY001-SUBJ0007,82,L00082,HCT,Hematocrit,HEMATOLOGY,43.95,%,41.0,51.0,43.95,43.95,%,41.0,51.0,NORMAL,,END OF TREATMENT,9,2025-06-28,140
STUDY001,LB,STUDY001-SUBJ0007,83,L00083,WBC,White Blood Cell Count,HEMATOLOGY,5.06,10^9/L,4.5,11.0,5.06,5.06,10^9/L,4.5,11.0,NORMAL,,END OF TREATMENT,9,2025-06-28,140
STUDY001,LB,STUDY001-SUBJ0007,84,L00084,PLT,Platelet Count,HEMATOLOGY,249.94,10^9/L,150.0,450.0,249.94,249.94,10^9/L,150.0,450.0,NORMAL,,END OF TREATMENT,9,2025-06-28,140
STUDY001,LB,STUDY001-SUBJ0007,85,L00085,GLUC,Glucose,CHEMISTRY,93.35,mg/dL,70.0,100.0,93.35,93.35,mg/dL,70.0,100.0,NORMAL,,END OF TREATMENT,9,2025-06-28,140
STUDY001,LB,STUDY001-SUBJ0007,86,L00086,BUN,Blood Urea Nitrogen,CHEMISTRY,13.25,mg/dL,7.0,20.0,13.25,13.25,mg/dL,7.0,20.0,NORMAL,,END OF TREATMENT,9,2025-06-28,140
STUDY001,LB,STUDY001-SUBJ0007,87,L00087,CREAT,Creatinine,CHEMISTRY,1.24,mg/dL,0.6,1.2,1.24,1.24,mg/dL,0.6,1.2,HIGH,,END OF TREATMENT,9,2025-06-28,140
STUDY001,LB,STUDY001-SUBJ0007,88,L00088,BILI,Total Bilirubin,CHEMISTRY,0.74,mg/dL,0.1,1.2,0.74,0.74,mg/dL,0.1,1.2,NORMAL,,END OF TREATMENT,9,2025-06-28,140
STUDY001,LB,STUDY001-SUBJ0007,89,L00089,ALP,Alkaline Phosphatase,CHEMISTRY,114.64,U/L,44.0,147.0,114.64,114.64,U/L,44.0,147.0,NORMAL,,END OF TREATMENT,9,2025-06-28,140
STUDY001,LB,STUDY001-SUBJ0007,90,L00090,ALT,Alanine Aminotransferase,CHEMISTRY,45.95,U/L,7.0,56.0,45.95,45.95,U/L,7.0,56.0,NORMAL,,END OF TREATMENT,9,2025-06-28,140
STUDY001,LB,STUDY001-SUBJ0008,1,L00001,HGB,Hemoglobin,HEMATOLOGY,15.35,g/dL,13.5,17.5,15.35,15.35,g/dL,13.5,17.5,NORMAL,,SCREENING,1,2025-05-31,-14
STUDY001,LB,STUDY001-SUBJ0008,2,L00002,HCT,Hematocrit,HEMATOLOGY,40.41,%,41.0,51.0,40.41,40.41,%,41.0,51.0,LOW,,SCREENING,1,2025-05-31,-14
STUDY001,LB,STUDY001-SUBJ0008,3,L00003,WBC,White Blood Cell Count,HEMATOLOGY,6.21,10^9/L,4.5,11.0,6.21,6.21,10^9/L,4.5,11.0,NORMAL,,SCREENING,1,2025-05-31,-14
STUDY001,LB,STUDY001-SUBJ0008,4,L00004,PLT,Platelet Count,HEMATOLOGY,193.05,10^9/L,150.0,450.0,193.05,193.05,10^9/L,150.0,450.0,NORMAL,,SCREENING,1,2025-05-31,-14
STUDY001,LB,STUDY001-SUBJ0008,5,L00005,GLUC,Glucose,CHEMISTRY,84.69,mg/dL,70.0,100.0,84.69,84.69,mg/dL,70.0,100.0,NORMAL,,SCREENING,1,2025-05-31,-14
STUDY001,LB,STUDY001-SUBJ0008,6,L00006,BUN,Blood Urea Nitrogen,CHEMISTRY,10.95,mg/dL,7.0,20.0,10.95,10.95,mg/dL,7.0,20.0,NORMAL,,SCREENING,1,2025-05-31,-14
STUDY001,LB,STUDY001-SUBJ0008,7,L00007,CREAT,Creatinine,CHEMISTRY,0.87,mg/dL,0.6,1.2,0.87,0.87,mg/dL,0.6,1.2,NORMAL,,SCREENING,1,2025-05-31,-14
STUDY001,LB,STUDY001-SUBJ0008,8,L00008,BILI,Total Bilirubin,CHEMISTRY,0.82,mg/dL,0.1,1.2,0.82,0.82,mg/dL,0.1,1.2,NORMAL,,SCREENING,1,2025-05-31,-14
STUDY001,LB,STUDY001-SUBJ0008,9,L00009,ALP,Alkaline Phosphatase,CHEMISTRY,107.38,U/L,44.0,147.0,107.38,107.38,U/L,44.0,147.0,NORMAL,,SCREENING,1,2025-05-31,-14
STUDY001,LB,STUDY001-SUBJ0008,10,L00010,ALT,Alanine Aminotransferase,CHEMISTRY,34.9,U/L,7.0,56.0,34.9,34.9,U/L,7.0,56.0,NORMAL,,SCREENING,1,2025-05-31,-14
STUDY001,LB,STUDY001-SUBJ0008,11,L00011,HGB,Hemoglobin,HEMATOLOGY,15.07,g/dL,13.5,17.5,15.07,15.07,g/dL,13.5,17.5,NORMAL,Y,BASELINE,2,2025-06-14,1
STUDY001,LB,STUDY001-SUBJ0008,12,L00012,HCT,Hematocrit,HEMATOLOGY,39.91,%,41.0,51.0,39.91,39.91,%,41.0,51.0,LOW,Y,BASELINE,2,2025-06-14,1
STUDY001,LB,STUDY001-SUBJ0008,13,L00013,WBC,White Blood Cell Count,HEMATOLOGY,6.38,10^9/L,4.5,11.0,6.38,6.38,10^9/L,4.5,11.0,NORMAL,Y,BASELINE,2,2025-06-14,1
STUDY001,LB,STUDY001-SUBJ0008,14,L00014,PLT,Platelet Count,HEMATOLOGY,192.24,10^9/L,150.0,450.0,192.24,192.24,10^9/L,150.0,450.0,NORMAL,Y,BASELINE,2,2025-06-14,1
STUDY001,LB,STUDY001-SUBJ0008,15,L00015,GLUC,Glucose,CHEMISTRY,85.53,mg/dL,70.0,100.0,85.53,85.53,mg/dL,70.0,100.0,NORMAL,Y,BASELINE,2,2025-06-14,1
STUDY001,LB,STUDY001-SUBJ0008,16,L00016,BUN,Blood Urea Nitrogen,CHEMISTRY,11.32,mg/dL,7.0,20.0,11.32,11.32,mg/dL,7.0,20.0,NORMAL,Y,BASELINE,2,2025-06-14,1
STUDY001,LB,STUDY001-SUBJ0008,17,L00017,CREAT,Creatinine,CHEMISTRY,0.83,mg/dL,0.6,1.2,0.83,0.83,mg/dL,0.6,1.2,NORMAL,Y,BASELINE,2,2025-06-14,1
STUDY001,LB,STUDY001-SUBJ0008,18,L00018,BILI,Total Bilirubin,CHEMISTRY,0.83,mg/dL,0.1,1.2,0.83,0.83,mg/dL,0.1,1.2,NORMAL,Y,BASELINE,2,2025-06-14,1
STUDY001,LB,STUDY001-SUBJ0008,19,L00019,ALP,Alkaline Phosphatase,CHEMISTRY,110.55,U/L,44.0,147.0,110.55,110.55,U/L,44.0,147.0,NORMAL,Y,BASELINE,2,2025-06-14,1
STUDY001,LB,STUDY001-SUBJ0008,20,L00020,ALT,Alanine Aminotransferase,CHEMISTRY,34.68,U/L,7.0,56.0,34.68,34.68,U/L,7.0,56.0,NORMAL,Y,BASELINE,2,2025-06-14,1
STUDY001,LB,STUDY001-SUBJ0008,21,L00021,HGB,Hemoglobin,HEMATOLOGY,15.26,g/dL,13.5,17.5,15.26,15.26,g/dL,13.5,17.5,NORMAL,,WEEK 1,3,2025-06-20,7
STUDY001,LB,STUDY001-SUBJ0008,22,L00022,HCT,Hematocrit,HEMATOLOGY,40.26,%,41.0,51.0,40.26,40.26,%,41.0,51.0,LOW,,WEEK 1,3,2025-06-20,7
STUDY001,LB,STUDY001-SUBJ0008,23,L00023,WBC,White Blood Cell Count,HEMATOLOGY,6.0,10^9/L,4.5,11.0,6.0,6.0,10^9/L,4.5,11.0,NORMAL,,WEEK 1,3,2025-06-20,7
STUDY001,LB,STUDY001-SUBJ0008,24,L00024,PLT,Platelet Count,HEMATOLOGY,206.56,10^9/L,150.0,450.0,206.56,206.56,10^9/L,150.0,450.0,NORMAL,,WEEK 1,3,2025-06-20,7
STUDY001,LB,STUDY001-SUBJ0008,25,L00025,GLUC,Glucose,CHEMISTRY,84.68,mg/dL,70.0,100.0,84.68,84.68,mg/dL,70.0,100.0,NORMAL,,WEEK 1,3,2025-06-20,7
STUDY001,LB,STUDY001-SUBJ0008,26,L00026,BUN,Blood Urea Nitrogen,CHEMISTRY,10.33,mg/dL,7.0,20.0,10.33,10.33,mg/dL,7.0,20.0,NORMAL,,WEEK 1,3,2025-06-20,7
STUDY001,LB,STUDY001-SUBJ0008,27,L00027,CREAT,Creatinine,CHEMISTRY,0.85,mg/dL,0.6,1.2,0.85,0.85,mg/dL,0.6,1.2,NORMAL,,WEEK 1,3,2025-06-20,7
STUDY001,LB,STUDY001-SUBJ0008,28,L00028,BILI,Total Bilirubin,CHEMISTRY,0.78,mg/dL,0.1,1.2,0.78,0.78,mg/dL,0.1,1.2,NORMAL,,WEEK 1,3,2025-06-20,7
STUDY001,LB,STUDY001-SUBJ0008,29,L00029,ALP,Alkaline Phosphatase,CHEMISTRY,110.9,U/L,44.0,147.0,110.9,110.9,U/L,44.0,147.0,NORMAL,,WEEK 1,3,2025-06-20,7
STUDY001,LB,STUDY001-SUBJ0008,30,L00030,ALT,Alanine Aminotransferase,CHEMISTRY,33.6,U/L,7.0,56.0,33.6,33.6,U/L,7.0,56.0,NORMAL,,WEEK 1,3,2025-06-20,7
STUDY001,LB,STUDY001-SUBJ0008,31,L00031,HGB,Hemoglobin,HEMATOLOGY,15.37,g/dL,13.5,17.5,15.37,15.37,g/dL,13.5,17.5,NORMAL,,WEEK 2,4,2025-06-27,14
STUDY001,LB,STUDY001-SUBJ0008,32,L00032,HCT,Hematocrit,HEMATOLOGY,40.65,%,41.0,51.0,40.65,40.65,%,41.0,51.0,LOW,,WEEK 2,4,2025-06-27,14
STUDY001,LB,STUDY001-SUBJ0008,33,L00033,WBC,White Blood Cell Count,HEMATOLOGY,6.18,10^9/L,4.5,11.0,6.18,6.18,10^9/L,4.5,11.0,NORMAL,,WEEK 2,4,2025-06-27,14
STUDY001,LB,STUDY001-SUBJ0008,34,L00034,PLT,Platelet Count,HEMATOLOGY,197.29,10^9/L,150.0,450.0,197.29,197.29,10^9/L,150.0,450.0,NORMAL,,WEEK 2,4,2025-06-27,14
STUDY001,LB,STUDY001-SUBJ0008,35,L00035,GLUC,Glucose,CHEMISTRY,84.56,mg/dL,70.0,100.0,84.56,84.56,mg/dL,70.0,100.0,NORMAL,,WEEK 2,4,2025-06-27,14
STUDY001,LB,STUDY001-SUBJ0008,36,L00036,BUN,Blood Urea Nitrogen,CHEMISTRY,10.61,mg/dL,7.0,20.0,10.61,10.61,mg/dL,7.0,20.0,NORMAL,,WEEK 2,4,2025-06-27,14
STUDY001,LB,STUDY001-SUBJ0008,37,L00037,CREAT,Creatinine,CHEMISTRY,0.83,mg/dL,0.6,1.2,0.83,0.83,mg/dL,0.6,1.2,NORMAL,,WEEK 2,4,2025-06-27,14
STUDY001,LB,STUDY001-SUBJ0008,38,L00038,BILI,Total Bilirubin,CHEMISTRY,0.83,mg/dL,0.1,1.2,0.83,0.83,mg/dL,0.1,1.2,NORMAL,,WEEK 2,4,2025-06-27,14
STUDY001,LB,STUDY001-SUBJ0008,39,L00039,ALP,Alkaline Phosphatase,CHEMISTRY,110.84,U/L,44.0,147.0,110.84,110.84,U/L,44.0,147.0,NORMAL,,WEEK 2,4,2025-06-27,14
STUDY001,LB,STUDY001-SUBJ0008,40,L00040,ALT,Alanine Aminotransferase,CHEMISTRY,34.39,U/L,7.0,56.0,34.39,34.39,U/L,7.0,56.0,NORMAL,,WEEK 2,4,2025-06-27,14
STUDY001,LB,STUDY001-SUBJ0008,41,L00041,HGB,Hemoglobin,HEMATOLOGY,15.31,g/dL,13.5,17.5,15.31,15.31,g/dL,13.5,17.5,NORMAL,,WEEK 4,5,2025-07-11,28
STUDY001,LB,STUDY001-SUBJ0008,42,L00042,HCT,Hematocrit,HEMATOLOGY,39.95,%,41.0,51.0,39.95,39.95,%,41.0,51.0,LOW,,WEEK 4,5,2025-07-11,28
STUDY001,LB,STUDY001-SUBJ0008,43,L00043,WBC,White Blood Cell Count,HEMATOLOGY,6.09,10^9/L,4.5,11.0,6.09,6.09,10^9/L,4.5,11.0,NORMAL,,WEEK 4,5,2025-07-11,28
STUDY001,LB,STUDY001-SUBJ0008,44,L00044,PLT,Platelet Count,HEMATOLOGY,192.22,10^9/L,150.0,450.0,192.22,192.22,10^9/L,150.0,450.0,NORMAL,,WEEK 4,5,2025-07-11,28
STUDY001,LB,STUDY001-SUBJ0008,45,L00045,GLUC,Glucose,CHEMISTRY,81.77,mg/dL,70.0,100.0,81.77,81.77,mg/dL,70.0,100.0,NORMAL,,WEEK 4,5,2025-07-11,28
STUDY001,LB,STUDY001-SUBJ0008,46,L00046,BUN,Blood Urea Nitrogen,CHEMISTRY,10.65,mg/dL,7.0,20.0,10.65,10.65,mg/dL,7.0,20.0,NORMAL,,WEEK 4,5,2025-07-11,28
STUDY001,LB,STUDY001-SUBJ0008,47,L00047,CREAT,Creatinine,CHEMISTRY,0.81,mg/dL,0.6,1.2,0.81,0.81,mg/dL,0.6,1.2,NORMAL,,WEEK 4,5,2025-07-11,28
STUDY001,LB,STUDY001-SUBJ0008,48,L00048,BILI,Total Bilirubin,CHEMISTRY,0.78,mg/dL,0.1,1.2,0.78,0.78,mg/dL,0.1,1.2,NORMAL,,WEEK 4,5,2025-07-11,28
STUDY001,LB,STUDY001-SUBJ0008,49,L00049,ALP,Alkaline Phosphatase,CHEMISTRY,106.03,U/L,44.0,147.0,106.03,106.03,U/L,44.0,147.0,NORMAL,,WEEK 4,5,2025-07-11,28
STUDY001,LB,STUDY001-SUBJ0008,50,L00050,ALT,Alanine Aminotransferase,CHEMISTRY,33.68,U/L,7.0,56.0,33.68,33.68,U/L,7.0,56.0,NORMAL,,WEEK 4,5,2025-07-11,28
STUDY001,LB,STUDY001-SUBJ0008,51,L00051,HGB,Hemoglobin,HEMATOLOGY,15.2,g/dL,13.5,17.5,15.2,15.2,g/dL,13.5,17.5,NORMAL,,WEEK 8,6,2025-08-08,56
STUDY001,LB,STUDY001-SUBJ0008,52,L00052,HCT,Hematocrit,HEMATOLOGY,40.64,%,41.0,51.0,40.64,40.64,%,41.0,51.0,LOW,,WEEK 8,6,2025-08-08,56
STUDY001,LB,STUDY001-SUBJ0008,53,L00053,WBC,White Blood Cell Count,HEMATOLOGY,6.3,10^9/L,4.5,11.0,6.3,6.3,10^9/L,4.5,11.0,NORMAL,,WEEK 8,6,2025-08-08,56
STUDY001,LB,STUDY001-SUBJ0008,54,L00054,PLT,Platelet Count,HEMATOLOGY,203.85,10^9/L,150.0,450.0,203.85,203.85,10^9/L,150.0,450.0,NORMAL,,WEEK 8,6,2025-08-08,56
STUDY001,LB,STUDY001-SUBJ0008,55,L00055,GLUC,Glucose,CHEMISTRY,83.02,mg/dL,70.0,100.0,83.02,83.02,mg/dL,70.0,100.0,NORMAL,,WEEK 8,6,2025-08-08,56
STUDY001,LB,STUDY001-SUBJ0008,56,L00056,BUN,Blood Urea Nitrogen,CHEMISTRY,10.06,mg/dL,7.0,20.0,10.06,10.06,mg/dL,7.0,20.0,NORMAL,,WEEK 8,6,2025-08-08,56
STUDY001,LB,STUDY001-SUBJ0008,57,L00057,CREAT,Creatinine,CHEMISTRY,0.83,mg/dL,0.6,1.2,0.83,0.83,mg/dL,0.6,1.2,NORMAL,,WEEK 8,6,2025-08-08,56
STUDY001,LB,STUDY001-SUBJ0008,58,L00058,BILI,Total Bilirubin,CHEMISTRY,0.77,mg/dL,0.1,1.2,0.77,0.77,mg/dL,0.1,1.2,NORMAL,,WEEK 8,6,2025-08-08,56
STUDY001,LB,STUDY001-SUBJ0008,59,L00059,ALP,Alkaline Phosphatase,CHEMISTRY,106.57,U/L,44.0,147.0,106.57,106.57,U/L,44.0,147.0,NORMAL,,WEEK 8,6,2025-08-08,56
STUDY001,LB,STUDY001-SUBJ0008,60,L00060,ALT,Alanine Aminotransferase,CHEMISTRY,34.79,U/L,7.0,56.0,34.79,34.79,U/L,7.0,56.0,NORMAL,,WEEK 8,6,2025-08-08,56
STUDY001,LB,STUDY001-SUBJ0008,61,L00061,HGB,Hemoglobin,HEMATOLOGY,15.39,g/dL,13.5,17.5,15.39,15.39,g/dL,13.5,17.5,NORMAL,,WEEK 12,7,2025-09-05,84
STUDY001,LB,STUDY001-SUBJ0008,62,L00062,HCT,Hematocrit,HEMATOLOGY,40.13,%,41.0,51.0,40.13,40.13,%,41.0,51.0,LOW,,WEEK 12,7,2025-09-05,84
STUDY001,LB,STUDY001-SUBJ0008,63,L00063,WBC,White Blood Cell Count,HEMATOLOGY,6.25,10^9/L,4.5,11.0,6.25,6.25,10^9/L,4.5,11.0,NORMAL,,WEEK 12,7,2025-09-05,84
STUDY001,LB,STUDY001-SUBJ0008,64,L00064,PLT,Platelet Count,HEMATOLOGY,197.9,10^9/L,150.0,450.0,197.9,197.9,10^9/L,150.0,450.0,NORMAL,,WEEK 12,7,2025-09-05,84
STUDY001,LB,STUDY001-SUBJ0008,65,L00065,GLUC,Glucose,CHEMISTRY,84.83,mg/dL,70.0,100.0,84.83,84.83,mg/dL,70.0,100.0,NORMAL,,WEEK 12,7,2025-09-05,84
STUDY001,LB,STUDY001-SUBJ0008,66,L00066,BUN,Blood Urea Nitrogen,CHEMISTRY,10.25,mg/dL,7.0,20.0,10.25,10.25,mg/dL,7.0,20.0,NORMAL,,WEEK 12,7,2025-09-05,84
STUDY001,LB,STUDY001-SUBJ0008,67,L00067,CREAT,Creatinine,CHEMISTRY,0.81,mg/dL,0.6,1.2,0.81,0.81,mg/dL,0.6,1.2,NORMAL,,WEEK 12,7,2025-09-05,84
STUDY001,LB,STUDY001-SUBJ0008,68,L00068,BILI,Total Bilirubin,CHEMISTRY,0.79,mg/dL,0.1,1.2,0.79,0.79,mg/dL,0.1,1.2,NORMAL,,WEEK 12,7,2025-09-05,84
STUDY001,LB,STUDY001-SUBJ0008,69,L00069,ALP,Alkaline Phosphatase,CHEMISTRY,106.57,U/L,44.0,147.0,106.57,106.57,U/L,44.0,147.0,NORMAL,,WEEK 12,7,2025-09-05,84
STUDY001,LB,STUDY001-SUBJ0008,70,L00070,ALT,Alanine Aminotransferase,CHEMISTRY,32.34,U/L,7.0,56.0,32.34,32.34,U/L,7.0,56.0,NORMAL,,WEEK 12,7,2025-09-05,84
STUDY001,LB,STUDY001-SUBJ0008,71,L00071,HGB,Hemoglobin,HEMATOLOGY,15.23,g/dL,13.5,17.5,15.23,15.23,g/dL,13.5,17.5,NORMAL,,WEEK 16,8,2025-10-03,112
STUDY001,LB,STUDY001-SUBJ0008,72,L00072,HCT,Hematocrit,HEMATOLOGY,40.48,%,41.0,51.0,40.48,40.48,%,41.0,51.0,LOW,,WEEK 16,8,2025-10-03,112
STUDY001,LB,STUDY001-SUBJ0008,73,L00073,WBC,White Blood Cell Count,HEMATOLOGY,6.28,10^9/L,4.5,11.0,6.28,6.28,10^9/L,4.5,11.0,NORMAL,,WEEK 16,8,2025-10-03,112
STUDY001,LB,STUDY001-SUBJ0008,74,L00074,PLT,Platelet Count,HEMATOLOGY,193.21,10^9/L,150.0,450.0,193.21,193.21,10^9/L,150.0,450.0,NORMAL,,WEEK 16,8,2025-10-03,112
STUDY001,LB,STUDY001-SUBJ0008,75,L00075,GLUC,Glucose,CHEMISTRY,84.44,mg/dL,70.0,100.0,84.44,84.44,mg/dL,70.0,100.0,NORMAL,,WEEK 16,8,2025-10-03,112
STUDY001,LB,STUDY001-SUBJ0008,76,L00076,BUN,Blood Urea Nitrogen,CHEMISTRY,10.53,mg/dL,7.0,20.0,10.53,10.53,mg/dL,7.0,20.0,NORMAL,,WEEK 16,8,2025-10-03,112
STUDY001,LB,STUDY001-SUBJ0008,77,L00077,CREAT,Creatinine,CHEMISTRY,0.82,mg/dL,0.6,1.2,0.82,0.82,mg/dL,0.6,1.2,NORMAL,,WEEK 16,8,2025-10-03,112
STUDY001,LB,STUDY001-SUBJ0008,78,L00078,BILI,Total Bilirubin,CHEMISTRY,0.79,mg/dL,0.1,1.2,0.79,0.79,mg/dL,0.1,1.2,NORMAL,,WEEK 16,8,2025-10-03,112
STUDY001,LB,STUDY001-SUBJ0008,79,L00079,ALP,Alkaline Phosphatase,CHEMISTRY,107.74,U/L,44.0,147.0,107.74,107.74,U/L,44.0,147.0,NORMAL,,WEEK 16,8,2025-10-03,112
STUDY001,LB,STUDY001-SUBJ0008,80,L00080,ALT,Alanine Aminotransferase,CHEMISTRY,35.75,U/L,7.0,56.0,35.75,35.75,U/L,7.0,56.0,NORMAL,,WEEK 16,8,2025-10-03,112
STUDY001,LB,STUDY001-SUBJ0008,81,L00081,HGB,Hemoglobin,HEMATOLOGY,14.99,g/dL,13.5,17.5,14.99,14.99,g/dL,13.5,17.5,NORMAL,,END OF TREATMENT,9,2025-10-31,140
STUDY001,LB,STUDY001-SUBJ0008,82,L00082,HCT,Hematocrit,HEMATOLOGY,40.06,%,41.0,51.0,40.06,40.06,%,41.0,51.0,LOW,,END OF TREATMENT,9,2025-10-31,140
STUDY001,LB,STUDY001-SUBJ0008,83,L00083,WBC,White Blood Cell Count,HEMATOLOGY,6.1,10^9/L,4.5,11.0,6.1,6.1,10^9/L,4.5,11.0,NORMAL,,END OF TREATMENT,9,2025-10-31,140
STUDY001,LB,STUDY001-SUBJ0008,84,L00084,PLT,Platelet Count,HEMATOLOGY,189.59,10^9/L,150.0,450.0,189.59,189.59,10^9/L,150.0,450.0,NORMAL,,END OF TREATMENT,9,2025-10-31,140
STUDY001,LB,STUDY001-SUBJ0008,85,L00085,GLUC,Glucose,CHEMISTRY,84.91,mg/dL,70.0,100.0,84.91,84.91,mg/dL,70.0,100.0,NORMAL,,END OF TREATMENT,9,2025-10-31,140
STUDY001,LB,STUDY001-SUBJ0008,86,L00086,BUN,Blood Urea Nitrogen,CHEMISTRY,10.85,mg/dL,7.0,20.0,10.85,10.85,mg/dL,7.0,20.0,NORMAL,,END OF TREATMENT,9,2025-10-31,140
STUDY001,LB,STUDY001-SUBJ0008,87,L00087,CREAT,Creatinine,CHEMISTRY,0.85,mg/dL,0.6,1.2,0.85,0.85,mg/dL,0.6,1.2,NORMAL,,END OF TREATMENT,9,2025-10-31,140
STUDY001,LB,STUDY001-SUBJ0008,88,L00088,BILI,Total Bilirubin,CHEMISTRY,0.8,mg/dL,0.1,1.2,0.8,0.8,mg/dL,0.1,1.2,NORMAL,,END OF TREATMENT,9,2025-10-31,140
STUDY001,LB,STUDY001-SUBJ0008,89,L00089,ALP,Alkaline Phosphatase,CHEMISTRY,110.85,U/L,44.0,147.0,110.85,110.85,U/L,44.0,147.0,NORMAL,,END OF TREATMENT,9,2025-10-31,140
STUDY001,LB,STUDY001-SUBJ0008,90,L00090,ALT,Alanine Aminotransferase,CHEMISTRY,32.95,U/L,7.0,56.0,32.95,32.95,U/L,7.0,56.0,NORMAL,,END OF TREATMENT,9,2025-10-31,140
STUDY001,LB,STUDY001-SUBJ0009,1,L00001,HGB,Hemoglobin,HEMATOLOGY,14.15,g/dL,13.5,17.5,14.15,14.15,g/dL,13.5,17.5,NORMAL,,SCREENING,1,2025-03-24,-14
STUDY001,LB,STUDY001-SUBJ0009,2,L00002,HCT,Hematocrit,HEMATOLOGY,46.54,%,41.0,51.0,46.54,46.54,%,41.0,51.0,NORMAL,,SCREENING,1,2025-03-24,-14
STUDY001,LB,STUDY001-SUBJ0009,3,L00003,WBC,White Blood Cell Count,HEMATOLOGY,8.71,10^9/L,4.5,11.0,8.71,8.71,10^9/L,4.5,11.0,NORMAL,,SCREENING,1,2025-03-24,-14
STUDY001,LB,STUDY001-SUBJ0009,4,L00004,PLT,Platelet Count,HEMATOLOGY,174.68,10^9/L,150.0,450.0,174.68,174.68,10^9/L,150.0,450.0,NORMAL,,SCREENING,1,2025-03-24,-14
STUDY001,LB,STUDY001-SUBJ0009,5,L00005,GLUC,Glucose,CHEMISTRY,74.93,mg/dL,70.0,100.0,74.93,74.93,mg/dL,70.0,100.0,NORMAL,,SCREENING,1,2025-03-24,-14
STUDY001,LB,STUDY001-SUBJ0009,6,L00006,BUN,Blood Urea Nitrogen,CHEMISTRY,12.35,mg/dL,7.0,20.0,12.35,12.35,mg/dL,7.0,20.0,NORMAL,,SCREENING,1,2025-03-24,-14
STUDY001,LB,STUDY001-SUBJ0009,7,L00007,CREAT,Creatinine,CHEMISTRY,0.86,mg/dL,0.6,1.2,0.86,0.86,mg/dL,0.6,1.2,NORMAL,,SCREENING,1,2025-03-24,-14
STUDY001,LB,STUDY001-SUBJ0009,8,L00008,BILI,Total Bilirubin,CHEMISTRY,0.9,mg/dL,0.1,1.2,0.9,0.9,mg/dL,0.1,1.2,NORMAL,,SCREENING,1,2025-03-24,-14
STUDY001,LB,STUDY001-SUBJ0009,9,L00009,ALP,Alkaline Phosphatase,CHEMISTRY,100.75,U/L,44.0,147.0,100.75,100.75,U/L,44.0,147.0,NORMAL,,SCREENING,1,2025-03-24,-14
STUDY001,LB,STUDY001-SUBJ0009,10,L00010,ALT,Alanine Aminotransferase,CHEMISTRY,37.88,U/L,7.0,56.0,37.88,37.88,U/L,7.0,56.0,NORMAL,,SCREENING,1,2025-03-24,-14
STUDY001,LB,STUDY001-SUBJ0009,11,L00011,HGB,Hemoglobin,HEMATOLOGY,14.08,g/dL,13.5,17.5,14.08,14.08,g/dL,13.5,17.5,NORMAL,Y,BASELINE,2,2025-04-07,1
STUDY001,LB,STUDY001-SUBJ0009,12,L00012,HCT,Hematocrit,HEMATOLOGY,46.94,%,41.0,51.0,46.94,46.94,%,41.0,51.0,NORMAL,Y,BASELINE,2,2025-04-07,1
STUDY001,LB,STUDY001-SUBJ0009,13,L00013,WBC,White Blood Cell Count,HEMATOLOGY,8.69,10^9/L,4.5,11.0,8.69,8.69,10^9/L,4.5,11.0,NORMAL,Y,BASELINE,2,2025-04-07,1
STUDY001,LB,STUDY001-SUBJ0009,14,L00014,PLT,Platelet Count,HEMATOLOGY,170.8,10^9/L,150.0,450.0,170.8,170.8,10^9/L,150.0,450.0,NORMAL,Y,BASELINE,2,2025-04-07,1
STUDY001,LB,STUDY001-SUBJ0009,15,L00015,GLUC,Glucose,CHEMISTRY,73.78,mg/dL,70.0,100.0,73.78,73.78,mg/dL,70.0,100.0,NORMAL,Y,BASELINE,2,2025-04-07,1
STUDY001,LB,STUDY001-SUBJ0009,16,L00016,BUN,Blood Urea Nitrogen,CHEMISTRY,11.75,mg/dL,7.0,20.0,11.75,11.75,mg/dL,7.0,20.0,NORMAL,Y,BASELINE,2,2025-04-07,1
STUDY001,LB,STUDY001-SUBJ0009,17,L00017,CREAT,Creatinine,CHEMISTRY,0.84,mg/dL,0.6,1.2,0.84,0.84,mg/dL,0.6,1.2,NORMAL,Y,BASELINE,2,2025-04-07,1
STUDY001,LB,STUDY001-SUBJ0009,18,L00018,BILI,Total Bilirubin,CHEMISTRY,0.84,mg/dL,0.1,1.2,0.84,0.84,mg/dL,0.1,1.2,NORMAL,Y,BASELINE,2,2025-04-07,1
STUDY001,LB,STUDY001-SUBJ0009,19,L00019,ALP,Alkaline Phosphatase,CHEMISTRY,104.2,U/L,44.0,147.0,104.2,104.2,U/L,44.0,147.0,NORMAL,Y,BASELINE,2,2025-04-07,1
STUDY001,LB,STUDY001-SUBJ0009,20,L00020,ALT,Alanine Aminotransferase,CHEMISTRY,38.14,U/L,7.0,56.0,38.14,38.14,U/L,7.0,56.0,NORMAL,Y,BASELINE,2,2025-04-07,1
STUDY001,LB,STUDY001-SUBJ0009,21,L00021,HGB,Hemoglobin,HEMATOLOGY,14.13,g/dL,13.5,17.5,14.13,14.13,g/dL,13.5,17.5,NORMAL,,WEEK 1,3,2025-04-13,7
STUDY001,LB,STUDY001-SUBJ0009,22,L00022,HCT,Hematocrit,HEMATOLOGY,46.68,%,41.0,51.0,46.68,46.68,%,41.0,51.0,NORMAL,,WEEK 1,3,2025-04-13,7
STUDY001,LB,STUDY001-SUBJ0009,23,L00023,WBC,White Blood Cell Count,HEMATOLOGY,8.98,10^9/L,4.5,11.0,8.98,8.98,10^9/L,4.5,11.0,NORMAL,,WEEK 1,3,2025-04-13,7
STUDY001,LB,STUDY001-SUBJ0009,24,L00024,PLT,Platelet Count,HEMATOLOGY,164.4,10^9/L,150.0,450.0,164.4,164.4,10^9/L,150.0,450.0,NORMAL,,WEEK 1,3,2025-04-13,7
STUDY001,LB,STUDY001-SUBJ0009,25,L00025,GLUC,Glucose,CHEMISTRY,74.72,mg/dL,70.0,100.0,74.72,74.72,mg/dL,70.0,100.0,NORMAL,,WEEK 1,3,2025-04-13,7
STUDY001,LB,STUDY001-SUBJ0009,26,L00026,BUN,Blood Urea Nitrogen,CHEMISTRY,12.06,mg/dL,7.0,20.0,12.06,12.06,mg/dL,7.0,20.0,NORMAL,,WEEK 1,3,2025-04-13,7
STUDY001,LB,STUDY001-SUBJ0009,27,L00027,CREAT,Creatinine,CHEMISTRY,0.83,mg/dL,0.6,1.2,0.83,0.83,mg/dL,0.6,1.2,NORMAL,,WEEK 1,3,2025-04-13,7
STUDY001,LB,STUDY001-SUBJ0009,28,L00028,BILI,Total Bilirubin,CHEMISTRY,0.9,mg/dL,0.1,1.2,0.9,0.9,mg/dL,0.1,1.2,NORMAL,,WEEK 1,3,2025-04-13,7
STUDY001,LB,STUDY001-SUBJ0009,29,L00029,ALP,Alkaline Phosphatase,CHEMISTRY,104.38,U/L,44.0,147.0,104.38,104.38,U/L,44.0,147.0,NORMAL,,WEEK 1,3,2025-04-13,7
STUDY001,LB,STUDY001-SUBJ0009,30,L00030,ALT,Alanine Aminotransferase,CHEMISTRY,35.99,U/L,7.0,56.0,35.99,35.99,U/L,7.0,56.0,NORMAL,,WEEK 1,3,2025-04-13,7
STUDY001,LB,STUDY001-SUBJ0009,31,L00031,HGB,Hemoglobin,HEMATOLOGY,14.16,g/dL,13.5,17.5,14.16,14.16,g/dL,13.5,17.5,NORMAL,,WEEK 2,4,2025-04-20,14
STUDY001,LB,STUDY001-SUBJ0009,32,L00032,HCT,Hematocrit,HEMATOLOGY,46.7,%,41.0,51.0,46.7,46.7,%,41.0,51.0,NORMAL,,WEEK 2,4,2025-04-20,14
STUDY001,LB,STUDY001-SUBJ0009,33,L00033,WBC,White Blood Cell Count,HEMATOLOGY,8.92,10^9/L,4.5,11.0,8.92,8.92,10^9/L,4.5,11.0,NORMAL,,WEEK 2,4,2025-04-20,14
STUDY001,LB,STUDY001-SUBJ0009,34,L00034,PLT,Platelet Count,HEMATOLOGY,168.12,10^9/L,150.0,450.0,168.12,168.12,10^9/L,150.0,450.0,NORMAL,,WEEK 2,4,2025-04-20,14
STUDY001,LB,STUDY001-SUBJ0009,35,L00035,GLUC,Glucose,CHEMISTRY,75.79,mg/dL,70.0,100.0,75.79,75.79,mg/dL,70.0,100.0,NORMAL,,WEEK 2,4,2025-04-20,14
STUDY001,LB,STUDY001-SUBJ0009,36,L00036,BUN,Blood Urea Nitrogen,CHEMISTRY,11.73,mg/dL,7.0,20.0,11.73,11.73,mg/dL,7.0,20.0,NORMAL,,WEEK 2,4,2025-04-20,14
STUDY001,LB,STUDY001-SUBJ0009,37,L00037,CREAT,Creatinine,CHEMISTRY,0.83,mg/dL,0.6,1.2,0.83,0.83,mg/dL,0.6,1.2,NORMAL,,WEEK 2,4,2025-04-20,14
STUDY001,LB,STUDY001-SUBJ0009,38,L00038,BILI,Total Bilirubin,CHEMISTRY,0.88,mg/dL,0.1,1.2,0.88,0.88,mg/dL,0.1,1.2,NORMAL,,WEEK 2,4,2025-04-20,14
STUDY001,LB,STUDY001-SUBJ0009,39,L00039,ALP,Alkaline Phosphatase,CHEMISTRY,105.59,U/L,44.0,147.0,105.59,105.59,U/L,44.0,147.0,NORMAL,,WEEK 2,4,2025-04-20,14
STUDY001,LB,STUDY001-SUBJ0009,40,L00040,ALT,Alanine Aminotransferase,CHEMISTRY,38.25,U/L,7.0,56.0,38.25,38.25,U/L,7.0,56.0,NORMAL,,WEEK 2,4,2025-04-20,14
STUDY001,LB,STUDY001-SUBJ0009,41,L00041,HGB,Hemoglobin,HEMATOLOGY,14.15,g/dL,13.5,17.5,14.15,14.15,g/dL,13.5,17.5,NORMAL,,WEEK 4,5,2025-05-04,28
STUDY001,LB,STUDY001-SUBJ0009,42,L00042,HCT,Hematocrit,HEMATOLOGY,46.33,%,41.0,51.0,46.33,46.33,%,41.0,51.0,NORMAL,,WEEK 4,5,2025-05-04,28
STUDY001,LB,STUDY001-SUBJ0009,43,L00043,WBC,White Blood Cell Count,HEMATOLOGY,8.92,10^9/L,4.5,11.0,8.92,8.92,10^9/L,4.5,11.0,NORMAL,,WEEK 4,5,2025-05-04,28
STUDY001,LB,STUDY001-SUBJ0009,44,L00044,PLT,Platelet Count,HEMATOLOGY,163.99,10^9/L,150.0,450.0,163.99,163.99,10^9/L,150.0,450.0,NORMAL,,WEEK 4,5,2025-05-04,28
STUDY001,LB,STUDY001-SUBJ0009,45,L00045,GLUC,Glucose,CHEMISTRY,75.73,mg/dL,70.0,100.0,75.73,75.73,mg/dL,70.0,100.0,NORMAL,,WEEK 4,5,2025-05-04,28
STUDY001,LB,STUDY001-SUBJ0009,46,L00046,BUN,Blood Urea Nitrogen,CHEMISTRY,12.05,mg/dL,7.0,20.0,12.05,12.05,mg/dL,7.0,20.0,NORMAL,,WEEK 4,5,2025-05-04,28
STUDY001,LB,STUDY001-SUBJ0009,47,L00047,CREAT,Creatinine,CHEMISTRY,0.84,mg/dL,0.6,1.2,0.84,0.84,mg/dL,0.6,1.2,NORMAL,,WEEK 4,5,2025-05-04,28
STUDY001,LB,STUDY001-SUBJ0009,48,L00048,BILI,Total Bilirubin,CHEMISTRY,0.88,mg/dL,0.1,1.2,0.88,0.88,mg/dL,0.1,1.2,NORMAL,,WEEK 4,5,2025-05-04,28
STUDY001,LB,STUDY001-SUBJ0009,49,L00049,ALP,Alkaline Phosphatase,CHEMISTRY,98.13,U/L,44.0,147.0,98.13,98.13,U/L,44.0,147.0,NORMAL,,WEEK 4,5,2025-05-04,28
STUDY001,LB,STUDY001-SUBJ0009,50,L00050,ALT,Alanine Aminotransferase,CHEMISTRY,39.16,U/L,7.0,56.0,39.16,39.16,U/L,7.0,56.0,NORMAL,,WEEK 4,5,2025-05-04,28
STUDY001,LB,STUDY001-SUBJ0009,51,L00051,HGB,Hemoglobin,HEMATOLOGY,14.09,g/dL,13.5,17.5,14.09,14.09,g/dL,13.5,17.5,NORMAL,,WEEK 8,6,2025-06-01,56
STUDY001,LB,STUDY001-SUBJ0009,52,L00052,HCT,Hematocrit,HEMATOLOGY,46.8,%,41.0,51.0,46.8,46.8,%,41.0,51.0,NORMAL,,WEEK 8,6,2025-06-01,56
STUDY001,LB,STUDY001-SUBJ0009,53,L00053,WBC,White Blood Cell Count,HEMATOLOGY,8.65,10^9/L,4.5,11.0,8.65,8.65,10^9/L,4.5,11.0,NORMAL,,WEEK 8,6,2025-06-01,56
STUDY001,LB,STUDY001-SUBJ0009,54,L00054,PLT,Platelet Count,HEMATOLOGY,170.41,10^9/L,150.0,450.0,170.41,170.41,10^9/L,150.0,450.0,NORMAL,,WEEK 8,6,2025-06-01,56
STUDY001,LB,STUDY001-SUBJ0009,55,L00055,GLUC,Glucose,CHEMISTRY,76.52,mg/dL,70.0,100.0,76.52,76.52,mg/dL,70.0,100.0,NORMAL,,WEEK 8,6,2025-06-01,56
STUDY001,LB,STUDY001-SUBJ0009,56,L00056,BUN,Blood Urea Nitrogen,CHEMISTRY,11.8,mg/dL,7.0,20.0,11.8,11.8,mg/dL,7.0,20.0,NORMAL,,WEEK 8,6,2025-06-01,56
STUDY001,LB,STUDY001-SUBJ0009,57,L00057,CREAT,Creatinine,CHEMISTRY,0.86,mg/dL,0.6,1.2,0.86,0.86,mg/dL,0.6,1.2,NORMAL,,WEEK 8,6,2025-06-01,56
STUDY001,LB,STUDY001-SUBJ0009,58,L00058,BILI,Total Bilirubin,CHEMISTRY,0.86,mg/dL,0.1,1.2,0.86,0.86,mg/dL,0.1,1.2,NORMAL,,WEEK 8,6,2025-06-01,56
STUDY001,LB,STUDY001-SUBJ0009,59,L00059,ALP,Alkaline Phosphatase,CHEMISTRY,104.59,U/L,44.0,147.0,104.59,104.59,U/L,44.0,147.0,NORMAL,,WEEK 8,6,2025-06-01,56
STUDY001,LB,STUDY001-SUBJ0009,60,L00060,ALT,Alanine Aminotransferase,CHEMISTRY,36.66,U/L,7.0,56.0,36.66,36.66,U/L,7.0,56.0,NORMAL,,WEEK 8,6,2025-06-01,56
STUDY001,LB,STUDY001-SUBJ0009,61,L00061,HGB,Hemoglobin,HEMATOLOGY,14.25,g/dL,13.5,17.5,14.25,14.25,g/dL,13.5,17.5,NORMAL,,WEEK 12,7,2025-06-29,84
STUDY001,LB,STUDY001-SUBJ0009,62,L00062,HCT,Hematocrit,HEMATOLOGY,47.07,%,41.0,51.0,47.07,47.07,%,41.0,51.0,NORMAL,,WEEK 12,7,2025-06-29,84
STUDY001,LB,STUDY001-SUBJ0009,63,L00063,WBC,White Blood Cell Count,HEMATOLOGY,8.64,10^9/L,4.5,11.0,8.64,8.64,10^9/L,4.5,11.0,NORMAL,,WEEK 12,7,2025-06-29,84
STUDY001,LB,STUDY001-SUBJ0009,64,L00064,PLT,Platelet Count,HEMATOLOGY,167.75,10^9/L,150.0,450.0,167.75,167.75,10^9/L,150.0,450.0,NORMAL,,WEEK 12,7,2025-06-29,84
STUDY001,LB,STUDY001-SUBJ0009,65,L00065,GLUC,Glucose,CHEMISTRY,74.1,mg/dL,70.0,100.0,74.1,74.1,mg/dL,70.0,100.0,NORMAL,,WEEK 12,7,2025-06-29,84
STUDY001,LB,STUDY001-SUBJ0009,66,L00066,BUN,Blood Urea Nitrogen,CHEMISTRY,12.14,mg/dL,7.0,20.0,12.14,12.14,mg/dL,7.0,20.0,NORMAL,,WEEK 12,7,2025-06-29,84
STUDY001,LB,STUDY001-SUBJ0009,67,L00067,CREAT,Creatinine,CHEMISTRY,0.82,mg/dL,0.6,1.2,0.82,0.82,mg/dL,0.6,1.2,NORMAL,,WEEK 12,7,2025-06-29,84
STUDY001,LB,STUDY001-SUBJ0009,68,L00068,BILI,Total Bilirubin,CHEMISTRY,0.87,mg/dL,0.1,1.2,0.87,0.87,mg/dL,0.1,1.2,NORMAL,,WEEK 12,7,2025-06-29,84
STUDY001,LB,STUDY001-SUBJ0009,69,L00069,ALP,Alkaline Phosphatase,CHEMISTRY,103.38,U/L,44.0,147.0,103.38,103.38,U/L,44.0,147.0,NORMAL,,WEEK 12,7,2025-06-29,84
STUDY001,LB,STUDY001-SUBJ0009,70,L00070,ALT,Alanine Aminotransferase,CHEMISTRY,38.26,U/L,7.0,56.0,38.26,38.26,U/L,7.0,56.0,NORMAL,,WEEK 12,7,2025-06-29,84
STUDY001,LB,STUDY001-SUBJ0009,71,L00071,HGB,Hemoglobin,HEMATOLOGY,14.14,g/dL,13.5,17.5,14.14,14.14,g/dL,13.5,17.5,NORMAL,,WEEK 16,8,2025-07-27,112
STUDY001,LB,STUDY001-SUBJ0009,72,L00072,HCT,Hematocrit,HEMATOLOGY,46.75,%,41.0,51.0,46.75,46.75,%,41.0,51.0,NORMAL,,WEEK 16,8,2025-07-27,112
STUDY001,LB,STUDY001-SUBJ0009,73,L00073,WBC,White Blood Cell Count,HEMATOLOGY,8.9,10^9/L,4.5,11.0,8.9,8.9,10^9/L,4.5,11.0,NORMAL,,WEEK 16,8,2025-07-27,112
STUDY001,LB,STUDY001-SUBJ0009,74,L00074,PLT,Platelet Count,HEMATOLOGY,167.78,10^9/L,150.0,450.0,167.78,167.78,10^9/L,150.0,450.0,NORMAL,,WEEK 16,8,2025-07-27,112
STUDY001,LB,STUDY001-SUBJ0009,75,L00075,GLUC,Glucose,CHEMISTRY,72.67,mg/dL,70.0,100.0,72.67,72.67,mg/dL,70.0,100.0,NORMAL,,WEEK 16,8,2025-07-27,112
STUDY001,LB,STUDY001-SUBJ0009,76,L00076,BUN,Blood Urea Nitrogen,CHEMISTRY,12.21,mg/dL,7.0,20.0,12.21,12.21,mg/dL,7.0,20.0,NORMAL,,WEEK 16,8,2025-07-27,112
STUDY001,LB,STUDY001-SUBJ0009,77,L00077,CREAT,Creatinine,CHEMISTRY,0.84,mg/dL,0.6,1.2,0.84,0.84,mg/dL,0.6,1.2,NORMAL,,WEEK 16,8,2025-07-27,112
STUDY001,LB,STUDY001-SUBJ0009,78,L00078,BILI,Total Bilirubin,CHEMISTRY,0.9,mg/dL,0.1,1.2,0.9,0.9,mg/dL,0.1,1.2,NORMAL,,WEEK 16,8,2025-07-27,112
STUDY001,LB,STUDY001-SUBJ0009,79,L00079,ALP,Alkaline Phosphatase,CHEMISTRY,102.38,U/L,44.0,147.0,102.38,102.38,U/L,44.0,147.0,NORMAL,,WEEK 16,8,2025-07-27,112
STUDY001,LB,STUDY001-SUBJ0009,80,L00080,ALT,Alanine Aminotransferase,CHEMISTRY,39.03,U/L,7.0,56.0,39.03,39.03,U/L,7.0,56.0,NORMAL,,WEEK 16,8,2025-07-27,112
STUDY001,LB,STUDY001-SUBJ0009,81,L00081,HGB,Hemoglobin,HEMATOLOGY,14.02,g/dL,13.5,17.5,14.02,14.02,g/dL,13.5,17.5,NORMAL,,END OF TREATMENT,9,2025-08-24,140
STUDY001,LB,STUDY001-SUBJ0009,82,L00082,HCT,Hematocrit,HEMATOLOGY,46.74,%,41.0,51.0,46.74,46.74,%,41.0,51.0,NORMAL,,END OF TREATMENT,9,2025-08-24,140
STUDY001,LB,STUDY001-SUBJ0009,83,L00083,WBC,White Blood Cell Count,HEMATOLOGY,8.81,10^9/L,4.5,11.0,8.81,8.81,10^9/L,4.5,11.0,NORMAL,,END OF TREATMENT,9,2025-08-24,140
STUDY001,LB,STUDY001-SUBJ0009,84,L00084,PLT,Platelet Count,HEMATOLOGY,168.94,10^9/L,150.0,450.0,168.94,168.94,10^9/L,150.0,450.0,NORMAL,,END OF TREATMENT,9,2025-08-24,140
STUDY001,LB,STUDY001-SUBJ0009,85,L00085,GLUC,Glucose,CHEMISTRY,72.57,mg/dL,70.0,100.0,72.57,72.57,mg/dL,70.0,100.0,NORMAL,,END OF TREATMENT,9,2025-08-24,140
STUDY001,LB,STUDY001-SUBJ0009,86,L00086,BUN,Blood Urea Nitrogen,CHEMISTRY,11.86,mg/dL,7.0,20.0,11.86,11.86,mg/dL,7.0,20.0,NORMAL,,END OF TREATMENT,9,2025-08-24,140
STUDY001,LB,STUDY001-SUBJ0009,87,L00087,CREAT,Creatinine,CHEMISTRY,0.84,mg/dL,0.6,1.2,0.84,0.84,mg/dL,0.6,1.2,NORMAL,,END OF TREATMENT,9,2025-08-24,140
STUDY001,LB,STUDY001-SUBJ0009,88,L00088,BILI,Total Bilirubin,CHEMISTRY,0.85,mg/dL,0.1,1.2,0.85,0.85,mg/dL,0.1,1.2,NORMAL,,END OF TREATMENT,9,2025-08-24,140
STUDY001,LB,STUDY001-SUBJ0009,89,L00089,ALP,Alkaline Phosphatase,CHEMISTRY,106.02,U/L,44.0,147.0,106.02,106.02,U/L,44.0,147.0,NORMAL,,END OF TREATMENT,9,2025-08-24,140
STUDY001,LB,STUDY001-SUBJ0009,90,L00090,ALT,Alanine Aminotransferase,CHEMISTRY,37.58,U/L,7.0,56.0,37.58,37.58,U/L,7.0,56.0,NORMAL,,END OF TREATMENT,9,2025-08-24,140
STUDY001,LB,STUDY001-SUBJ0010,1,L00001,HGB,Hemoglobin,HEMATOLOGY,13.75,g/dL,13.5,17.5,13.75,13.75,g/dL,13.5,17.5,NORMAL,,SCREENING,1,2024-09-02,-14
STUDY001,LB,STUDY001-SUBJ0010,2,L00002,HCT,Hematocrit,HEMATOLOGY,48.3,%,41.0,51.0,48.3,48.3,%,41.0,51.0,NORMAL,,SCREENING,1,2024-09-02,-14
STUDY001,LB,STUDY001-SUBJ0010,3,L00003,WBC,White Blood Cell Count,HEMATOLOGY,5.2,10^9/L,4.5,11.0,5.2,5.2,10^9/L,4.5,11.0,NORMAL,,SCREENING,1,2024-09-02,-14
STUDY001,LB,STUDY001-SUBJ0010,4,L00004,PLT,Platelet Count,HEMATOLOGY,229.86,10^9/L,150.0,450.0,229.86,229.86,10^9/L,150.0,450.0,NORMAL,,SCREENING,1,2024-09-02,-14
STUDY001,LB,STUDY001-SUBJ0010,5,L00005,GLUC,Glucose,CHEMISTRY,93.79,mg/dL,70.0,100.0,93.79,93.79,mg/dL,70.0,100.0,NORMAL,,SCREENING,1,2024-09-02,-14
STUDY001,LB,STUDY001-SUBJ0010,6,L00006,BUN,Blood Urea Nitrogen,CHEMISTRY,13.71,mg/dL,7.0,20.0,13.71,13.71,mg/dL,7.0,20.0,NORMAL,,SCREENING,1,2024-09-02,-14
STUDY001,LB,STUDY001-SUBJ0010,7,L00007,CREAT,Creatinine,CHEMISTRY,0.85,mg/dL,0.6,1.2,0.85,0.85,mg/dL,0.6,1.2,NORMAL,,SCREENING,1,2024-09-02,-14
STUDY001,LB,STUDY001-SUBJ0010,8,L00008,BILI,Total Bilirubin,CHEMISTRY,0.47,mg/dL,0.1,1.2,0.47,0.47,mg/dL,0.1,1.2,NORMAL,,SCREENING,1,2024-09-02,-14
STUDY001,LB,STUDY001-SUBJ0010,9,L00009,ALP,Alkaline Phosphatase,CHEMISTRY,109.94,U/L,44.0,147.0,109.94,109.94,U/L,44.0,147.0,NORMAL,,SCREENING,1,2024-09-02,-14
STUDY001,LB,STUDY001-SUBJ0010,10,L00010,ALT,Alanine Aminotransferase,CHEMISTRY,31.78,U/L,7.0,56.0,31.78,31.78,U/L,7.0,56.0,NORMAL,,SCREENING,1,2024-09-02,-14
STUDY001,LB,STUDY001-SUBJ0010,11,L00011,HGB,Hemoglobin,HEMATOLOGY,13.84,g/dL,13.5,17.5,13.84,13.84,g/dL,13.5,17.5,NORMAL,Y,BASELINE,2,2024-09-16,1
STUDY001,LB,STUDY001-SUBJ0010,12,L00012,HCT,Hematocrit,HEMATOLOGY,49.03,%,41.0,51.0,49.03,49.03,%,41.0,51.0,NORMAL,Y,BASELINE,2,2024-09-16,1
STUDY001,LB,STUDY001-SUBJ0010,13,L00013,WBC,White Blood Cell Count,HEMATOLOGY,5.38,10^9/L,4.5,11.0,5.38,5.38,10^9/L,4.5,11.0,NORMAL,Y,BASELINE,2,2024-09-16,1
STUDY001,LB,STUDY001-SUBJ0010,14,L00014,PLT,Platelet Count,HEMATOLOGY,231.46,10^9/L,150.0,450.0,231.46,231.46,10^9/L,150.0,450.0,NORMAL,Y,BASELINE,2,2024-09-16,1
STUDY001,LB,STUDY001-SUBJ0010,15,L00015,GLUC,Glucose,CHEMISTRY,92.02,mg/dL,70.0,100.0,92.02,92.02,mg/dL,70.0,100.0,NORMAL,Y,BASELINE,2,2024-09-16,1
STUDY001,LB,STUDY001-SUBJ0010,16,L00016,BUN,Blood Urea Nitrogen,CHEMISTRY,13.98,mg/dL,7.0,20.0,13.98,13.98,mg/dL,7.0,20.0,NORMAL,Y,BASELINE,2,2024-09-16,1
STUDY001,LB,STUDY001-SUBJ0010,17,L00017,CREAT,Creatinine,CHEMISTRY,0.86,mg/dL,0.6,1.2,0.86,0.86,mg/dL,0.6,1.2,NORMAL,Y,BASELINE,2,2024-09-16,1
STUDY001,LB,STUDY001-SUBJ0010,18,L00018,BILI,Total Bilirubin,CHEMISTRY,0.46,mg/dL,0.1,1.2,0.46,0.46,mg/dL,0.1,1.2,NORMAL,Y,BASELINE,2,2024-09-16,1
STUDY001,LB,STUDY001-SUBJ0010,19,L00019,ALP,Alkaline Phosphatase,CHEMISTRY,111.13,U/L,44.0,147.0,111.13,111.13,U/L,44.0,147.0,NORMAL,Y,BASELINE,2,2024-09-16,1
STUDY001,LB,STUDY001-SUBJ0010,20,L00020,ALT,Alanine Aminotransferase,CHEMISTRY,30.78,U/L,7.0,56.0,30.78,30.78,U/L,7.0,56.0,NORMAL,Y,BASELINE,2,2024-09-16,1
STUDY001,LB,STUDY001-SUBJ0010,21,L00021,HGB,Hemoglobin,HEMATOLOGY,13.68,g/dL,13.5,17.5,13.68,13.68,g/dL,13.5,17.5,NORMAL,,WEEK 1,3,2024-09-22,7
STUDY001,LB,STUDY001-SUBJ0010,22,L00022,HCT,Hematocrit,HEMATOLOGY,48.6,%,41.0,51.0,48.6,48.6,%,41.0,51.0,NORMAL,,WEEK 1,3,2024-09-22,7
STUDY001,LB,STUDY001-SUBJ0010,23,L00023,WBC,White Blood Cell Count,HEMATOLOGY,5.21,10^9/L,4.5,11.0,5.21,5.21,10^9/L,4.5,11.0,NORMAL,,WEEK 1,3,2024-09-22,7
STUDY001,LB,STUDY001-SUBJ0010,24,L00024,PLT,Platelet Count,HEMATOLOGY,227.91,10^9/L,150.0,450.0,227.91,227.91,10^9/L,150.0,450.0,NORMAL,,WEEK 1,3,2024-09-22,7
STUDY001,LB,STUDY001-SUBJ0010,25,L00025,GLUC,Glucose,CHEMISTRY,92.11,mg/dL,70.0,100.0,92.11,92.11,mg/dL,70.0,100.0,NORMAL,,WEEK 1,3,2024-09-22,7
STUDY001,LB,STUDY001-SUBJ0010,26,L00026,BUN,Blood Urea Nitrogen,CHEMISTRY,13.98,mg/dL,7.0,20.0,13.98,13.98,mg/dL,7.0,20.0,NORMAL,,WEEK 1,3,2024-09-22,7
STUDY001,LB,STUDY001-SUBJ0010,27,L00027,CREAT,Creatinine,CHEMISTRY,0.83,mg/dL,0.6,1.2,0.83,0.83,mg/dL,0.6,1.2,NORMAL,,WEEK 1,3,2024-09-22,7
STUDY001,LB,STUDY001-SUBJ0010,28,L00028,BILI,Total Bilirubin,CHEMISTRY,0.44,mg/dL,0.1,1.2,0.44,0.44,mg/dL,0.1,1.2,NORMAL,,WEEK 1,3,2024-09-22,7
STUDY001,LB,STUDY001-SUBJ0010,29,L00029,ALP,Alkaline Phosphatase,CHEMISTRY,111.99,U/L,44.0,147.0,111.99,111.99,U/L,44.0,147.0,NORMAL,,WEEK 1,3,2024-09-22,7
STUDY001,LB,STUDY001-SUBJ0010,30,L00030,ALT,Alanine Aminotransferase,CHEMISTRY,30.59,U/L,7.0,56.0,30.59,30.59,U/L,7.0,56.0,NORMAL,,WEEK 1,3,2024-09-22,7
STUDY001,LB,STUDY001-SUBJ0010,31,L00031,HGB,Hemoglobin,HEMATOLOGY,14.02,g/dL,13.5,17.5,14.02,14.02,g/dL,13.5,17.5,NORMAL,,WEEK 2,4,2024-09-29,14
STUDY001,LB,STUDY001-SUBJ0010,32,L00032,HCT,Hematocrit,HEMATOLOGY,48.68,%,41.0,51.0,48.68,48.68,%,41.0,51.0,NORMAL,,WEEK 2,4,2024-09-29,14
STUDY001,LB,STUDY001-SUBJ0010,33,L00033,WBC,White Blood Cell Count,HEMATOLOGY,4.96,10^9/L,4.5,11.0,4.96,4.96,10^9/L,4.5,11.0,NORMAL,,WEEK 2,4,2024-09-29,14
STUDY001,LB,STUDY001-SUBJ0010,34,L00034,PLT,Platelet Count,HEMATOLOGY,238.11,10^9/L,150.0,450.0,238.11,238.11,10^9/L,150.0,450.0,NORMAL,,WEEK 2,4,2024-09-29,14
STUDY001,LB,STUDY001-SUBJ0010,35,L00035,GLUC,Glucose,CHEMISTRY,93.12,mg/dL,70.0,100.0,93.12,93.12,mg/dL,70.0,100.0,NORMAL,,WEEK 2,4,2024-09-29,14
STUDY001,LB,STUDY001-SUBJ0010,36,L00036,BUN,Blood Urea Nitrogen,CHEMISTRY,14.25,mg/dL,7.0,20.0,14.25,14.25,mg/dL,7.0,20.0,NORMAL,,WEEK 2,4,2024-09-29,14
STUDY001,LB,STUDY001-SUBJ0010,37,L00037,CREAT,Creatinine,CHEMISTRY,0.86,mg/dL,0.6,1.2,0.86,0.86,mg/dL,0.6,1.2,NORMAL,,WEEK 2,4,2024-09-29,14
STUDY001,LB,STUDY001-SUBJ0010,38,L00038,BILI,Total Bilirubin,CHEMISTRY,0.47,mg/dL,0.1,1.2,0.47,0.47,mg/dL,0.1,1.2,NORMAL,,WEEK 2,4,2024-09-29,14
STUDY001,LB,STUDY001-SUBJ0010,39,L00039,ALP,Alkaline Phosphatase,CHEMISTRY,110.98,U/L,44.0,147.0,110.98,110.98,U/L,44.0,147.0,NORMAL,,WEEK 2,4,2024-09-29,14
STUDY001,LB,STUDY001-SUBJ0010,40,L00040,ALT,Alanine Aminotransferase,CHEMISTRY,29.28,U/L,7.0,56.0,29.28,29.28,U/L,7.0,56.0,NORMAL,,WEEK 2,4,2024-09-29,14
STUDY001,LB,STUDY001-SUBJ0010,41,L00041,HGB,Hemoglobin,HEMATOLOGY,14.07,g/dL,13.5,17.5,14.07,14.07,g/dL,13.5,17.5,NORMAL,,WEEK 4,5,2024-10-13,28
STUDY001,LB,STUDY001-SUBJ0010,42,L00042,HCT,Hematocrit,HEMATOLOGY,48.87,%,41.0,51.0,48.87,48.87,%,41.0,51.0,NORMAL,,WEEK 4,5,2024-10-13,28
STUDY001,LB,STUDY001-SUBJ0010,43,L00043,WBC,White Blood Cell Count,HEMATOLOGY,5.23,10^9/L,4.5,11.0,5.23,5.23,10^9/L,4.5,11.0,NORMAL,,WEEK 4,5,2024-10-13,28
STUDY001,LB,STUDY001-SUBJ0010,44,L00044,PLT,Platelet Count,HEMATOLOGY,227.34,10^9/L,150.0,450.0,227.34,227.34,10^9/L,150.0,450.0,NORMAL,,WEEK 4,5,2024-10-13,28
STUDY001,LB,STUDY001-SUBJ0010,45,L00045,GLUC,Glucose,CHEMISTRY,91.07,mg/dL,70.0,100.0,91.07,91.07,mg/dL,70.0,100.0,NORMAL,,WEEK 4,5,2024-10-13,28
STUDY001,LB,STUDY001-SUBJ0010,46,L00046,BUN,Blood Urea Nitrogen,CHEMISTRY,13.49,mg/dL,7.0,20.0,13.49,13.49,mg/dL,7.0,20.0,NORMAL,,WEEK 4,5,2024-10-13,28
STUDY001,LB,STUDY001-SUBJ0010,47,L00047,CREAT,Creatinine,CHEMISTRY,0.86,mg/dL,0.6,1.2,0.86,0.86,mg/dL,0.6,1.2,NORMAL,,WEEK 4,5,2024-10-13,28
STUDY001,LB,STUDY001-SUBJ0010,48,L00048,BILI,Total Bilirubin,CHEMISTRY,0.44,mg/dL,0.1,1.2,0.44,0.44,mg/dL,0.1,1.2,NORMAL,,WEEK 4,5,2024-10-13,28
STUDY001,LB,STUDY001-SUBJ0010,49,L00049,ALP,Alkaline Phosphatase,CHEMISTRY,108.8,U/L,44.0,147.0,108.8,108.8,U/L,44.0,147.0,NORMAL,,WEEK 4,5,2024-10-13,28
STUDY001,LB,STUDY001-SUBJ0010,50,L00050,ALT,Alanine Aminotransferase,CHEMISTRY,29.35,U/L,7.0,56.0,29.35,29.35,U/L,7.0,56.0,NORMAL,,WEEK 4,5,2024-10-13,28
STUDY001,LB,STUDY001-SUBJ0010,51,L00051,HGB,Hemoglobin,HEMATOLOGY,13.88,g/dL,13.5,17.5,13.88,13.88,g/dL,13.5,17.5,NORMAL,,WEEK 8,6,2024-11-10,56
STUDY001,LB,STUDY001-SUBJ0010,52,L00052,HCT,Hematocrit,HEMATOLOGY,49.02,%,41.0,51.0,49.02,49.02,%,41.0,51.0,NORMAL,,WEEK 8,6,2024-11-10,56
STUDY001,LB,STUDY001-SUBJ0010,53,L00053,WBC,White Blood Cell Count,HEMATOLOGY,5.07,10^9/L,4.5,11.0,5.07,5.07,10^9/L,4.5,11.0,NORMAL,,WEEK 8,6,2024-11-10,56
STUDY001,LB,STUDY001-SUBJ0010,54,L00054,PLT,Platelet Count,HEMATOLOGY,229.63,10^9/L,150.0,450.0,229.63,229.63,10^9/L,150.0,450.0,NORMAL,,WEEK 8,6,2024-11-10,56
STUDY001,LB,STUDY001-SUBJ0010,55,L00055,GLUC,Glucose,CHEMISTRY,91.05,mg/dL,70.0,100.0,91.05,91.05,mg/dL,70.0,100.0,NORMAL,,WEEK 8,6,2024-11-10,56
STUDY001,LB,STUDY001-SUBJ0010,56,L00056,BUN,Blood Urea Nitrogen,CHEMISTRY,14.29,mg/dL,7.0,20.0,14.29,14.29,mg/dL,7.0,20.0,NORMAL,,WEEK 8,6,2024-11-10,56
STUDY001,LB,STUDY001-SUBJ0010,57,L00057,CREAT,Creatinine,CHEMISTRY,0.84,mg/dL,0.6,1.2,0.84,0.84,mg/dL,0.6,1.2,NORMAL,,WEEK 8,6,2024-11-10,56
STUDY001,LB,STUDY001-SUBJ0010,58,L00058,BILI,Total Bilirubin,CHEMISTRY,0.45,mg/dL,0.1,1.2,0.45,0.45,mg/dL,0.1,1.2,NORMAL,,WEEK 8,6,2024-11-10,56
STUDY001,LB,STUDY001-SUBJ0010,59,L00059,ALP,Alkaline Phosphatase,CHEMISTRY,107.14,U/L,44.0,147.0,107.14,107.14,U/L,44.0,147.0,NORMAL,,WEEK 8,6,2024-11-10,56
STUDY001,LB,STUDY001-SUBJ0010,60,L00060,ALT,Alanine Aminotransferase,CHEMISTRY,30.55,U/L,7.0,56.0,30.55,30.55,U/L,7.0,56.0,NORMAL,,WEEK 8,6,2024-11-10,56
STUDY001,LB,STUDY001-SUBJ0010,61,L00061,HGB,Hemoglobin,HEMATOLOGY,13.83,g/dL,13.5,17.5,13.83,13.83,g/dL,13.5,17.5,NORMAL,,WEEK 12,7,2024-12-08,84
STUDY001,LB,STUDY001-SUBJ0010,62,L00062,HCT,Hematocrit,HEMATOLOGY,49.09,%,41.0,51.0,49.09,49.09,%,41.0,51.0,NORMAL,,WEEK 12,7,2024-12-08,84
STUDY001,LB,STUDY001-SUBJ0010,63,L00063,WBC,White Blood Cell Count,HEMATOLOGY,5.17,10^9/L,4.5,11.0,5.17,5.17,10^9/L,4.5,11.0,NORMAL,,WEEK 12,7,2024-12-08,84
STUDY001,LB,STUDY001-SUBJ0010,64,L00064,PLT,Platelet Count,HEMATOLOGY,233.86,10^9/L,150.0,450.0,233.86,233.86,10^9/L,150.0,450.0,NORMAL,,WEEK 12,7,2024-12-08,84
STUDY001,LB,STUDY001-SUBJ0010,65,L00065,GLUC,Glucose,CHEMISTRY,91.1,mg/dL,70.0,100.0,91.1,91.1,mg/dL,70.0,100.0,NORMAL,,WEEK 12,7,2024-12-08,84
STUDY001,LB,STUDY001-SUBJ0010,66,L00066,BUN,Blood Urea Nitrogen,CHEMISTRY,12.99,mg/dL,7.0,20.0,12.99,12.99,mg/dL,7.0,20.0,NORMAL,,WEEK 12,7,2024-12-08,84
STUDY001,LB,STUDY001-SUBJ0010,67,L00067,CREAT,Creatinine,CHEMISTRY,0.85,mg/dL,0.6,1.2,0.85,0.85,mg/dL,0.6,1.2,NORMAL,,WEEK 12,7,2024-12-08,84
STUDY001,LB,STUDY001-SUBJ0010,68,L00068,BILI,Total Bilirubin,CHEMISTRY,0.43,mg/dL,0.1,1.2,0.43,0.43,mg/dL,0.1,1.2,NORMAL,,WEEK 12,7,2024-12-08,84
STUDY001,LB,STUDY001-SUBJ0010,69,L00069,ALP,Alkaline Phosphatase,CHEMISTRY,109.82,U/L,44.0,147.0,109.82,109.82,U/L,44.0,147.0,NORMAL,,WEEK 12,7,2024-12-08,84
STUDY001,LB,STUDY001-SUBJ0010,70,L00070,ALT,Alanine Aminotransferase,CHEMISTRY,30.41,U/L,7.0,56.0,30.41,30.41,U/L,7.0,56.0,NORMAL,,WEEK 12,7,2024-12-08,84
STUDY001,LB,STUDY001-SUBJ0010,71,L00071,HGB,Hemoglobin,HEMATOLOGY,14.08,g/dL,13.5,17.5,14.08,14.08,g/dL,13.5,17.5,NORMAL,,WEEK 16,8,2025-01-05,112
STUDY001,LB,STUDY001-SUBJ0010,72,L00072,HCT,Hematocrit,HEMATOLOGY,48.88,%,41.0,51.0,48.88,48.88,%,41.0,51.0,NORMAL,,WEEK 16,8,2025-01-05,112
STUDY001,LB,STUDY001-SUBJ0010,73,L00073,WBC,White Blood Cell Count,HEMATOLOGY,4.89,10^9/L,4.5,11.0,4.89,4.89,10^9/L,4.5,11.0,NORMAL,,WEEK 16,8,2025-01-05,112
STUDY001,LB,STUDY001-SUBJ0010,74,L00074,PLT,Platelet Count,HEMATOLOGY,231.47,10^9/L,150.0,450.0,231.47,231.47,10^9/L,150.0,450.0,NORMAL,,WEEK 16,8,2025-01-05,112
STUDY001,LB,STUDY001-SUBJ0010,75,L00075,GLUC,Glucose,CHEMISTRY,91.11,mg/dL,70.0,100.0,91.11,91.11,mg/dL,70.0,100.0,NORMAL,,WEEK 16,8,2025-01-05,112
STUDY001,LB,STUDY001-SUBJ0010,76,L00076,BUN,Blood Urea Nitrogen,CHEMISTRY,14.27,mg/dL,7.0,20.0,14.27,14.27,mg/dL,7.0,20.0,NORMAL,,WEEK 16,8,2025-01-05,112
STUDY001,LB,STUDY001-SUBJ0010,77,L00077,CREAT,Creatinine,CHEMISTRY,0.82,mg/dL,0.6,1.2,0.82,0.82,mg/dL,0.6,1.2,NORMAL,,WEEK 16,8,2025-01-05,112
STUDY001,LB,STUDY001-SUBJ0010,78,L00078,BILI,Total Bilirubin,CHEMISTRY,0.44,mg/dL,0.1,1.2,0.44,0.44,mg/dL,0.1,1.2,NORMAL,,WEEK 16,8,2025-01-05,112
STUDY001,LB,STUDY001-SUBJ0010,79,L00079,ALP,Alkaline Phosphatase,CHEMISTRY,111.95,U/L,44.0,147.0,111.95,111.95,U/L,44.0,147.0,NORMAL,,WEEK 16,8,2025-01-05,112
STUDY001,LB,STUDY001-SUBJ0010,80,L00080,ALT,Alanine Aminotransferase,CHEMISTRY,30.59,U/L,7.0,56.0,30.59,30.59,U/L,7.0,56.0,NORMAL,,WEEK 16,8,2025-01-05,112
STUDY001,LB,STUDY001-SUBJ0010,81,L00081,HGB,Hemoglobin,HEMATOLOGY,13.95,g/dL,13.5,17.5,13.95,13.95,g/dL,13.5,17.5,NORMAL,,END OF TREATMENT,9,2025-02-02,140
STUDY001,LB,STUDY001-SUBJ0010,82,L00082,HCT,Hematocrit,HEMATOLOGY,49.05,%,41.0,51.0,49.05,49.05,%,41.0,51.0,NORMAL,,END OF TREATMENT,9,2025-02-02,140
STUDY001,LB,STUDY001-SUBJ0010,83,L00083,WBC,White Blood Cell Count,HEMATOLOGY,5.1,10^9/L,4.5,11.0,5.1,5.1,10^9/L,4.5,11.0,NORMAL,,END OF TREATMENT,9,2025-02-02,140
STUDY001,LB,STUDY001-SUBJ0010,84,L00084,PLT,Platelet Count,HEMATOLOGY,226.92,10^9/L,150.0,450.0,226.92,226.92,10^9/L,150.0,450.0,NORMAL,,END OF TREATMENT,9,2025-02-02,140
STUDY001,LB,STUDY001-SUBJ0010,85,L00085,GLUC,Glucose,CHEMISTRY,91.99,mg/dL,70.0,100.0,91.99,91.99,mg/dL,70.0,100.0,NORMAL,,END OF TREATMENT,9,2025-02-02,140
STUDY001,LB,STUDY001-SUBJ0010,86,L00086,BUN,Blood Urea Nitrogen,CHEMISTRY,14.19,mg/dL,7.0,20.0,14.19,14.19,mg/dL,7.0,20.0,NORMAL,,END OF TREATMENT,9,2025-02-02,140
STUDY001,LB,STUDY001-SUBJ0010,87,L00087,CREAT,Creatinine,CHEMISTRY,0.89,mg/dL,0.6,1.2,0.89,0.89,mg/dL,0.6,1.2,NORMAL,,END OF TREATMENT,9,2025-02-02,140
STUDY001,LB,STUDY001-SUBJ0010,88,L00088,BILI,Total Bilirubin,CHEMISTRY,0.44,mg/dL,0.1,1.2,0.44,0.44,mg/dL,0.1,1.2,NORMAL,,END OF TREATMENT,9,2025-02-02,140
STUDY001,LB,STUDY001-SUBJ0010,89,L00089,ALP,Alkaline Phosphatase,CHEMISTRY,110.95,U/L,44.0,147.0,110.95,110.95,U/L,44.0,147.0,NORMAL,,END OF TREATMENT,9,2025-02-02,140
STUDY001,LB,STUDY001-SUBJ0010,90,L00090,ALT,Alanine Aminotransferase,CHEMISTRY,29.79,U/L,7.0,56.0,29.79,29.79,U/L,7.0,56.0,NORMAL,,END OF TREATMENT,9,2025-02-02,140
