STUDYID,DOMAIN,USUBJID,VSSEQ,VSTESTCD,VSTEST,VSORRES,VSORRESU,VSSTRESC,VSSTRESN,VSSTRESU,VSBLFL,VISIT,VISITNUM,VSDTC,VSDY
STUDY001,VS,STUDY001-SUBJ0001,1,HEIGHT,Height,169.3,cm,169.3,169.3,cm,,SCREENING,1,2024-11-18,-14
STUDY001,VS,STUDY001-SUBJ0001,2,WEIGHT,Weight,79.2,kg,79.2,79.2,kg,,SCREENING,1,2024-11-18,-14
STUDY001,VS,STUDY001-SUBJ0001,3,TEMP,Temperature,36.3,C,36.3,36.3,C,,SCREENING,1,2024-11-18,-14
STUDY001,VS,STUDY001-SUBJ0001,4,BP,Blood Pressure,122/93,mmHg,122/93,,mmHg,,SCREENING,1,2024-11-18,-14
STUDY001,VS,STUDY001-SUBJ0001,5,HR,Heart Rate,56,beats/min,56,56.0,beats/min,,SCREENING,1,2024-11-18,-14
STUDY001,VS,STUDY001-SUBJ0001,6,HEIGHT,Height,169.1,cm,169.1,169.1,cm,Y,BASELINE,2,2024-12-02,1
STUDY001,VS,STUDY001-SUBJ0001,7,WEIGHT,Weight,78.2,kg,78.2,78.2,kg,Y,BASELINE,2,2024-12-02,1
STUDY001,VS,STUDY001-SUBJ0001,8,TEMP,Temperature,35.9,C,35.9,35.9,C,Y,BASELINE,2,2024-12-02,1
STUDY001,VS,STUDY001-SUBJ0001,9,BP,Blood Pressure,118/92,mmHg,118/92,,mmHg,Y,BASELINE,2,2024-12-02,1
STUDY001,VS,STUDY001-SUBJ0001,10,HR,Heart Rate,65,beats/min,65,65.0,beats/min,Y,BASELINE,2,2024-12-02,1
STUDY001,VS,STUDY001-SUBJ0001,11,HEIGHT,Height,169.5,cm,169.5,169.5,cm,,WEEK 1,3,2024-12-08,7
STUDY001,VS,STUDY001-SUBJ0001,12,WEIGHT,Weight,77.6,kg,77.6,77.6,kg,,WEEK 1,3,2024-12-08,7
STUDY001,VS,STUDY001-SUBJ0001,13,TEMP,Temperature,36.0,C,36.0,36.0,C,,WEEK 1,3,2024-12-08,7
STUDY001,VS,STUDY001-SUBJ0001,14,BP,Blood Pressure,120/94,mmHg,120/94,,mmHg,,WEEK 1,3,2024-12-08,7
STUDY001,VS,STUDY001-SUBJ0001,15,HR,Heart Rate,59,beats/min,59,59.0,beats/min,,WEEK 1,3,2024-12-08,7
STUDY001,VS,STUDY001-SUBJ0001,16,HEIGHT,Height,169.4,cm,169.4,169.4,cm,,WEEK 2,4,2024-12-15,14
STUDY001,VS,STUDY001-SUBJ0001,17,WEIGHT,Weight,79.3,kg,79.3,79.3,kg,,WEEK 2,4,2024-12-15,14
STUDY001,VS,STUDY001-SUBJ0001,18,TEMP,Temperature,36.2,C,36.2,36.2,C,,WEEK 2,4,2024-12-15,14
STUDY001,VS,STUDY001-SUBJ0001,19,BP,Blood Pressure,116/89,mmHg,116/89,,mmHg,,WEEK 2,4,2024-12-15,14
STUDY001,VS,STUDY001-SUBJ0001,20,HR,Heart Rate,59,beats/min,59,59.0,beats/min,,WEEK 2,4,2024-12-15,14
STUDY001,VS,STUDY001-SUBJ0001,21,HEIGHT,Height,169.4,cm,169.4,169.4,cm,,WEEK 4,5,2024-12-29,28
STUDY001,VS,STUDY001-SUBJ0001,22,WEIGHT,Weight,77.6,kg,77.6,77.6,kg,,WEEK 4,5,2024-12-29,28
STUDY001,VS,STUDY001-SUBJ0001,23,TEMP,Temperature,36.4,C,36.4,36.4,C,,WEEK 4,5,2024-12-29,28
STUDY001,VS,STUDY001-SUBJ0001,24,BP,Blood Pressure,120/91,mmHg,120/91,,mmHg,,WEEK 4,5,2024-12-29,28
STUDY001,VS,STUDY001-SUBJ0001,25,HR,Heart Rate,61,beats/min,61,61.0,beats/min,,WEEK 4,5,2024-12-29,28
STUDY001,VS,STUDY001-SUBJ0001,26,HEIGHT,Height,169.1,cm,169.1,169.1,cm,,WEEK 8,6,2025-01-26,56
STUDY001,VS,STUDY001-SUBJ0001,27,WEIGHT,Weight,78.2,kg,78.2,78.2,kg,,WEEK 8,6,2025-01-26,56
STUDY001,VS,STUDY001-SUBJ0001,28,TEMP,Temperature,36.0,C,36.0,36.0,C,,WEEK 8,6,2025-01-26,56
STUDY001,VS,STUDY001-SUBJ0001,29,BP,Blood Pressure,123/86,mmHg,123/86,,mmHg,,WEEK 8,6,2025-01-26,56
STUDY001,VS,STUDY001-SUBJ0001,30,HR,Heart Rate,60,beats/min,60,60.0,beats/min,,WEEK 8,6,2025-01-26,56
STUDY001,VS,STUDY001-SUBJ0001,31,HEIGHT,Height,169.4,cm,169.4,169.4,cm,,WEEK 12,7,2025-02-23,84
STUDY001,VS,STUDY001-SUBJ0001,32,WEIGHT,Weight,78.3,kg,78.3,78.3,kg,,WEEK 12,7,2025-02-23,84
STUDY001,VS,STUDY001-SUBJ0001,33,TEMP,Temperature,36.5,C,36.5,36.5,C,,WEEK 12,7,2025-02-23,84
STUDY001,VS,STUDY001-SUBJ0001,34,BP,Blood Pressure,117/87,mmHg,117/87,,mmHg,,WEEK 12,7,2025-02-23,84
STUDY001,VS,STUDY001-SUBJ0001,35,HR,Heart Rate,66,beats/min,66,66.0,beats/min,,WEEK 12,7,2025-02-23,84
STUDY001,VS,STUDY001-SUBJ0001,36,HEIGHT,Height,169.2,cm,169.2,169.2,cm,,WEEK 16,8,2025-03-23,112
STUDY001,VS,STUDY001-SUBJ0001,37,WEIGHT,Weight,79.4,kg,79.4,79.4,kg,,WEEK 16,8,2025-03-23,112
STUDY001,VS,STUDY001-SUBJ0001,38,TEMP,Temperature,36.4,C,36.4,36.4,C,,WEEK 16,8,2025-03-23,112
STUDY001,VS,STUDY001-SUBJ0001,39,BP,Blood Pressure,121/93,mmHg,121/93,,mmHg,,WEEK 16,8,2025-03-23,112
STUDY001,VS,STUDY001-SUBJ0001,40,HR,Heart Rate,61,beats/min,61,61.0,beats/min,,WEEK 16,8,2025-03-23,112
STUDY001,VS,STUDY001-SUBJ0001,41,HEIGHT,Height,169.5,cm,169.5,169.5,cm,,END OF TREATMENT,9,2025-04-20,140
STUDY001,VS,STUDY001-SUBJ0001,42,WEIGHT,Weight,77.6,kg,77.6,77.6,kg,,END OF TREATMENT,9,2025-04-20,140
STUDY001,VS,STUDY001-SUBJ0001,43,TEMP,Temperature,36.5,C,36.5,36.5,C,,END OF TREATMENT,9,2025-04-20,140
STUDY001,VS,STUDY001-SUBJ0001,44,BP,Blood Pressure,117/93,mmHg,117/93,,mmHg,,END OF TREATMENT,9,2025-04-20,140
STUDY001,VS,STUDY001-SUBJ0001,45,HR,Heart Rate,66,beats/min,66,66.0,beats/min,,END OF TREATMENT,9,2025-04-20,140
STUDY001,VS,STUDY001-SUBJ0002,1,HEIGHT,Height,193.7,cm,193.7,193.7,cm,,SCREENING,1,2024-11-17,-14
STUDY001,VS,STUDY001-SUBJ0002,2,WEIGHT,Weight,99.6,kg,99.6,99.6,kg,,SCREENING,1,2024-11-17,-14
STUDY001,VS,STUDY001-SUBJ0002,3,TEMP,Temperature,36.3,C,36.3,36.3,C,,SCREENING,1,2024-11-17,-14
STUDY001,VS,STUDY001-SUBJ0002,4,BP,Blood Pressure,135/73,mmHg,135/73,,mmHg,,SCREENING,1,2024-11-17,-14
STUDY001,VS,STUDY001-SUBJ0002,5,HR,Heart Rate,63,beats/min,63,63.0,beats/min,,SCREENING,1,2024-11-17,-14
STUDY001,VS,STUDY001-SUBJ0002,6,HEIGHT,Height,193.7,cm,193.7,193.7,cm,Y,BASELINE,2,2024-12-01,1
STUDY001,VS,STUDY001-SUBJ0002,7,WEIGHT,Weight,100.9,kg,100.9,100.9,kg,Y,BASELINE,2,2024-12-01,1
STUDY001,VS,STUDY001-SUBJ0002,8,TEMP,Temperature,36.4,C,36.4,36.4,C,Y,BASELINE,2,2024-12-01,1
STUDY001,VS,STUDY001-SUBJ0002,9,BP,Blood Pressure,134/78,mmHg,134/78,,mmHg,Y,BASELINE,2,2024-12-01,1
STUDY001,VS,STUDY001-SUBJ0002,10,HR,Heart Rate,66,beats/min,66,66.0,beats/min,Y,BASELINE,2,2024-12-01,1
STUDY001,VS,STUDY001-SUBJ0002,11,HEIGHT,Height,193.5,cm,193.5,193.5,cm,,WEEK 1,3,2024-12-07,7
STUDY001,VS,STUDY001-SUBJ0002,12,WEIGHT,Weight,99.4,kg,99.4,99.4,kg,,WEEK 1,3,2024-12-07,7
STUDY001,VS,STUDY001-SUBJ0002,13,TEMP,Temperature,36.2,C,36.2,36.2,C,,WEEK 1,3,2024-12-07,7
STUDY001,VS,STUDY001-SUBJ0002,14,BP,Blood Pressure,133/73,mmHg,133/73,,mmHg,,WEEK 1,3,2024-12-07,7
STUDY001,VS,STUDY001-SUBJ0002,15,HR,Heart Rate,66,beats/min,66,66.0,beats/min,,WEEK 1,3,2024-12-07,7
STUDY001,VS,STUDY001-SUBJ0002,16,HEIGHT,Height,193.6,cm,193.6,193.6,cm,,WEEK 2,4,2024-12-14,14
STUDY001,VS,STUDY001-SUBJ0002,17,WEIGHT,Weight,99.9,kg,99.9,99.9,kg,,WEEK 2,4,2024-12-14,14
STUDY001,VS,STUDY001-SUBJ0002,18,TEMP,Temperature,36.5,C,36.5,36.5,C,,WEEK 2,4,2024-12-14,14
STUDY001,VS,STUDY001-SUBJ0002,19,BP,Blood Pressure,139/70,mmHg,139/70,,mmHg,,WEEK 2,4,2024-12-14,14
STUDY001,VS,STUDY001-SUBJ0002,20,HR,Heart Rate,69,beats/min,69,69.0,beats/min,,WEEK 2,4,2024-12-14,14
STUDY001,VS,STUDY001-SUBJ0002,21,HEIGHT,Height,193.5,cm,193.5,193.5,cm,,WEEK 4,5,2024-12-28,28
STUDY001,VS,STUDY001-SUBJ0002,22,WEIGHT,Weight,100.2,kg,100.2,100.2,kg,,WEEK 4,5,2024-12-28,28
STUDY001,VS,STUDY001-SUBJ0002,23,TEMP,Temperature,36.4,C,36.4,36.4,C,,WEEK 4,5,2024-12-28,28
STUDY001,VS,STUDY001-SUBJ0002,24,BP,Blood Pressure,135/77,mmHg,135/77,,mmHg,,WEEK 4,5,2024-12-28,28
STUDY001,VS,STUDY001-SUBJ0002,25,HR,Heart Rate,62,beats/min,62,62.0,beats/min,,WEEK 4,5,2024-12-28,28
STUDY001,VS,STUDY001-SUBJ0002,26,HEIGHT,Height,193.7,cm,193.7,193.7,cm,,WEEK 8,6,2025-01-25,56
STUDY001,VS,STUDY001-SUBJ0002,27,WEIGHT,Weight,99.7,kg,99.7,99.7,kg,,WEEK 8,6,2025-01-25,56
STUDY001,VS,STUDY001-SUBJ0002,28,TEMP,Temperature,36.6,C,36.6,36.6,C,,WEEK 8,6,2025-01-25,56
STUDY001,VS,STUDY001-SUBJ0002,29,BP,Blood Pressure,135/75,mmHg,135/75,,mmHg,,WEEK 8,6,2025-01-25,56
STUDY001,VS,STUDY001-SUBJ0002,30,HR,Heart Rate,66,beats/min,66,66.0,beats/min,,WEEK 8,6,2025-01-25,56
STUDY001,VS,STUDY001-SUBJ0002,31,HEIGHT,Height,193.8,cm,193.8,193.8,cm,,WEEK 12,7,2025-02-22,84
STUDY001,VS,STUDY001-SUBJ0002,32,WEIGHT,Weight,99.5,kg,99.5,99.5,kg,,WEEK 12,7,2025-02-22,84
STUDY001,VS,STUDY001-SUBJ0002,33,TEMP,Temperature,36.2,C,36.2,36.2,C,,WEEK 12,7,2025-02-22,84
STUDY001,VS,STUDY001-SUBJ0002,34,BP,Blood Pressure,137/73,mmHg,137/73,,mmHg,,WEEK 12,7,2025-02-22,84
STUDY001,VS,STUDY001-SUBJ0002,35,HR,Heart Rate,64,beats/min,64,64.0,beats/min,,WEEK 12,7,2025-02-22,84
STUDY001,VS,STUDY001-SUBJ0002,36,HEIGHT,Height,193.9,cm,193.9,193.9,cm,,WEEK 16,8,2025-03-22,112
STUDY001,VS,STUDY001-SUBJ0002,37,WEIGHT,Weight,101.0,kg,101.0,101.0,kg,,WEEK 16,8,2025-03-22,112
STUDY001,VS,STUDY001-SUBJ0002,38,TEMP,Temperature,36.2,C,36.2,36.2,C,,WEEK 16,8,2025-03-22,112
STUDY001,VS,STUDY001-SUBJ0002,39,BP,Blood Pressure,137/73,mmHg,137/73,,mmHg,,WEEK 16,8,2025-03-22,112
STUDY001,VS,STUDY001-SUBJ0002,40,HR,Heart Rate,65,beats/min,65,65.0,beats/min,,WEEK 16,8,2025-03-22,112
STUDY001,VS,STUDY001-SUBJ0002,41,HEIGHT,Height,193.7,cm,193.7,193.7,cm,,END OF TREATMENT,9,2025-04-19,140
STUDY001,VS,STUDY001-SUBJ0002,42,WEIGHT,Weight,100.4,kg,100.4,100.4,kg,,END OF TREATMENT,9,2025-04-19,140
STUDY001,VS,STUDY001-SUBJ0002,43,TEMP,Temperature,36.3,C,36.3,36.3,C,,END OF TREATMENT,9,2025-04-19,140
STUDY001,VS,STUDY001-SUBJ0002,44,BP,Blood Pressure,135/75,mmHg,135/75,,mmHg,,END OF TREATMENT,9,2025-04-19,140
STUDY001,VS,STUDY001-SUBJ0002,45,HR,Heart Rate,65,beats/min,65,65.0,beats/min,,END OF TREATMENT,9,2025-04-19,140
STUDY001,VS,STUDY001-SUBJ0003,1,HEIGHT,Height,181.0,cm,181.0,181.0,cm,,SCREENING,1,2024-10-06,-14
STUDY001,VS,STUDY001-SUBJ0003,2,WEIGHT,Weight,90.1,kg,90.1,90.1,kg,,SCREENING,1,2024-10-06,-14
STUDY001,VS,STUDY001-SUBJ0003,3,TEMP,Temperature,36.6,C,36.6,36.6,C,,SCREENING,1,2024-10-06,-14
STUDY001,VS,STUDY001-SUBJ0003,4,BP,Blood Pressure,137/76,mmHg,137/76,,mmHg,,SCREENING,1,2024-10-06,-14
STUDY001,VS,STUDY001-SUBJ0003,5,HR,Heart Rate,85,beats/min,85,85.0,beats/min,,SCREENING,1,2024-10-06,-14
STUDY001,VS,STUDY001-SUBJ0003,6,HEIGHT,Height,181.2,cm,181.2,181.2,cm,Y,BASELINE,2,2024-10-20,1
STUDY001,VS,STUDY001-SUBJ0003,7,WEIGHT,Weight,91.7,kg,91.7,91.7,kg,Y,BASELINE,2,2024-10-20,1
STUDY001,VS,STUDY001-SUBJ0003,8,TEMP,Temperature,36.6,C,36.6,36.6,C,Y,BASELINE,2,2024-10-20,1
STUDY001,VS,STUDY001-SUBJ0003,9,BP,Blood Pressure,136/75,mmHg,136/75,,mmHg,Y,BASELINE,2,2024-10-20,1
STUDY001,VS,STUDY001-SUBJ0003,10,HR,Heart Rate,87,beats/min,87,87.0,beats/min,Y,BASELINE,2,2024-10-20,1
STUDY001,VS,STUDY001-SUBJ0003,11,HEIGHT,Height,181.1,cm,181.1,181.1,cm,,WEEK 1,3,2024-10-26,7
STUDY001,VS,STUDY001-SUBJ0003,12,WEIGHT,Weight,90.5,kg,90.5,90.5,kg,,WEEK 1,3,2024-10-26,7
STUDY001,VS,STUDY001-SUBJ0003,13,TEMP,Temperature,37.0,C,37.0,37.0,C,,WEEK 1,3,2024-10-26,7
STUDY001,VS,STUDY001-SUBJ0003,14,BP,Blood Pressure,138/71,mmHg,138/71,,mmHg,,WEEK 1,3,2024-10-26,7
STUDY001,VS,STUDY001-SUBJ0003,15,HR,Heart Rate,90,beats/min,90,90.0,beats/min,,WEEK 1,3,2024-10-26,7
STUDY001,VS,STUDY001-SUBJ0003,16,HEIGHT,Height,181.2,cm,181.2,181.2,cm,,WEEK 2,4,2024-11-02,14
STUDY001,VS,STUDY001-SUBJ0003,17,WEIGHT,Weight,91.4,kg,91.4,91.4,kg,,WEEK 2,4,2024-11-02,14
STUDY001,VS,STUDY001-SUBJ0003,18,TEMP,Temperature,36.8,C,36.8,36.8,C,,WEEK 2,4,2024-11-02,14
STUDY001,VS,STUDY001-SUBJ0003,19,BP,Blood Pressure,140/68,mmHg,140/68,,mmHg,,WEEK 2,4,2024-11-02,14
STUDY001,VS,STUDY001-SUBJ0003,20,HR,Heart Rate,90,beats/min,90,90.0,beats/min,,WEEK 2,4,2024-11-02,14
STUDY001,VS,STUDY001-SUBJ0003,21,HEIGHT,Height,181.0,cm,181.0,181.0,cm,,WEEK 4,5,2024-11-16,28
STUDY001,VS,STUDY001-SUBJ0003,22,WEIGHT,Weight,90.7,kg,90.7,90.7,kg,,WEEK 4,5,2024-11-16,28
STUDY001,VS,STUDY001-SUBJ0003,23,TEMP,Temperature,36.6,C,36.6,36.6,C,,WEEK 4,5,2024-11-16,28
STUDY001,VS,STUDY001-SUBJ0003,24,BP,Blood Pressure,134/76,mmHg,134/76,,mmHg,,WEEK 4,5,2024-11-16,28
STUDY001,VS,STUDY001-SUBJ0003,25,HR,Heart Rate,84,beats/min,84,84.0,beats/min,,WEEK 4,5,2024-11-16,28
STUDY001,VS,STUDY001-SUBJ0003,26,HEIGHT,Height,180.9,cm,180.9,180.9,cm,,WEEK 8,6,2024-12-14,56
STUDY001,VS,STUDY001-SUBJ0003,27,WEIGHT,Weight,91.7,kg,91.7,91.7,kg,,WEEK 8,6,2024-12-14,56
STUDY001,VS,STUDY001-SUBJ0003,28,TEMP,Temperature,37.1,C,37.1,37.1,C,,WEEK 8,6,2024-12-14,56
STUDY001,VS,STUDY001-SUBJ0003,29,BP,Blood Pressure,142/74,mmHg,142/74,,mmHg,,WEEK 8,6,2024-12-14,56
STUDY001,VS,STUDY001-SUBJ0003,30,HR,Heart Rate,88,beats/min,88,88.0,beats/min,,WEEK 8,6,2024-12-14,56
STUDY001,VS,STUDY001-SUBJ0003,31,HEIGHT,Height,181.0,cm,181.0,181.0,cm,,WEEK 12,7,2025-01-11,84
STUDY001,VS,STUDY001-SUBJ0003,32,WEIGHT,Weight,91.1,kg,91.1,91.1,kg,,WEEK 12,7,2025-01-11,84
STUDY001,VS,STUDY001-SUBJ0003,33,TEMP,Temperature,36.7,C,36.7,36.7,C,,WEEK 12,7,2025-01-11,84
STUDY001,VS,STUDY001-SUBJ0003,34,BP,Blood Pressure,135/74,mmHg,135/74,,mmHg,,WEEK 12,7,2025-01-11,84
STUDY001,VS,STUDY001-SUBJ0003,35,HR,Heart Rate,85,beats/min,85,85.0,beats/min,,WEEK 12,7,2025-01-11,84
STUDY001,VS,STUDY001-SUBJ0003,36,HEIGHT,Height,181.0,cm,181.0,181.0,cm,,WEEK 16,8,2025-02-08,112
STUDY001,VS,STUDY001-SUBJ0003,37,WEIGHT,Weight,89.9,kg,89.9,89.9,kg,,WEEK 16,8,2025-02-08,112
STUDY001,VS,STUDY001-SUBJ0003,38,TEMP,Temperature,37.0,C,37.0,37.0,C,,WEEK 16,8,2025-02-08,112
STUDY001,VS,STUDY001-SUBJ0003,39,BP,Blood Pressure,136/70,mmHg,136/70,,mmHg,,WEEK 16,8,2025-02-08,112
STUDY001,VS,STUDY001-SUBJ0003,40,HR,Heart Rate,87,beats/min,87,87.0,beats/min,,WEEK 16,8,2025-02-08,112
STUDY001,VS,STUDY001-SUBJ0003,41,HEIGHT,Height,180.8,cm,180.8,180.8,cm,,END OF TREATMENT,9,2025-03-08,140
STUDY001,VS,STUDY001-SUBJ0003,42,WEIGHT,Weight,90.7,kg,90.7,90.7,kg,,END OF TREATMENT,9,2025-03-08,140
STUDY001,VS,STUDY001-SUBJ0003,43,TEMP,Temperature,36.7,C,36.7,36.7,C,,END OF TREATMENT,9,2025-03-08,140
STUDY001,VS,STUDY001-SUBJ0003,44,BP,Blood Pressure,137/68,mmHg,137/68,,mmHg,,END OF TREATMENT,9,2025-03-08,140
STUDY001,VS,STUDY001-SUBJ0003,45,HR,Heart Rate,82,beats/min,82,82.0,beats/min,,END OF TREATMENT,9,2025-03-08,140
STUDY001,VS,STUDY001-SUBJ0004,1,HEIGHT,Height,157.6,cm,157.6,157.6,cm,,SCREENING,1,2024-11-21,-14
STUDY001,VS,STUDY001-SUBJ0004,2,WEIGHT,Weight,83.0,kg,83.0,83.0,kg,,SCREENING,1,2024-11-21,-14
STUDY001,VS,STUDY001-SUBJ0004,3,TEMP,Temperature,36.4,C,36.4,36.4,C,,SCREENING,1,2024-11-21,-14
STUDY001,VS,STUDY001-SUBJ0004,4,BP,Blood Pressure,116/74,mmHg,116/74,,mmHg,,SCREENING,1,2024-11-21,-14
STUDY001,VS,STUDY001-SUBJ0004,5,HR,Heart Rate,62,beats/min,62,62.0,beats/min,,SCREENING,1,2024-11-21,-14
STUDY001,VS,STUDY001-SUBJ0004,6,HEIGHT,Height,157.8,cm,157.8,157.8,cm,Y,BASELINE,2,2024-12-05,1
STUDY001,VS,STUDY001-SUBJ0004,7,WEIGHT,Weight,83.4,kg,83.4,83.4,kg,Y,BASELINE,2,2024-12-05,1
STUDY001,VS,STUDY001-SUBJ0004,8,TEMP,Temperature,36.3,C,36.3,36.3,C,Y,BASELINE,2,2024-12-05,1
STUDY001,VS,STUDY001-SUBJ0004,9,BP,Blood Pressure,116/73,mmHg,116/73,,mmHg,Y,BASELINE,2,2024-12-05,1
STUDY001,VS,STUDY001-SUBJ0004,10,HR,Heart Rate,58,beats/min,58,58.0,beats/min,Y,BASELINE,2,2024-12-05,1
STUDY001,VS,STUDY001-SUBJ0004,11,HEIGHT,Height,157.7,cm,157.7,157.7,cm,,WEEK 1,3,2024-12-11,7
STUDY001,VS,STUDY001-SUBJ0004,12,WEIGHT,Weight,84.1,kg,84.1,84.1,kg,,WEEK 1,3,2024-12-11,7
STUDY001,VS,STUDY001-SUBJ0004,13,TEMP,Temperature,36.4,C,36.4,36.4,C,,WEEK 1,3,2024-12-11,7
STUDY001,VS,STUDY001-SUBJ0004,14,BP,Blood Pressure,114/74,mmHg,114/74,,mmHg,,WEEK 1,3,2024-12-11,7
STUDY001,VS,STUDY001-SUBJ0004,15,HR,Heart Rate,62,beats/min,62,62.0,beats/min,,WEEK 1,3,2024-12-11,7
STUDY001,VS,STUDY001-SUBJ0004,16,HEIGHT,Height,157.8,cm,157.8,157.8,cm,,WEEK 2,4,2024-12-18,14
STUDY001,VS,STUDY001-SUBJ0004,17,WEIGHT,Weight,84.3,kg,84.3,84.3,kg,,WEEK 2,4,2024-12-18,14
STUDY001,VS,STUDY001-SUBJ0004,18,TEMP,Temperature,36.1,C,36.1,36.1,C,,WEEK 2,4,2024-12-18,14
STUDY001,VS,STUDY001-SUBJ0004,19,BP,Blood Pressure,109/73,mmHg,109/73,,mmHg,,WEEK 2,4,2024-12-18,14
STUDY001,VS,STUDY001-SUBJ0004,20,HR,Heart Rate,58,beats/min,58,58.0,beats/min,,WEEK 2,4,2024-12-18,14
STUDY001,VS,STUDY001-SUBJ0004,21,HEIGHT,Height,157.7,cm,157.7,157.7,cm,,WEEK 4,5,2025-01-01,28
STUDY001,VS,STUDY001-SUBJ0004,22,WEIGHT,Weight,83.8,kg,83.8,83.8,kg,,WEEK 4,5,2025-01-01,28
STUDY001,VS,STUDY001-SUBJ0004,23,TEMP,Temperature,36.3,C,36.3,36.3,C,,WEEK 4,5,2025-01-01,28
STUDY001,VS,STUDY001-SUBJ0004,24,BP,Blood Pressure,113/70,mmHg,113/70,,mmHg,,WEEK 4,5,2025-01-01,28
STUDY001,VS,STUDY001-SUBJ0004,25,HR,Heart Rate,59,beats/min,59,59.0,beats/min,,WEEK 4,5,2025-01-01,28
STUDY001,VS,STUDY001-SUBJ0004,26,HEIGHT,Height,157.6,cm,157.6,157.6,cm,,WEEK 8,6,2025-01-29,56
STUDY001,VS,STUDY001-SUBJ0004,27,WEIGHT,Weight,84.7,kg,84.7,84.7,kg,,WEEK 8,6,2025-01-29,56
STUDY001,VS,STUDY001-SUBJ0004,28,TEMP,Temperature,36.3,C,36.3,36.3,C,,WEEK 8,6,2025-01-29,56
STUDY001,VS,STUDY001-SUBJ0004,29,BP,Blood Pressure,115/75,mmHg,115/75,,mmHg,,WEEK 8,6,2025-01-29,56
STUDY001,VS,STUDY001-SUBJ0004,30,HR,Heart Rate,57,beats/min,57,57.0,beats/min,,WEEK 8,6,2025-01-29,56
STUDY001,VS,STUDY001-SUBJ0004,31,HEIGHT,Height,157.6,cm,157.6,157.6,cm,,WEEK 12,7,2025-02-26,84
STUDY001,VS,STUDY001-SUBJ0004,32,WEIGHT,Weight,84.4,kg,84.4,84.4,kg,,WEEK 12,7,2025-02-26,84
STUDY001,VS,STUDY001-SUBJ0004,33,TEMP,Temperature,36.6,C,36.6,36.6,C,,WEEK 12,7,2025-02-26,84
STUDY001,VS,STUDY001-SUBJ0004,34,BP,Blood Pressure,111/74,mmHg,111/74,,mmHg,,WEEK 12,7,2025-02-26,84
STUDY001,VS,STUDY001-SUBJ0004,35,HR,Heart Rate,57,beats/min,57,57.0,beats/min,,WEEK 12,7,2025-02-26,84
STUDY001,VS,STUDY001-SUBJ0004,36,HEIGHT,Height,157.4,cm,157.4,157.4,cm,,WEEK 16,8,2025-03-26,112
STUDY001,VS,STUDY001-SUBJ0004,37,WEIGHT,Weight,84.1,kg,84.1,84.1,kg,,WEEK 16,8,2025-03-26,112
STUDY001,VS,STUDY001-SUBJ0004,38,TEMP,Temperature,36.2,C,36.2,36.2,C,,WEEK 16,8,2025-03-26,112
STUDY001,VS,STUDY001-SUBJ0004,39,BP,Blood Pressure,113/75,mmHg,113/75,,mmHg,,WEEK 16,8,2025-03-26,112
STUDY001,VS,STUDY001-SUBJ0004,40,HR,Heart Rate,60,beats/min,60,60.0,beats/min,,WEEK 16,8,2025-03-26,112
STUDY001,VS,STUDY001-SUBJ0004,41,HEIGHT,Height,157.6,cm,157.6,157.6,cm,,END OF TREATMENT,9,2025-04-23,140
STUDY001,VS,STUDY001-SUBJ0004,42,WEIGHT,Weight,83.7,kg,83.7,83.7,kg,,END OF TREATMENT,9,2025-04-23,140
STUDY001,VS,STUDY001-SUBJ0004,43,TEMP,Temperature,36.3,C,36.3,36.3,C,,END OF TREATMENT,9,2025-04-23,140
STUDY001,VS,STUDY001-SUBJ0004,44,BP,Blood Pressure,107/67,mmHg,107/67,,mmHg,,END OF TREATMENT,9,2025-04-23,140
STUDY001,VS,STUDY001-SUBJ0004,45,HR,Heart Rate,62,beats/min,62,62.0,beats/min,,END OF TREATMENT,9,2025-04-23,140
STUDY001,VS,STUDY001-SUBJ0005,1,HEIGHT,Height,165.8,cm,165.8,165.8,cm,,SCREENING,1,2025-01-23,-14
STUDY001,VS,STUDY001-SUBJ0005,2,WEIGHT,Weight,102.8,kg,102.8,102.8,kg,,SCREENING,1,2025-01-23,-14
STUDY001,VS,STUDY001-SUBJ0005,3,TEMP,Temperature,36.1,C,36.1,36.1,C,,SCREENING,1,2025-01-23,-14
STUDY001,VS,STUDY001-SUBJ0005,4,BP,Blood Pressure,112/98,mmHg,112/98,,mmHg,,SCREENING,1,2025-01-23,-14
STUDY001,VS,STUDY001-SUBJ0005,5,HR,Heart Rate,72,beats/min,72,72.0,beats/min,,SCREENING,1,2025-01-23,-14
STUDY001,VS,STUDY001-SUBJ0005,6,HEIGHT,Height,166.0,cm,166.0,166.0,cm,Y,BASELINE,2,2025-02-06,1
STUDY001,VS,STUDY001-SUBJ0005,7,WEIGHT,Weight,103.8,kg,103.8,103.8,kg,Y,BASELINE,2,2025-02-06,1
STUDY001,VS,STUDY001-SUBJ0005,8,TEMP,Temperature,36.3,C,36.3,36.3,C,Y,BASELINE,2,2025-02-06,1
STUDY001,VS,STUDY001-SUBJ0005,9,BP,Blood Pressure,104/93,mmHg,104/93,,mmHg,Y,BASELINE,2,2025-02-06,1
STUDY001,VS,STUDY001-SUBJ0005,10,HR,Heart Rate,73,beats/min,73,73.0,beats/min,Y,BASELINE,2,2025-02-06,1
STUDY001,VS,STUDY001-SUBJ0005,11,HEIGHT,Height,165.7,cm,165.7,165.7,cm,,WEEK 1,3,2025-02-12,7
STUDY001,VS,STUDY001-SUBJ0005,12,WEIGHT,Weight,102.6,kg,102.6,102.6,kg,,WEEK 1,3,2025-02-12,7
STUDY001,VS,STUDY001-SUBJ0005,13,TEMP,Temperature,36.3,C,36.3,36.3,C,,WEEK 1,3,2025-02-12,7
STUDY001,VS,STUDY001-SUBJ0005,14,BP,Blood Pressure,113/94,mmHg,113/94,,mmHg,,WEEK 1,3,2025-02-12,7
STUDY001,VS,STUDY001-SUBJ0005,15,HR,Heart Rate,74,beats/min,74,74.0,beats/min,,WEEK 1,3,2025-02-12,7
STUDY001,VS,STUDY001-SUBJ0005,16,HEIGHT,Height,165.8,cm,165.8,165.8,cm,,WEEK 2,4,2025-02-19,14
STUDY001,VS,STUDY001-SUBJ0005,17,WEIGHT,Weight,102.5,kg,102.5,102.5,kg,,WEEK 2,4,2025-02-19,14
STUDY001,VS,STUDY001-SUBJ0005,18,TEMP,Temperature,36.4,C,36.4,36.4,C,,WEEK 2,4,2025-02-19,14
STUDY001,VS,STUDY001-SUBJ0005,19,BP,Blood Pressure,105/92,mmHg,105/92,,mmHg,,WEEK 2,4,2025-02-19,14
STUDY001,VS,STUDY001-SUBJ0005,20,HR,Heart Rate,79,beats/min,79,79.0,beats/min,,WEEK 2,4,2025-02-19,14
STUDY001,VS,STUDY001-SUBJ0005,21,HEIGHT,Height,165.9,cm,165.9,165.9,cm,,WEEK 4,5,2025-03-05,28
STUDY001,VS,STUDY001-SUBJ0005,22,WEIGHT,Weight,103.3,kg,103.3,103.3,kg,,WEEK 4,5,2025-03-05,28
STUDY001,VS,STUDY001-SUBJ0005,23,TEMP,Temperature,36.0,C,36.0,36.0,C,,WEEK 4,5,2025-03-05,28
STUDY001,VS,STUDY001-SUBJ0005,24,BP,Blood Pressure,106/91,mmHg,106/91,,mmHg,,WEEK 4,5,2025-03-05,28
STUDY001,VS,STUDY001-SUBJ0005,25,HR,Heart Rate,77,beats/min,77,77.0,beats/min,,WEEK 4,5,2025-03-05,28
STUDY001,VS,STUDY001-SUBJ0005,26,HEIGHT,Height,165.8,cm,165.8,165.8,cm,,WEEK 8,6,2025-04-02,56
STUDY001,VS,STUDY001-SUBJ0005,27,WEIGHT,Weight,103.8,kg,103.8,103.8,kg,,WEEK 8,6,2025-04-02,56
STUDY001,VS,STUDY001-SUBJ0005,28,TEMP,Temperature,36.1,C,36.1,36.1,C,,WEEK 8,6,2025-04-02,56
STUDY001,VS,STUDY001-SUBJ0005,29,BP,Blood Pressure,111/94,mmHg,111/94,,mmHg,,WEEK 8,6,2025-04-02,56
STUDY001,VS,STUDY001-SUBJ0005,30,HR,Heart Rate,72,beats/min,72,72.0,beats/min,,WEEK 8,6,2025-04-02,56
STUDY001,VS,STUDY001-SUBJ0005,31,HEIGHT,Height,165.9,cm,165.9,165.9,cm,,WEEK 12,7,2025-04-30,84
STUDY001,VS,STUDY001-SUBJ0005,32,WEIGHT,Weight,102.9,kg,102.9,102.9,kg,,WEEK 12,7,2025-04-30,84
STUDY001,VS,STUDY001-SUBJ0005,33,TEMP,Temperature,36.1,C,36.1,36.1,C,,WEEK 12,7,2025-04-30,84
STUDY001,VS,STUDY001-SUBJ0005,34,BP,Blood Pressure,110/91,mmHg,110/91,,mmHg,,WEEK 12,7,2025-04-30,84
STUDY001,VS,STUDY001-SUBJ0005,35,HR,Heart Rate,76,beats/min,76,76.0,beats/min,,WEEK 12,7,2025-04-30,84
STUDY001,VS,STUDY001-SUBJ0005,36,HEIGHT,Height,166.0,cm,166.0,166.0,cm,,WEEK 16,8,2025-05-28,112
STUDY001,VS,STUDY001-SUBJ0005,37,WEIGHT,Weight,102.7,kg,102.7,102.7,kg,,WEEK 16,8,2025-05-28,112
STUDY001,VS,STUDY001-SUBJ0005,38,TEMP,Temperature,36.3,C,36.3,36.3,C,,WEEK 16,8,2025-05-28,112
STUDY001,VS,STUDY001-SUBJ0005,39,BP,Blood Pressure,107/93,mmHg,107/93,,mmHg,,WEEK 16,8,2025-05-28,112
STUDY001,VS,STUDY001-SUBJ0005,40,HR,Heart Rate,76,beats/min,76,76.0,beats/min,,WEEK 16,8,2025-05-28,112
STUDY001,VS,STUDY001-SUBJ0005,41,HEIGHT,Height,165.7,cm,165.7,165.7,cm,,END OF TREATMENT,9,2025-06-25,140
STUDY001,VS,STUDY001-SUBJ0005,42,WEIGHT,Weight,102.4,kg,102.4,102.4,kg,,END OF TREATMENT,9,2025-06-25,140
STUDY001,VS,STUDY001-SUBJ0005,43,TEMP,Temperature,36.1,C,36.1,36.1,C,,END OF TREATMENT,9,2025-06-25,140
STUDY001,VS,STUDY001-SUBJ0005,44,BP,Blood Pressure,111/99,mmHg,111/99,,mmHg,,END OF TREATMENT,9,2025-06-25,140
STUDY001,VS,STUDY001-SUBJ0005,45,HR,Heart Rate,73,beats/min,73,73.0,beats/min,,END OF TREATMENT,9,2025-06-25,140
STUDY001,VS,STUDY001-SUBJ0006,1,HEIGHT,Height,194.2,cm,194.2,194.2,cm,,SCREENING,1,2024-08-22,-14
STUDY001,VS,STUDY001-SUBJ0006,2,WEIGHT,Weight,59.9,kg,59.9,59.9,kg,,SCREENING,1,2024-08-22,-14
STUDY001,VS,STUDY001-SUBJ0006,3,TEMP,Temperature,36.9,C,36.9,36.9,C,,SCREENING,1,2024-08-22,-14
STUDY001,VS,STUDY001-SUBJ0006,4,BP,Blood Pressure,131/67,mmHg,131/67,,mmHg,,SCREENING,1,2024-08-22,-14
STUDY001,VS,STUDY001-SUBJ0006,5,HR,Heart Rate,64,beats/min,64,64.0,beats/min,,SCREENING,1,2024-08-22,-14
STUDY001,VS,STUDY001-SUBJ0006,6,HEIGHT,Height,194.4,cm,194.4,194.4,cm,Y,BASELINE,2,2024-09-05,1
STUDY001,VS,STUDY001-SUBJ0006,7,WEIGHT,Weight,60.2,kg,60.2,60.2,kg,Y,BASELINE,2,2024-09-05,1
STUDY001,VS,STUDY001-SUBJ0006,8,TEMP,Temperature,37.2,C,37.2,37.2,C,Y,BASELINE,2,2024-09-05,1
STUDY001,VS,STUDY001-SUBJ0006,9,BP,Blood Pressure,138/74,mmHg,138/74,,mmHg,Y,BASELINE,2,2024-09-05,1
STUDY001,VS,STUDY001-SUBJ0006,10,HR,Heart Rate,65,beats/min,65,65.0,beats/min,Y,BASELINE,2,2024-09-05,1
STUDY001,VS,STUDY001-SUBJ0006,11,HEIGHT,Height,194.3,cm,194.3,194.3,cm,,WEEK 1,3,2024-09-11,7
STUDY001,VS,STUDY001-SUBJ0006,12,WEIGHT,Weight,58.8,kg,58.8,58.8,kg,,WEEK 1,3,2024-09-11,7
STUDY001,VS,STUDY001-SUBJ0006,13,TEMP,Temperature,37.2,C,37.2,37.2,C,,WEEK 1,3,2024-09-11,7
STUDY001,VS,STUDY001-SUBJ0006,14,BP,Blood Pressure,131/74,mmHg,131/74,,mmHg,,WEEK 1,3,2024-09-11,7
STUDY001,VS,STUDY001-SUBJ0006,15,HR,Heart Rate,65,beats/min,65,65.0,beats/min,,WEEK 1,3,2024-09-11,7
STUDY001,VS,STUDY001-SUBJ0006,16,HEIGHT,Height,194.1,cm,194.1,194.1,cm,,WEEK 2,4,2024-09-18,14
STUDY001,VS,STUDY001-SUBJ0006,17,WEIGHT,Weight,59.2,kg,59.2,59.2,kg,,WEEK 2,4,2024-09-18,14
STUDY001,VS,STUDY001-SUBJ0006,18,TEMP,Temperature,36.8,C,36.8,36.8,C,,WEEK 2,4,2024-09-18,14
STUDY001,VS,STUDY001-SUBJ0006,19,BP,Blood Pressure,132/65,mmHg,132/65,,mmHg,,WEEK 2,4,2024-09-18,14
STUDY001,VS,STUDY001-SUBJ0006,20,HR,Heart Rate,62,beats/min,62,62.0,beats/min,,WEEK 2,4,2024-09-18,14
STUDY001,VS,STUDY001-SUBJ0006,21,HEIGHT,Height,194.2,cm,194.2,194.2,cm,,WEEK 4,5,2024-10-02,28
STUDY001,VS,STUDY001-SUBJ0006,22,WEIGHT,Weight,59.8,kg,59.8,59.8,kg,,WEEK 4,5,2024-10-02,28
STUDY001,VS,STUDY001-SUBJ0006,23,TEMP,Temperature,37.2,C,37.2,37.2,C,,WEEK 4,5,2024-10-02,28
STUDY001,VS,STUDY001-SUBJ0006,24,BP,Blood Pressure,131/72,mmHg,131/72,,mmHg,,WEEK 4,5,2024-10-02,28
STUDY001,VS,STUDY001-SUBJ0006,25,HR,Heart Rate,56,beats/min,56,56.0,beats/min,,WEEK 4,5,2024-10-02,28
STUDY001,VS,STUDY001-SUBJ0006,26,HEIGHT,Height,194.2,cm,194.2,194.2,cm,,WEEK 8,6,2024-10-30,56
STUDY001,VS,STUDY001-SUBJ0006,27,WEIGHT,Weight,59.9,kg,59.9,59.9,kg,,WEEK 8,6,2024-10-30,56
STUDY001,VS,STUDY001-SUBJ0006,28,TEMP,Temperature,36.7,C,36.7,36.7,C,,WEEK 8,6,2024-10-30,56
STUDY001,VS,STUDY001-SUBJ0006,29,BP,Blood Pressure,134/68,mmHg,134/68,,mmHg,,WEEK 8,6,2024-10-30,56
STUDY001,VS,STUDY001-SUBJ0006,30,HR,Heart Rate,60,beats/min,60,60.0,beats/min,,WEEK 8,6,2024-10-30,56
STUDY001,VS,STUDY001-SUBJ0006,31,HEIGHT,Height,194.2,cm,194.2,194.2,cm,,WEEK 12,7,2024-11-27,84
STUDY001,VS,STUDY001-SUBJ0006,32,WEIGHT,Weight,59.5,kg,59.5,59.5,kg,,WEEK 12,7,2024-11-27,84
STUDY001,VS,STUDY001-SUBJ0006,33,TEMP,Temperature,36.8,C,36.8,36.8,C,,WEEK 12,7,2024-11-27,84
STUDY001,VS,STUDY001-SUBJ0006,34,BP,Blood Pressure,133/70,mmHg,133/70,,mmHg,,WEEK 12,7,2024-11-27,84
STUDY001,VS,STUDY001-SUBJ0006,35,HR,Heart Rate,64,beats/min,64,64.0,beats/min,,WEEK 12,7,2024-11-27,84
STUDY001,VS,STUDY001-SUBJ0006,36,HEIGHT,Height,194.1,cm,194.1,194.1,cm,,WEEK 16,8,2024-12-25,112
STUDY001,VS,STUDY001-SUBJ0006,37,WEIGHT,Weight,60.2,kg,60.2,60.2,kg,,WEEK 16,8,2024-12-25,112
STUDY001,VS,STUDY001-SUBJ0006,38,TEMP,Temperature,37.1,C,37.1,37.1,C,,WEEK 16,8,2024-12-25,112
STUDY001,VS,STUDY001-SUBJ0006,39,BP,Blood Pressure,133/74,mmHg,133/74,,mmHg,,WEEK 16,8,2024-12-25,112
STUDY001,VS,STUDY001-SUBJ0006,40,HR,Heart Rate,62,beats/min,62,62.0,beats/min,,WEEK 16,8,2024-12-25,112
STUDY001,VS,STUDY001-SUBJ0006,41,HEIGHT,Height,194.3,cm,194.3,194.3,cm,,END OF TREATMENT,9,2025-01-22,140
STUDY001,VS,STUDY001-SUBJ0006,42,WEIGHT,Weight,59.7,kg,59.7,59.7,kg,,END OF TREATMENT,9,2025-01-22,140
STUDY001,VS,STUDY001-SUBJ0006,43,TEMP,Temperature,36.9,C,36.9,36.9,C,,END OF TREATMENT,9,2025-01-22,140
STUDY001,VS,STUDY001-SUBJ0006,44,BP,Blood Pressure,131/69,mmHg,131/69,,mmHg,,END OF TREATMENT,9,2025-01-22,140
STUDY001,VS,STUDY001-SUBJ0006,45,HR,Heart Rate,56,beats/min,56,56.0,beats/min,,END OF TREATMENT,9,2025-01-22,140
STUDY001,VS,STUDY001-SUBJ0007,1,HEIGHT,Height,196.3,cm,196.3,196.3,cm,,SCREENING,1,2024-11-02,-14
STUDY001,VS,STUDY001-SUBJ0007,2,WEIGHT,Weight,73.0,kg,73.0,73.0,kg,,SCREENING,1,2024-11-02,-14
STUDY001,VS,STUDY001-SUBJ0007,3,TEMP,Temperature,36.7,C,36.7,36.7,C,,SCREENING,1,2024-11-02,-14
STUDY001,VS,STUDY001-SUBJ0007,4,BP,Blood Pressure,132/101,mmHg,132/101,,mmHg,,SCREENING,1,2024-11-02,-14
STUDY001,VS,STUDY001-SUBJ0007,5,HR,Heart Rate,65,beats/min,65,65.0,beats/min,,SCREENING,1,2024-11-02,-14
STUDY001,VS,STUDY001-SUBJ0007,6,HEIGHT,Height,196.2,cm,196.2,196.2,cm,Y,BASELINE,2,2024-11-16,1
STUDY001,VS,STUDY001-SUBJ0007,7,WEIGHT,Weight,73.4,kg,73.4,73.4,kg,Y,BASELINE,2,2024-11-16,1
STUDY001,VS,STUDY001-SUBJ0007,8,TEMP,Temperature,36.6,C,36.6,36.6,C,Y,BASELINE,2,2024-11-16,1
STUDY001,VS,STUDY001-SUBJ0007,9,BP,Blood Pressure,126/98,mmHg,126/98,,mmHg,Y,BASELINE,2,2024-11-16,1
STUDY001,VS,STUDY001-SUBJ0007,10,HR,Heart Rate,68,beats/min,68,68.0,beats/min,Y,BASELINE,2,2024-11-16,1
STUDY001,VS,STUDY001-SUBJ0007,11,HEIGHT,Height,196.3,cm,196.3,196.3,cm,,WEEK 1,3,2024-11-22,7
STUDY001,VS,STUDY001-SUBJ0007,12,WEIGHT,Weight,73.0,kg,73.0,73.0,kg,,WEEK 1,3,2024-11-22,7
STUDY001,VS,STUDY001-SUBJ0007,13,TEMP,Temperature,36.8,C,36.8,36.8,C,,WEEK 1,3,2024-11-22,7
STUDY001,VS,STUDY001-SUBJ0007,14,BP,Blood Pressure,131/99,mmHg,131/99,,mmHg,,WEEK 1,3,2024-11-22,7
STUDY001,VS,STUDY001-SUBJ0007,15,HR,Heart Rate,64,beats/min,64,64.0,beats/min,,WEEK 1,3,2024-11-22,7
STUDY001,VS,STUDY001-SUBJ0007,16,HEIGHT,Height,196.2,cm,196.2,196.2,cm,,WEEK 2,4,2024-11-29,14
STUDY001,VS,STUDY001-SUBJ0007,17,WEIGHT,Weight,73.1,kg,73.1,73.1,kg,,WEEK 2,4,2024-11-29,14
STUDY001,VS,STUDY001-SUBJ0007,18,TEMP,Temperature,36.5,C,36.5,36.5,C,,WEEK 2,4,2024-11-29,14
STUDY001,VS,STUDY001-SUBJ0007,19,BP,Blood Pressure,127/100,mmHg,127/100,,mmHg,,WEEK 2,4,2024-11-29,14
STUDY001,VS,STUDY001-SUBJ0007,20,HR,Heart Rate,60,beats/min,60,60.0,beats/min,,WEEK 2,4,2024-11-29,14
STUDY001,VS,STUDY001-SUBJ0007,21,HEIGHT,Height,196.2,cm,196.2,196.2,cm,,WEEK 4,5,2024-12-13,28
STUDY001,VS,STUDY001-SUBJ0007,22,WEIGHT,Weight,73.8,kg,73.8,73.8,kg,,WEEK 4,5,2024-12-13,28
STUDY001,VS,STUDY001-SUBJ0007,23,TEMP,Temperature,36.7,C,36.7,36.7,C,,WEEK 4,5,2024-12-13,28
STUDY001,VS,STUDY001-SUBJ0007,24,BP,Blood Pressure,128/97,mmHg,128/97,,mmHg,,WEEK 4,5,2024-12-13,28
STUDY001,VS,STUDY001-SUBJ0007,25,HR,Heart Rate,62,beats/min,62,62.0,beats/min,,WEEK 4,5,2024-12-13,28
STUDY001,VS,STUDY001-SUBJ0007,26,HEIGHT,Height,196.5,cm,196.5,196.5,cm,,WEEK 8,6,2025-01-10,56
STUDY001,VS,STUDY001-SUBJ0007,27,WEIGHT,Weight,74.3,kg,74.3,74.3,kg,,WEEK 8,6,2025-01-10,56
STUDY001,VS,STUDY001-SUBJ0007,28,TEMP,Temperature,37.0,C,37.0,37.0,C,,WEEK 8,6,2025-01-10,56
STUDY001,VS,STUDY001-SUBJ0007,29,BP,Blood Pressure,128/98,mmHg,128/98,,mmHg,,WEEK 8,6,2025-01-10,56
STUDY001,VS,STUDY001-SUBJ0007,30,HR,Heart Rate,60,beats/min,60,60.0,beats/min,,WEEK 8,6,2025-01-10,56
STUDY001,VS,STUDY001-SUBJ0007,31,HEIGHT,Height,196.1,cm,196.1,196.1,cm,,WEEK 12,7,2025-02-07,84
STUDY001,VS,STUDY001-SUBJ0007,32,WEIGHT,Weight,73.3,kg,73.3,73.3,kg,,WEEK 12,7,2025-02-07,84
STUDY001,VS,STUDY001-SUBJ0007,33,TEMP,Temperature,36.5,C,36.5,36.5,C,,WEEK 12,7,2025-02-07,84
STUDY001,VS,STUDY001-SUBJ0007,34,BP,Blood Pressure,128/97,mmHg,128/97,,mmHg,,WEEK 12,7,2025-02-07,84
STUDY001,VS,STUDY001-SUBJ0007,35,HR,Heart Rate,62,beats/min,62,62.0,beats/min,,WEEK 12,7,2025-02-07,84
STUDY001,VS,STUDY001-SUBJ0007,36,HEIGHT,Height,196.2,cm,196.2,196.2,cm,,WEEK 16,8,2025-03-07,112
STUDY001,VS,STUDY001-SUBJ0007,37,WEIGHT,Weight,73.5,kg,73.5,73.5,kg,,WEEK 16,8,2025-03-07,112
STUDY001,VS,STUDY001-SUBJ0007,38,TEMP,Temperature,36.9,C,36.9,36.9,C,,WEEK 16,8,2025-03-07,112
STUDY001,VS,STUDY001-SUBJ0007,39,BP,Blood Pressure,128/94,mmHg,128/94,,mmHg,,WEEK 16,8,2025-03-07,112
STUDY001,VS,STUDY001-SUBJ0007,40,HR,Heart Rate,59,beats/min,59,59.0,beats/min,,WEEK 16,8,2025-03-07,112
STUDY001,VS,STUDY001-SUBJ0007,41,HEIGHT,Height,196.4,cm,196.4,196.4,cm,,END OF TREATMENT,9,2025-04-04,140
STUDY001,VS,STUDY001-SUBJ0007,42,WEIGHT,Weight,74.3,kg,74.3,74.3,kg,,END OF TREATMENT,9,2025-04-04,140
STUDY001,VS,STUDY001-SUBJ0007,43,TEMP,Temperature,36.4,C,36.4,36.4,C,,END OF TREATMENT,9,2025-04-04,140
STUDY001,VS,STUDY001-SUBJ0007,44,BP,Blood Pressure,127/93,mmHg,127/93,,mmHg,,END OF TREATMENT,9,2025-04-04,140
STUDY001,VS,STUDY001-SUBJ0007,45,HR,Heart Rate,64,beats/min,64,64.0,beats/min,,END OF TREATMENT,9,2025-04-04,140
STUDY001,VS,STUDY001-SUBJ0008,1,HEIGHT,Height,181.8,cm,181.8,181.8,cm,,SCREENING,1,2025-01-26,-14
STUDY001,VS,STUDY001-SUBJ0008,2,WEIGHT,Weight,105.1,kg,105.1,105.1,kg,,SCREENING,1,2025-01-26,-14
STUDY001,VS,STUDY001-SUBJ0008,3,TEMP,Temperature,36.3,C,36.3,36.3,C,,SCREENING,1,2025-01-26,-14
STUDY001,VS,STUDY001-SUBJ0008,4,BP,Blood Pressure,126/81,mmHg,126/81,,mmHg,,SCREENING,1,2025-01-26,-14
STUDY001,VS,STUDY001-SUBJ0008,5,HR,Heart Rate,64,beats/min,64,64.0,beats/min,,SCREENING,1,2025-01-26,-14
STUDY001,VS,STUDY001-SUBJ0008,6,HEIGHT,Height,181.7,cm,181.7,181.7,cm,Y,BASELINE,2,2025-02-09,1
STUDY001,VS,STUDY001-SUBJ0008,7,WEIGHT,Weight,105.8,kg,105.8,105.8,kg,Y,BASELINE,2,2025-02-09,1
STUDY001,VS,STUDY001-SUBJ0008,8,TEMP,Temperature,36.8,C,36.8,36.8,C,Y,BASELINE,2,2025-02-09,1
STUDY001,VS,STUDY001-SUBJ0008,9,BP,Blood Pressure,128/84,mmHg,128/84,,mmHg,Y,BASELINE,2,2025-02-09,1
STUDY001,VS,STUDY001-SUBJ0008,10,HR,Heart Rate,65,beats/min,65,65.0,beats/min,Y,BASELINE,2,2025-02-09,1
STUDY001,VS,STUDY001-SUBJ0008,11,HEIGHT,Height,181.8,cm,181.8,181.8,cm,,WEEK 1,3,2025-02-15,7
STUDY001,VS,STUDY001-SUBJ0008,12,WEIGHT,Weight,104.3,kg,104.3,104.3,kg,,WEEK 1,3,2025-02-15,7
STUDY001,VS,STUDY001-SUBJ0008,13,TEMP,Temperature,36.5,C,36.5,36.5,C,,WEEK 1,3,2025-02-15,7
STUDY001,VS,STUDY001-SUBJ0008,14,BP,Blood Pressure,125/88,mmHg,125/88,,mmHg,,WEEK 1,3,2025-02-15,7
STUDY001,VS,STUDY001-SUBJ0008,15,HR,Heart Rate,60,beats/min,60,60.0,beats/min,,WEEK 1,3,2025-02-15,7
STUDY001,VS,STUDY001-SUBJ0008,16,HEIGHT,Height,181.9,cm,181.9,181.9,cm,,WEEK 2,4,2025-02-22,14
STUDY001,VS,STUDY001-SUBJ0008,17,WEIGHT,Weight,105.5,kg,105.5,105.5,kg,,WEEK 2,4,2025-02-22,14
STUDY001,VS,STUDY001-SUBJ0008,18,TEMP,Temperature,36.7,C,36.7,36.7,C,,WEEK 2,4,2025-02-22,14
STUDY001,VS,STUDY001-SUBJ0008,19,BP,Blood Pressure,125/82,mmHg,125/82,,mmHg,,WEEK 2,4,2025-02-22,14
STUDY001,VS,STUDY001-SUBJ0008,20,HR,Heart Rate,61,beats/min,61,61.0,beats/min,,WEEK 2,4,2025-02-22,14
STUDY001,VS,STUDY001-SUBJ0008,21,HEIGHT,Height,181.7,cm,181.7,181.7,cm,,WEEK 4,5,2025-03-08,28
STUDY001,VS,STUDY001-SUBJ0008,22,WEIGHT,Weight,105.9,kg,105.9,105.9,kg,,WEEK 4,5,2025-03-08,28
STUDY001,VS,STUDY001-SUBJ0008,23,TEMP,Temperature,36.7,C,36.7,36.7,C,,WEEK 4,5,2025-03-08,28
STUDY001,VS,STUDY001-SUBJ0008,24,BP,Blood Pressure,123/82,mmHg,123/82,,mmHg,,WEEK 4,5,2025-03-08,28
STUDY001,VS,STUDY001-SUBJ0008,25,HR,Heart Rate,63,beats/min,63,63.0,beats/min,,WEEK 4,5,2025-03-08,28
STUDY001,VS,STUDY001-SUBJ0008,26,HEIGHT,Height,181.8,cm,181.8,181.8,cm,,WEEK 8,6,2025-04-05,56
STUDY001,VS,STUDY001-SUBJ0008,27,WEIGHT,Weight,105.2,kg,105.2,105.2,kg,,WEEK 8,6,2025-04-05,56
STUDY001,VS,STUDY001-SUBJ0008,28,TEMP,Temperature,36.3,C,36.3,36.3,C,,WEEK 8,6,2025-04-05,56
STUDY001,VS,STUDY001-SUBJ0008,29,BP,Blood Pressure,127/85,mmHg,127/85,,mmHg,,WEEK 8,6,2025-04-05,56
STUDY001,VS,STUDY001-SUBJ0008,30,HR,Heart Rate,60,beats/min,60,60.0,beats/min,,WEEK 8,6,2025-04-05,56
STUDY001,VS,STUDY001-SUBJ0008,31,HEIGHT,Height,181.8,cm,181.8,181.8,cm,,WEEK 12,7,2025-05-03,84
STUDY001,VS,STUDY001-SUBJ0008,32,WEIGHT,Weight,104.4,kg,104.4,104.4,kg,,WEEK 12,7,2025-05-03,84
STUDY001,VS,STUDY001-SUBJ0008,33,TEMP,Temperature,36.7,C,36.7,36.7,C,,WEEK 12,7,2025-05-03,84
STUDY001,VS,STUDY001-SUBJ0008,34,BP,Blood Pressure,123/88,mmHg,123/88,,mmHg,,WEEK 12,7,2025-05-03,84
STUDY001,VS,STUDY001-SUBJ0008,35,HR,Heart Rate,62,beats/min,62,62.0,beats/min,,WEEK 12,7,2025-05-03,84
STUDY001,VS,STUDY001-SUBJ0008,36,HEIGHT,Height,181.6,cm,181.6,181.6,cm,,WEEK 16,8,2025-05-31,112
STUDY001,VS,STUDY001-SUBJ0008,37,WEIGHT,Weight,104.6,kg,104.6,104.6,kg,,WEEK 16,8,2025-05-31,112
STUDY001,VS,STUDY001-SUBJ0008,38,TEMP,Temperature,36.5,C,36.5,36.5,C,,WEEK 16,8,2025-05-31,112
STUDY001,VS,STUDY001-SUBJ0008,39,BP,Blood Pressure,132/84,mmHg,132/84,,mmHg,,WEEK 16,8,2025-05-31,112
STUDY001,VS,STUDY001-SUBJ0008,40,HR,Heart Rate,62,beats/min,62,62.0,beats/min,,WEEK 16,8,2025-05-31,112
STUDY001,VS,STUDY001-SUBJ0008,41,HEIGHT,Height,181.8,cm,181.8,181.8,cm,,END OF TREATMENT,9,2025-06-28,140
STUDY001,VS,STUDY001-SUBJ0008,42,WEIGHT,Weight,104.3,kg,104.3,104.3,kg,,END OF TREATMENT,9,2025-06-28,140
STUDY001,VS,STUDY001-SUBJ0008,43,TEMP,Temperature,36.3,C,36.3,36.3,C,,END OF TREATMENT,9,2025-06-28,140
STUDY001,VS,STUDY001-SUBJ0008,44,BP,Blood Pressure,127/84,mmHg,127/84,,mmHg,,END OF TREATMENT,9,2025-06-28,140
STUDY001,VS,STUDY001-SUBJ0008,45,HR,Heart Rate,60,beats/min,60,60.0,beats/min,,END OF TREATMENT,9,2025-06-28,140
STUDY001,VS,STUDY001-SUBJ0009,1,HEIGHT,Height,159.9,cm,159.9,159.9,cm,,SCREENING,1,2025-02-27,-14
STUDY001,VS,STUDY001-SUBJ0009,2,WEIGHT,Weight,118.4,kg,118.4,118.4,kg,,SCREENING,1,2025-02-27,-14
STUDY001,VS,STUDY001-SUBJ0009,3,TEMP,Temperature,36.2,C,36.2,36.2,C,,SCREENING,1,2025-02-27,-14
STUDY001,VS,STUDY001-SUBJ0009,4,BP,Blood Pressure,110/83,mmHg,110/83,,mmHg,,SCREENING,1,2025-02-27,-14
STUDY001,VS,STUDY001-SUBJ0009,5,HR,Heart Rate,76,beats/min,76,76.0,beats/min,,SCREENING,1,2025-02-27,-14
STUDY001,VS,STUDY001-SUBJ0009,6,HEIGHT,Height,159.9,cm,159.9,159.9,cm,Y,BASELINE,2,2025-03-13,1
STUDY001,VS,STUDY001-SUBJ0009,7,WEIGHT,Weight,119.2,kg,119.2,119.2,kg,Y,BASELINE,2,2025-03-13,1
STUDY001,VS,STUDY001-SUBJ0009,8,TEMP,Temperature,36.3,C,36.3,36.3,C,Y,BASELINE,2,2025-03-13,1
STUDY001,VS,STUDY001-SUBJ0009,9,BP,Blood Pressure,108/78,mmHg,108/78,,mmHg,Y,BASELINE,2,2025-03-13,1
STUDY001,VS,STUDY001-SUBJ0009,10,HR,Heart Rate,76,beats/min,76,76.0,beats/min,Y,BASELINE,2,2025-03-13,1
STUDY001,VS,STUDY001-SUBJ0009,11,HEIGHT,Height,159.8,cm,159.8,159.8,cm,,WEEK 1,3,2025-03-19,7
STUDY001,VS,STUDY001-SUBJ0009,12,WEIGHT,Weight,117.8,kg,117.8,117.8,kg,,WEEK 1,3,2025-03-19,7
STUDY001,VS,STUDY001-SUBJ0009,13,TEMP,Temperature,36.0,C,36.0,36.0,C,,WEEK 1,3,2025-03-19,7
STUDY001,VS,STUDY001-SUBJ0009,14,BP,Blood Pressure,111/82,mmHg,111/82,,mmHg,,WEEK 1,3,2025-03-19,7
STUDY001,VS,STUDY001-SUBJ0009,15,HR,Heart Rate,71,beats/min,71,71.0,beats/min,,WEEK 1,3,2025-03-19,7
STUDY001,VS,STUDY001-SUBJ0009,16,HEIGHT,Height,159.9,cm,159.9,159.9,cm,,WEEK 2,4,2025-03-26,14
STUDY001,VS,STUDY001-SUBJ0009,17,WEIGHT,Weight,119.4,kg,119.4,119.4,kg,,WEEK 2,4,2025-03-26,14
STUDY001,VS,STUDY001-SUBJ0009,18,TEMP,Temperature,36.1,C,36.1,36.1,C,,WEEK 2,4,2025-03-26,14
STUDY001,VS,STUDY001-SUBJ0009,19,BP,Blood Pressure,103/84,mmHg,103/84,,mmHg,,WEEK 2,4,2025-03-26,14
STUDY001,VS,STUDY001-SUBJ0009,20,HR,Heart Rate,78,beats/min,78,78.0,beats/min,,WEEK 2,4,2025-03-26,14
STUDY001,VS,STUDY001-SUBJ0009,21,HEIGHT,Height,159.9,cm,159.9,159.9,cm,,WEEK 4,5,2025-04-09,28
STUDY001,VS,STUDY001-SUBJ0009,22,WEIGHT,Weight,117.6,kg,117.6,117.6,kg,,WEEK 4,5,2025-04-09,28
STUDY001,VS,STUDY001-SUBJ0009,23,TEMP,Temperature,36.5,C,36.5,36.5,C,,WEEK 4,5,2025-04-09,28
STUDY001,VS,STUDY001-SUBJ0009,24,BP,Blood Pressure,109/78,mmHg,109/78,,mmHg,,WEEK 4,5,2025-04-09,28
STUDY001,VS,STUDY001-SUBJ0009,25,HR,Heart Rate,78,beats/min,78,78.0,beats/min,,WEEK 4,5,2025-04-09,28
STUDY001,VS,STUDY001-SUBJ0009,26,HEIGHT,Height,160.0,cm,160.0,160.0,cm,,WEEK 8,6,2025-05-07,56
STUDY001,VS,STUDY001-SUBJ0009,27,WEIGHT,Weight,119.2,kg,119.2,119.2,kg,,WEEK 8,6,2025-05-07,56
STUDY001,VS,STUDY001-SUBJ0009,28,TEMP,Temperature,36.2,C,36.2,36.2,C,,WEEK 8,6,2025-05-07,56
STUDY001,VS,STUDY001-SUBJ0009,29,BP,Blood Pressure,107/77,mmHg,107/77,,mmHg,,WEEK 8,6,2025-05-07,56
STUDY001,VS,STUDY001-SUBJ0009,30,HR,Heart Rate,78,beats/min,78,78.0,beats/min,,WEEK 8,6,2025-05-07,56
STUDY001,VS,STUDY001-SUBJ0009,31,HEIGHT,Height,159.8,cm,159.8,159.8,cm,,WEEK 12,7,2025-06-04,84
STUDY001,VS,STUDY001-SUBJ0009,32,WEIGHT,Weight,119.6,kg,119.6,119.6,kg,,WEEK 12,7,2025-06-04,84
STUDY001,VS,STUDY001-SUBJ0009,33,TEMP,Temperature,36.3,C,36.3,36.3,C,,WEEK 12,7,2025-06-04,84
STUDY001,VS,STUDY001-SUBJ0009,34,BP,Blood Pressure,111/80,mmHg,111/80,,mmHg,,WEEK 12,7,2025-06-04,84
STUDY001,VS,STUDY001-SUBJ0009,35,HR,Heart Rate,77,beats/min,77,77.0,beats/min,,WEEK 12,7,2025-06-04,84
STUDY001,VS,STUDY001-SUBJ0009,36,HEIGHT,Height,160.0,cm,160.0,160.0,cm,,WEEK 16,8,2025-07-02,112
STUDY001,VS,STUDY001-SUBJ0009,37,WEIGHT,Weight,119.5,kg,119.5,119.5,kg,,WEEK 16,8,2025-07-02,112
STUDY001,VS,STUDY001-SUBJ0009,38,TEMP,Temperature,36.1,C,36.1,36.1,C,,WEEK 16,8,2025-07-02,112
STUDY001,VS,STUDY001-SUBJ0009,39,BP,Blood Pressure,109/81,mmHg,109/81,,mmHg,,WEEK 16,8,2025-07-02,112
STUDY001,VS,STUDY001-SUBJ0009,40,HR,Heart Rate,74,beats/min,74,74.0,beats/min,,WEEK 16,8,2025-07-02,112
STUDY001,VS,STUDY001-SUBJ0009,41,HEIGHT,Height,159.8,cm,159.8,159.8,cm,,END OF TREATMENT,9,2025-07-30,140
STUDY001,VS,STUDY001-SUBJ0009,42,WEIGHT,Weight,117.8,kg,117.8,117.8,kg,,END OF TREATMENT,9,2025-07-30,140
STUDY001,VS,STUDY001-SUBJ0009,43,TEMP,Temperature,36.0,C,36.0,36.0,C,,END OF TREATMENT,9,2025-07-30,140
STUDY001,VS,STUDY001-SUBJ0009,44,BP,Blood Pressure,106/80,mmHg,106/80,,mmHg,,END OF TREATMENT,9,2025-07-30,140
STUDY001,VS,STUDY001-SUBJ0009,45,HR,Heart Rate,72,beats/min,72,72.0,beats/min,,END OF TREATMENT,9,2025-07-30,140
STUDY001,VS,STUDY001-SUBJ0010,1,HEIGHT,Height,165.5,cm,165.5,165.5,cm,,SCREENING,1,2025-05-09,-14
STUDY001,VS,STUDY001-SUBJ0010,2,WEIGHT,Weight,95.4,kg,95.4,95.4,kg,,SCREENING,1,2025-05-09,-14
STUDY001,VS,STUDY001-SUBJ0010,3,TEMP,Temperature,36.3,C,36.3,36.3,C,,SCREENING,1,2025-05-09,-14
STUDY001,VS,STUDY001-SUBJ0010,4,BP,Blood Pressure,147/78,mmHg,147/78,,mmHg,,SCREENING,1,2025-05-09,-14
STUDY001,VS,STUDY001-SUBJ0010,5,HR,Heart Rate,61,beats/min,61,61.0,beats/min,,SCREENING,1,2025-05-09,-14
STUDY001,VS,STUDY001-SUBJ0010,6,HEIGHT,Height,165.6,cm,165.6,165.6,cm,Y,BASELINE,2,2025-05-23,1
STUDY001,VS,STUDY001-SUBJ0010,7,WEIGHT,Weight,95.8,kg,95.8,95.8,kg,Y,BASELINE,2,2025-05-23,1
STUDY001,VS,STUDY001-SUBJ0010,8,TEMP,Temperature,36.6,C,36.6,36.6,C,Y,BASELINE,2,2025-05-23,1
STUDY001,VS,STUDY001-SUBJ0010,9,BP,Blood Pressure,143/73,mmHg,143/73,,mmHg,Y,BASELINE,2,2025-05-23,1
STUDY001,VS,STUDY001-SUBJ0010,10,HR,Heart Rate,62,beats/min,62,62.0,beats/min,Y,BASELINE,2,2025-05-23,1
STUDY001,VS,STUDY001-SUBJ0010,11,HEIGHT,Height,165.6,cm,165.6,165.6,cm,,WEEK 1,3,2025-05-29,7
STUDY001,VS,STUDY001-SUBJ0010,12,WEIGHT,Weight,95.4,kg,95.4,95.4,kg,,WEEK 1,3,2025-05-29,7
STUDY001,VS,STUDY001-SUBJ0010,13,TEMP,Temperature,36.3,C,36.3,36.3,C,,WEEK 1,3,2025-05-29,7
STUDY001,VS,STUDY001-SUBJ0010,14,BP,Blood Pressure,142/69,mmHg,142/69,,mmHg,,WEEK 1,3,2025-05-29,7
STUDY001,VS,STUDY001-SUBJ0010,15,HR,Heart Rate,61,beats/min,61,61.0,beats/min,,WEEK 1,3,2025-05-29,7
STUDY001,VS,STUDY001-SUBJ0010,16,HEIGHT,Height,165.6,cm,165.6,165.6,cm,,WEEK 2,4,2025-06-05,14
STUDY001,VS,STUDY001-SUBJ0010,17,WEIGHT,Weight,97.2,kg,97.2,97.2,kg,,WEEK 2,4,2025-06-05,14
STUDY001,VS,STUDY001-SUBJ0010,18,TEMP,Temperature,36.5,C,36.5,36.5,C,,WEEK 2,4,2025-06-05,14
STUDY001,VS,STUDY001-SUBJ0010,19,BP,Blood Pressure,140/78,mmHg,140/78,,mmHg,,WEEK 2,4,2025-06-05,14
STUDY001,VS,STUDY001-SUBJ0010,20,HR,Heart Rate,59,beats/min,59,59.0,beats/min,,WEEK 2,4,2025-06-05,14
STUDY001,VS,STUDY001-SUBJ0010,21,HEIGHT,Height,165.6,cm,165.6,165.6,cm,,WEEK 4,5,2025-06-19,28
STUDY001,VS,STUDY001-SUBJ0010,22,WEIGHT,Weight,97.0,kg,97.0,97.0,kg,,WEEK 4,5,2025-06-19,28
STUDY001,VS,STUDY001-SUBJ0010,23,TEMP,Temperature,36.4,C,36.4,36.4,C,,WEEK 4,5,2025-06-19,28
STUDY001,VS,STUDY001-SUBJ0010,24,BP,Blood Pressure,142/78,mmHg,142/78,,mmHg,,WEEK 4,5,2025-06-19,28
STUDY001,VS,STUDY001-SUBJ0010,25,HR,Heart Rate,58,beats/min,58,58.0,beats/min,,WEEK 4,5,2025-06-19,28
STUDY001,VS,STUDY001-SUBJ0010,26,HEIGHT,Height,165.3,cm,165.3,165.3,cm,,WEEK 8,6,2025-07-17,56
STUDY001,VS,STUDY001-SUBJ0010,27,WEIGHT,Weight,96.3,kg,96.3,96.3,kg,,WEEK 8,6,2025-07-17,56
STUDY001,VS,STUDY001-SUBJ0010,28,TEMP,Temperature,36.8,C,36.8,36.8,C,,WEEK 8,6,2025-07-17,56
STUDY001,VS,STUDY001-SUBJ0010,29,BP,Blood Pressure,141/77,mmHg,141/77,,mmHg,,WEEK 8,6,2025-07-17,56
STUDY001,VS,STUDY001-SUBJ0010,30,HR,Heart Rate,58,beats/min,58,58.0,beats/min,,WEEK 8,6,2025-07-17,56
STUDY001,VS,STUDY001-SUBJ0010,31,HEIGHT,Height,165.4,cm,165.4,165.4,cm,,WEEK 12,7,2025-08-14,84
STUDY001,VS,STUDY001-SUBJ0010,32,WEIGHT,Weight,96.3,kg,96.3,96.3,kg,,WEEK 12,7,2025-08-14,84
STUDY001,VS,STUDY001-SUBJ0010,33,TEMP,Temperature,36.7,C,36.7,36.7,C,,WEEK 12,7,2025-08-14,84
STUDY001,VS,STUDY001-SUBJ0010,34,BP,Blood Pressure,139/71,mmHg,139/71,,mmHg,,WEEK 12,7,2025-08-14,84
STUDY001,VS,STUDY001-SUBJ0010,35,HR,Heart Rate,63,beats/min,63,63.0,beats/min,,WEEK 12,7,2025-08-14,84
STUDY001,VS,STUDY001-SUBJ0010,36,HEIGHT,Height,165.3,cm,165.3,165.3,cm,,WEEK 16,8,2025-09-11,112
STUDY001,VS,STUDY001-SUBJ0010,37,WEIGHT,Weight,95.6,kg,95.6,95.6,kg,,WEEK 16,8,2025-09-11,112
STUDY001,VS,STUDY001-SUBJ0010,38,TEMP,Temperature,36.6,C,36.6,36.6,C,,WEEK 16,8,2025-09-11,112
STUDY001,VS,STUDY001-SUBJ0010,39,BP,Blood Pressure,141/73,mmHg,141/73,,mmHg,,WEEK 16,8,2025-09-11,112
STUDY001,VS,STUDY001-SUBJ0010,40,HR,Heart Rate,58,beats/min,58,58.0,beats/min,,WEEK 16,8,2025-09-11,112
STUDY001,VS,STUDY001-SUBJ0010,41,HEIGHT,Height,165.4,cm,165.4,165.4,cm,,END OF TREATMENT,9,2025-10-09,140
STUDY001,VS,STUDY001-SUBJ0010,42,WEIGHT,Weight,96.4,kg,96.4,96.4,kg,,END OF TREATMENT,9,2025-10-09,140
STUDY001,VS,STUDY001-SUBJ0010,43,TEMP,Temperature,36.8,C,36.8,36.8,C,,END OF TREATMENT,9,2025-10-09,140
STUDY001,VS,STUDY001-SUBJ0010,44,BP,Blood Pressure,142/71,mmHg,142/71,,mmHg,,END OF TREATMENT,9,2025-10-09,140
STUDY001,VS,STUDY001-SUBJ0010,45,HR,Heart Rate,66,beats/min,66,66.0,beats/min,,END OF TREATMENT,9,2025-10-09,140
