STUDYID,DOMAIN,USUBJID,LBSEQ,LBREFID,LBTESTCD,LBTEST,LBCAT,LBORRES,LBORRESU,LBORNRLO,LBORNRHI,LBSTRESC,LBSTRESN,LBSTRESU,LBSTNRLO,LBSTNRHI,LBNRIND,LBBLFL,VISIT,VISITNUM,LBDTC,LBDY
STUDY001,LB,STUDY001-SUBJ0001,1,L00001,HGB,Hemoglobin,HEMATOLOGY,13.02,g/dL,13.5,17.5,13.02,13.02,g/dL,13.5,17.5,LOW,,SCREENING,1,2024-11-25,-14
STUDY001,LB,STUDY001-SUBJ0001,2,L00002,HCT,Hematocrit,HEMATOLOGY,49.61,%,41.0,51.0,49.61,49.61,%,41.0,51.0,NORMAL,,SCREENING,1,2024-11-25,-14
STUDY001,LB,STUDY001-SUBJ0001,3,L00003,WBC,White Blood Cell Count,HEMATOLOGY,7.74,10^9/L,4.5,11.0,7.74,7.74,10^9/L,4.5,11.0,NORMAL,,SCREENING,1,2024-11-25,-14
STUDY001,LB,STUDY001-SUBJ0001,4,L00004,PLT,Platelet Count,HEMATOLOGY,302.17,10^9/L,150.0,450.0,302.17,302.17,10^9/L,150.0,450.0,NORMAL,,SCREENING,1,2024-11-25,-14
STUDY001,LB,STUDY001-SUBJ0001,5,L00005,GLUC,Glucose,CHEMISTRY,83.55,mg/dL,70.0,100.0,83.55,83.55,mg/dL,70.0,100.0,NORMAL,,SCREENING,1,2024-11-25,-14
STUDY001,LB,STUDY001-SUBJ0001,6,L00006,BUN,Blood Urea Nitrogen,CHEMISTRY,9.18,mg/dL,7.0,20.0,9.18,9.18,mg/dL,7.0,20.0,NORMAL,,SCREENING,1,2024-11-25,-14
STUDY001,LB,STUDY001-SUBJ0001,7,L00007,CREAT,Creatinine,CHEMISTRY,1.03,mg/dL,0.6,1.2,1.03,1.03,mg/dL,0.6,1.2,NORMAL,,SCREENING,1,2024-11-25,-14
STUDY001,LB,STUDY001-SUBJ0001,8,L00008,BILI,Total Bilirubin,CHEMISTRY,0.83,mg/dL,0.1,1.2,0.83,0.83,mg/dL,0.1,1.2,NORMAL,,SCREENING,1,2024-11-25,-14
STUDY001,LB,STUDY001-SUBJ0001,9,L00009,ALP,Alkaline Phosphatase,CHEMISTRY,61.73,U/L,44.0,147.0,61.73,61.73,U/L,44.0,147.0,NORMAL,,SCREENING,1,2024-11-25,-14
STUDY001,LB,STUDY001-SUBJ0001,10,L00010,ALT,Alanine Aminotransferase,CHEMISTRY,34.96,U/L,7.0,56.0,34.96,34.96,U/L,7.0,56.0,NORMAL,,SCREENING,1,2024-11-25,-14
STUDY001,LB,STUDY001-SUBJ0001,11,L00011,HGB,Hemoglobin,HEMATOLOGY,12.91,g/dL,13.5,17.5,12.91,12.91,g/dL,13.5,17.5,LOW,Y,BASELINE,2,2024-12-09,1
STUDY001,LB,STUDY001-SUBJ0001,12,L00012,HCT,Hematocrit,HEMATOLOGY,49.75,%,41.0,51.0,49.75,49.75,%,41.0,51.0,NORMAL,Y,BASELINE,2,2024-12-09,1
STUDY001,LB,STUDY001-SUBJ0001,13,L00013,WBC,White Blood Cell Count,HEMATOLOGY,7.88,10^9/L,4.5,11.0,7.88,7.88,10^9/L,4.5,11.0,NORMAL,Y,BASELINE,2,2024-12-09,1
STUDY001,LB,STUDY001-SUBJ0001,14,L00014,PLT,Platelet Count,HEMATOLOGY,307.69,10^9/L,150.0,450.0,307.69,307.69,10^9/L,150.0,450.0,NORMAL,Y,BASELINE,2,2024-12-09,1
STUDY001,LB,STUDY001-SUBJ0001,15,L00015,GLUC,Glucose,CHEMISTRY,82.08,mg/dL,70.0,100.0,82.08,82.08,mg/dL,70.0,100.0,NORMAL,Y,BASELINE,2,2024-12-09,1
STUDY001,LB,STUDY001-SUBJ0001,16,L00016,BUN,Blood Urea Nitrogen,CHEMISTRY,8.8,mg/dL,7.0,20.0,8.8,8.8,mg/dL,7.0,20.0,NORMAL,Y,BASELINE,2,2024-12-09,1
STUDY001,LB,STUDY001-SUBJ0001,17,L00017,CREAT,Creatinine,CHEMISTRY,1.02,mg/dL,0.6,1.2,1.02,1.02,mg/dL,0.6,1.2,NORMAL,Y,BASELINE,2,2024-12-09,1
STUDY001,LB,STUDY001-SUBJ0001,18,L00018,BILI,Total Bilirubin,CHEMISTRY,0.83,mg/dL,0.1,1.2,0.83,0.83,mg/dL,0.1,1.2,NORMAL,Y,BASELINE,2,2024-12-09,1
STUDY001,LB,STUDY001-SUBJ0001,19,L00019,ALP,Alkaline Phosphatase,CHEMISTRY,61.6,U/L,44.0,147.0,61.6,61.6,U/L,44.0,147.0,NORMAL,Y,BASELINE,2,2024-12-09,1
STUDY001,LB,STUDY001-SUBJ0001,20,L00020,ALT,Alanine Aminotransferase,CHEMISTRY,36.56,U/L,7.0,56.0,36.56,36.56,U/L,7.0,56.0,NORMAL,Y,BASELINE,2,2024-12-09,1
STUDY001,LB,STUDY001-SUBJ0001,21,L00021,HGB,Hemoglobin,HEMATOLOGY,12.88,g/dL,13.5,17.5,12.88,12.88,g/dL,13.5,17.5,LOW,,WEEK 1,3,2024-12-15,7
STUDY001,LB,STUDY001-SUBJ0001,22,L00022,HCT,Hematocrit,HEMATOLOGY,49.74,%,41.0,51.0,49.74,49.74,%,41.0,51.0,NORMAL,,WEEK 1,3,2024-12-15,7
STUDY001,LB,STUDY001-SUBJ0001,23,L00023,WBC,White Blood Cell Count,HEMATOLOGY,7.49,10^9/L,4.5,11.0,7.49,7.49,10^9/L,4.5,11.0,NORMAL,,WEEK 1,3,2024-12-15,7
STUDY001,LB,STUDY001-SUBJ0001,24,L00024,PLT,Platelet Count,HEMATOLOGY,297.27,10^9/L,150.0,450.0,297.27,297.27,10^9/L,150.0,450.0,NORMAL,,WEEK 1,3,2024-12-15,7
STUDY001,LB,STUDY001-SUBJ0001,25,L00025,GLUC,Glucose,CHEMISTRY,82.48,mg/dL,70.0,100.0,82.48,82.48,mg/dL,70.0,100.0,NORMAL,,WEEK 1,3,2024-12-15,7
STUDY001,LB,STUDY001-SUBJ0001,26,L00026,BUN,Blood Urea Nitrogen,CHEMISTRY,8.44,mg/dL,7.0,20.0,8.44,8.44,mg/dL,7.0,20.0,NORMAL,,WEEK 1,3,2024-12-15,7
STUDY001,LB,STUDY001-SUBJ0001,27,L00027,CREAT,Creatinine,CHEMISTRY,1.04,mg/dL,0.6,1.2,1.04,1.04,mg/dL,0.6,1.2,NORMAL,,WEEK 1,3,2024-12-15,7
STUDY001,LB,STUDY001-SUBJ0001,28,L00028,BILI,Total Bilirubin,CHEMISTRY,0.81,mg/dL,0.1,1.2,0.81,0.81,mg/dL,0.1,1.2,NORMAL,,WEEK 1,3,2024-12-15,7
STUDY001,LB,STUDY001-SUBJ0001,29,L00029,ALP,Alkaline Phosphatase,CHEMISTRY,62.83,U/L,44.0,147.0,62.83,62.83,U/L,44.0,147.0,NORMAL,,WEEK 1,3,2024-12-15,7
STUDY001,LB,STUDY001-SUBJ0001,30,L00030,ALT,Alanine Aminotransferase,CHEMISTRY,35.98,U/L,7.0,56.0,35.98,35.98,U/L,7.0,56.0,NORMAL,,WEEK 1,3,2024-12-15,7
STUDY001,LB,STUDY001-SUBJ0001,31,L00031,HGB,Hemoglobin,HEMATOLOGY,13.14,g/dL,13.5,17.5,13.14,13.14,g/dL,13.5,17.5,LOW,,WEEK 2,4,2024-12-22,14
STUDY001,LB,STUDY001-SUBJ0001,32,L00032,HCT,Hematocrit,HEMATOLOGY,49.56,%,41.0,51.0,49.56,49.56,%,41.0,51.0,NORMAL,,WEEK 2,4,2024-12-22,14
STUDY001,LB,STUDY001-SUBJ0001,33,L00033,WBC,White Blood Cell Count,HEMATOLOGY,7.77,10^9/L,4.5,11.0,7.77,7.77,10^9/L,4.5,11.0,NORMAL,,WEEK 2,4,2024-12-22,14
STUDY001,LB,STUDY001-SUBJ0001,34,L00034,PLT,Platelet Count,HEMATOLOGY,296.96,10^9/L,150.0,450.0,296.96,296.96,10^9/L,150.0,450.0,NORMAL,,WEEK 2,4,2024-12-22,14
STUDY001,LB,STUDY001-SUBJ0001,35,L00035,GLUC,Glucose,CHEMISTRY,80.73,mg/dL,70.0,100.0,80.73,80.73,mg/dL,70.0,100.0,NORMAL,,WEEK 2,4,2024-12-22,14
STUDY001,LB,STUDY001-SUBJ0001,36,L00036,BUN,Blood Urea Nitrogen,CHEMISTRY,8.71,mg/dL,7.0,20.0,8.71,8.71,mg/dL,7.0,20.0,NORMAL,,WEEK 2,4,2024-12-22,14
STUDY001,LB,STUDY001-SUBJ0001,37,L00037,CREAT,Creatinine,CHEMISTRY,1.04,mg/dL,0.6,1.2,1.04,1.04,mg/dL,0.6,1.2,NORMAL,,WEEK 2,4,2024-12-22,14
STUDY001,LB,STUDY001-SUBJ0001,38,L00038,BILI,Total Bilirubin,CHEMISTRY,0.83,mg/dL,0.1,1.2,0.83,0.83,mg/dL,0.1,1.2,NORMAL,,WEEK 2,4,2024-12-22,14
STUDY001,LB,STUDY001-SUBJ0001,39,L00039,ALP,Alkaline Phosphatase,CHEMISTRY,59.31,U/L,44.0,147.0,59.31,59.31,U/L,44.0,147.0,NORMAL,,WEEK 2,4,2024-12-22,14
STUDY001,LB,STUDY001-SUBJ0001,40,L00040,ALT,Alanine Aminotransferase,CHEMISTRY,37.4,U/L,7.0,56.0,37.4,37.4,U/L,7.0,56.0,NORMAL,,WEEK 2,4,2024-12-22,14
STUDY001,LB,STUDY001-SUBJ0001,41,L00041,HGB,Hemoglobin,HEMATOLOGY,12.98,g/dL,13.5,17.5,12.98,12.98,g/dL,13.5,17.5,LOW,,WEEK 4,5,2025-01-05,28
STUDY001,LB,STUDY001-SUBJ0001,42,L00042,HCT,Hematocrit,HEMATOLOGY,49.62,%,41.0,51.0,49.62,49.62,%,41.0,51.0,NORMAL,,WEEK 4,5,2025-01-05,28
STUDY001,LB,STUDY001-SUBJ0001,43,L00043,WBC,White Blood Cell Count,HEMATOLOGY,8.02,10^9/L,4.5,11.0,8.02,8.02,10^9/L,4.5,11.0,NORMAL,,WEEK 4,5,2025-01-05,28
STUDY001,LB,STUDY001-SUBJ0001,44,L00044,PLT,Platelet Count,HEMATOLOGY,307.01,10^9/L,150.0,450.0,307.01,307.01,10^9/L,150.0,450.0,NORMAL,,WEEK 4,5,2025-01-05,28
STUDY001,LB,STUDY001-SUBJ0001,45,L00045,GLUC,Glucose,CHEMISTRY,83.0,mg/dL,70.0,100.0,83.0,83.0,mg/dL,70.0,100.0,NORMAL,,WEEK 4,5,2025-01-05,28
STUDY001,LB,STUDY001-SUBJ0001,46,L00046,BUN,Blood Urea Nitrogen,CHEMISTRY,8.63,mg/dL,7.0,20.0,8.63,8.63,mg/dL,7.0,20.0,NORMAL,,WEEK 4,5,2025-01-05,28
STUDY001,LB,STUDY001-SUBJ0001,47,L00047,CREAT,Creatinine,CHEMISTRY,1.02,mg/dL,0.6,1.2,1.02,1.02,mg/dL,0.6,1.2,NORMAL,,WEEK 4,5,2025-01-05,28
STUDY001,LB,STUDY001-SUBJ0001,48,L00048,BILI,Total Bilirubin,CHEMISTRY,0.86,mg/dL,0.1,1.2,0.86,0.86,mg/dL,0.1,1.2,NORMAL,,WEEK 4,5,2025-01-05,28
STUDY001,LB,STUDY001-SUBJ0001,49,L00049,ALP,Alkaline Phosphatase,CHEMISTRY,60.66,U/L,44.0,147.0,60.66,60.66,U/L,44.0,147.0,NORMAL,,WEEK 4,5,2025-01-05,28
STUDY001,LB,STUDY001-SUBJ0001,50,L00050,ALT,Alanine Aminotransferase,CHEMISTRY,35.62,U/L,7.0,56.0,35.62,35.62,U/L,7.0,56.0,NORMAL,,WEEK 4,5,2025-01-05,28
STUDY001,LB,STUDY001-SUBJ0001,51,L00051,HGB,Hemoglobin,HEMATOLOGY,12.82,g/dL,13.5,17.5,12.82,12.82,g/dL,13.5,17.5,LOW,,WEEK 8,6,2025-02-02,56
STUDY001,LB,STUDY001-SUBJ0001,52,L00052,HCT,Hematocrit,HEMATOLOGY,49.53,%,41.0,51.0,49.53,49.53,%,41.0,51.0,NORMAL,,WEEK 8,6,2025-02-02,56
STUDY001,LB,STUDY001-SUBJ0001,53,L00053,WBC,White Blood Cell Count,HEMATOLOGY,7.6,10^9/L,4.5,11.0,7.6,7.6,10^9/L,4.5,11.0,NORMAL,,WEEK 8,6,2025-02-02,56
STUDY001,LB,STUDY001-SUBJ0001,54,L00054,PLT,Platelet Count,HEMATOLOGY,306.24,10^9/L,150.0,450.0,306.24,306.24,10^9/L,150.0,450.0,NORMAL,,WEEK 8,6,2025-02-02,56
STUDY001,LB,STUDY001-SUBJ0001,55,L00055,GLUC,Glucose,CHEMISTRY,83.3,mg/dL,70.0,100.0,83.3,83.3,mg/dL,70.0,100.0,NORMAL,,WEEK 8,6,2025-02-02,56
STUDY001,LB,STUDY001-SUBJ0001,56,L00056,BUN,Blood Urea Nitrogen,CHEMISTRY,8.63,mg/dL,7.0,20.0,8.63,8.63,mg/dL,7.0,20.0,NORMAL,,WEEK 8,6,2025-02-02,56
STUDY001,LB,STUDY001-SUBJ0001,57,L00057,CREAT,Creatinine,CHEMISTRY,1.04,mg/dL,0.6,1.2,1.04,1.04,mg/dL,0.6,1.2,NORMAL,,WEEK 8,6,2025-02-02,56
STUDY001,LB,STUDY001-SUBJ0001,58,L00058,BILI,Total Bilirubin,CHEMISTRY,0.83,mg/dL,0.1,1.2,0.83,0.83,mg/dL,0.1,1.2,NORMAL,,WEEK 8,6,2025-02-02,56
STUDY001,LB,STUDY001-SUBJ0001,59,L00059,ALP,Alkaline Phosphatase,CHEMISTRY,61.61,U/L,44.0,147.0,61.61,61.61,U/L,44.0,147.0,NORMAL,,WEEK 8,6,2025-02-02,56
STUDY001,LB,STUDY001-SUBJ0001,60,L00060,ALT,Alanine Aminotransferase,CHEMISTRY,36.58,U/L,7.0,56.0,36.58,36.58,U/L,7.0,56.0,NORMAL,,WEEK 8,6,2025-02-02,56
STUDY001,LB,STUDY001-SUBJ0001,61,L00061,HGB,Hemoglobin,HEMATOLOGY,13.0,g/dL,13.5,17.5,13.0,13.0,g/dL,13.5,17.5,LOW,,WEEK 12,7,2025-03-02,84
STUDY001,LB,STUDY001-SUBJ0001,62,L00062,HCT,Hematocrit,HEMATOLOGY,49.62,%,41.0,51.0,49.62,49.62,%,41.0,51.0,NORMAL,,WEEK 12,7,2025-03-02,84
STUDY001,LB,STUDY001-SUBJ0001,63,L00063,WBC,White Blood Cell Count,HEMATOLOGY,7.74,10^9/L,4.5,11.0,7.74,7.74,10^9/L,4.5,11.0,NORMAL,,WEEK 12,7,2025-03-02,84
STUDY001,LB,STUDY001-SUBJ0001,64,L00064,PLT,Platelet Count,HEMATOLOGY,300.78,10^9/L,150.0,450.0,300.78,300.78,10^9/L,150.0,450.0,NORMAL,,WEEK 12,7,2025-03-02,84
STUDY001,LB,STUDY001-SUBJ0001,65,L00065,GLUC,Glucose,CHEMISTRY,84.06,mg/dL,70.0,100.0,84.06,84.06,mg/dL,70.0,100.0,NORMAL,,WEEK 12,7,2025-03-02,84
STUDY001,LB,STUDY001-SUBJ0001,66,L00066,BUN,Blood Urea Nitrogen,CHEMISTRY,8.6,mg/dL,7.0,20.0,8.6,8.6,mg/dL,7.0,20.0,NORMAL,,WEEK 12,7,2025-03-02,84
STUDY001,LB,STUDY001-SUBJ0001,67,L00067,CREAT,Creatinine,CHEMISTRY,1.03,mg/dL,0.6,1.2,1.03,1.03,mg/dL,0.6,1.2,NORMAL,,WEEK 12,7,2025-03-02,84
STUDY001,LB,STUDY001-SUBJ0001,68,L00068,BILI,Total Bilirubin,CHEMISTRY,0.87,mg/dL,0.1,1.2,0.87,0.87,mg/dL,0.1,1.2,NORMAL,,WEEK 12,7,2025-03-02,84
STUDY001,LB,STUDY001-SUBJ0001,69,L00069,ALP,Alkaline Phosphatase,CHEMISTRY,59.99,U/L,44.0,147.0,59.99,59.99,U/L,44.0,147.0,NORMAL,,WEEK 12,7,2025-03-02,84
STUDY001,LB,STUDY001-SUBJ0001,70,L00070,ALT,Alanine Aminotransferase,CHEMISTRY,35.79,U/L,7.0,56.0,35.79,35.79,U/L,7.0,56.0,NORMAL,,WEEK 12,7,2025-03-02,84
STUDY001,LB,STUDY001-SUBJ0001,71,L00071,HGB,Hemoglobin,HEMATOLOGY,13.03,g/dL,13.5,17.5,13.03,13.03,g/dL,13.5,17.5,LOW,,WEEK 16,8,2025-03-30,112
STUDY001,LB,STUDY001-SUBJ0001,72,L00072,HCT,Hematocrit,HEMATOLOGY,49.42,%,41.0,51.0,49.42,49.42,%,41.0,51.0,NORMAL,,WEEK 16,8,2025-03-30,112
STUDY001,LB,STUDY001-SUBJ0001,73,L00073,WBC,White Blood Cell Count,HEMATOLOGY,7.67,10^9/L,4.5,11.0,7.67,7.67,10^9/L,4.5,11.0,NORMAL,,WEEK 16,8,2025-03-30,112
STUDY001,LB,STUDY001-SUBJ0001,74,L00074,PLT,Platelet Count,HEMATOLOGY,292.85,10^9/L,150.0,450.0,292.85,292.85,10^9/L,150.0,450.0,NORMAL,,WEEK 16,8,2025-03-30,112
STUDY001,LB,STUDY001-SUBJ0001,75,L00075,GLUC,Glucose,CHEMISTRY,81.97,mg/dL,70.0,100.0,81.97,81.97,mg/dL,70.0,100.0,NORMAL,,WEEK 16,8,2025-03-30,112
STUDY001,LB,STUDY001-SUBJ0001,76,L00076,BUN,Blood Urea Nitrogen,CHEMISTRY,8.36,mg/dL,7.0,20.0,8.36,8.36,mg/dL,7.0,20.0,NORMAL,,WEEK 16,8,2025-03-30,112
STUDY001,LB,STUDY001-SUBJ0001,77,L00077,CREAT,Creatinine,CHEMISTRY,1.02,mg/dL,0.6,1.2,1.02,1.02,mg/dL,0.6,1.2,NORMAL,,WEEK 16,8,2025-03-30,112
STUDY001,LB,STUDY001-SUBJ0001,78,L00078,BILI,Total Bilirubin,CHEMISTRY,0.85,mg/dL,0.1,1.2,0.85,0.85,mg/dL,0.1,1.2,NORMAL,,WEEK 16,8,2025-03-30,112
STUDY001,LB,STUDY001-SUBJ0001,79,L00079,ALP,Alkaline Phosphatase,CHEMISTRY,61.51,U/L,44.0,147.0,61.51,61.51,U/L,44.0,147.0,NORMAL,,WEEK 16,8,2025-03-30,112
STUDY001,LB,STUDY001-SUBJ0001,80,L00080,ALT,Alanine Aminotransferase,CHEMISTRY,32.51,U/L,7.0,56.0,32.51,32.51,U/L,7.0,56.0,NORMAL,,WEEK 16,8,2025-03-30,112
STUDY001,LB,STUDY001-SUBJ0001,81,L00081,HGB,Hemoglobin,HEMATOLOGY,13.03,g/dL,13.5,17.5,13.03,13.03,g/dL,13.5,17.5,LOW,,END OF TREATMENT,9,2025-04-27,140
STUDY001,LB,STUDY001-SUBJ0001,82,L00082,HCT,Hematocrit,HEMATOLOGY,49.65,%,41.0,51.0,49.65,49.65,%,41.0,51.0,NORMAL,,END OF TREATMENT,9,2025-04-27,140
STUDY001,LB,STUDY001-SUBJ0001,83,L00083,WBC,White Blood Cell Count,HEMATOLOGY,7.54,10^9/L,4.5,11.0,7.54,7.54,10^9/L,4.5,11.0,NORMAL,,END OF TREATMENT,9,2025-04-27,140
STUDY001,LB,STUDY001-SUBJ0001,84,L00084,PLT,Platelet Count,HEMATOLOGY,297.06,10^9/L,150.0,450.0,297.06,297.06,10^9/L,150.0,450.0,NORMAL,,END OF TREATMENT,9,2025-04-27,140
STUDY001,LB,STUDY001-SUBJ0001,85,L00085,GLUC,Glucose,CHEMISTRY,83.27,mg/dL,70.0,100.0,83.27,83.27,mg/dL,70.0,100.0,NORMAL,,END OF TREATMENT,9,2025-04-27,140
STUDY001,LB,STUDY001-SUBJ0001,86,L00086,BUN,Blood Urea Nitrogen,CHEMISTRY,7.9,mg/dL,7.0,20.0,7.9,7.9,mg/dL,7.0,20.0,NORMAL,,END OF TREATMENT,9,2025-04-27,140
STUDY001,LB,STUDY001-SUBJ0001,87,L00087,CREAT,Creatinine,CHEMISTRY,1.01,mg/dL,0.6,1.2,1.01,1.01,mg/dL,0.6,1.2,NORMAL,,END OF TREATMENT,9,2025-04-27,140
STUDY001,LB,STUDY001-SUBJ0001,88,L00088,BILI,Total Bilirubin,CHEMISTRY,0.79,mg/dL,0.1,1.2,0.79,0.79,mg/dL,0.1,1.2,NORMAL,,END OF TREATMENT,9,2025-04-27,140
STUDY001,LB,STUDY001-SUBJ0001,89,L00089,ALP,Alkaline Phosphatase,CHEMISTRY,61.19,U/L,44.0,147.0,61.19,61.19,U/L,44.0,147.0,NORMAL,,END OF TREATMENT,9,2025-04-27,140
STUDY001,LB,STUDY001-SUBJ0001,90,L00090,ALT,Alanine Aminotransferase,CHEMISTRY,36.5,U/L,7.0,56.0,36.5,36.5,U/L,7.0,56.0,NORMAL,,END OF TREATMENT,9,2025-04-27,140
STUDY001,LB,STUDY001-SUBJ0002,1,L00001,HGB,Hemoglobin,HEMATOLOGY,15.14,g/dL,13.5,17.5,15.14,15.14,g/dL,13.5,17.5,NORMAL,,SCREENING,1,2024-11-13,-14
STUDY001,LB,STUDY001-SUBJ0002,2,L00002,HCT,Hematocrit,HEMATOLOGY,44.03,%,41.0,51.0,44.03,44.03,%,41.0,51.0,NORMAL,,SCREENING,1,2024-11-13,-14
STUDY001,LB,STUDY001-SUBJ0002,3,L00003,WBC,White Blood Cell Count,HEMATOLOGY,4.66,10^9/L,4.5,11.0,4.66,4.66,10^9/L,4.5,11.0,NORMAL,,SCREENING,1,2024-11-13,-14
STUDY001,LB,STUDY001-SUBJ0002,4,L00004,PLT,Platelet Count,HEMATOLOGY,331.25,10^9/L,150.0,450.0,331.25,331.25,10^9/L,150.0,450.0,NORMAL,,SCREENING,1,2024-11-13,-14
STUDY001,LB,STUDY001-SUBJ0002,5,L00005,GLUC,Glucose,CHEMISTRY,90.08,mg/dL,70.0,100.0,90.08,90.08,mg/dL,70.0,100.0,NORMAL,,SCREENING,1,2024-11-13,-14
STUDY001,LB,STUDY001-SUBJ0002,6,L00006,BUN,Blood Urea Nitrogen,CHEMISTRY,13.1,mg/dL,7.0,20.0,13.1,13.1,mg/dL,7.0,20.0,NORMAL,,SCREENING,1,2024-11-13,-14
STUDY001,LB,STUDY001-SUBJ0002,7,L00007,CREAT,Creatinine,CHEMISTRY,0.89,mg/dL,0.6,1.2,0.89,0.89,mg/dL,0.6,1.2,NORMAL,,SCREENING,1,2024-11-13,-14
STUDY001,LB,STUDY001-SUBJ0002,8,L00008,BILI,Total Bilirubin,CHEMISTRY,0.64,mg/dL,0.1,1.2,0.64,0.64,mg/dL,0.1,1.2,NORMAL,,SCREENING,1,2024-11-13,-14
STUDY001,LB,STUDY001-SUBJ0002,9,L00009,ALP,Alkaline Phosphatase,CHEMISTRY,90.81,U/L,44.0,147.0,90.81,90.81,U/L,44.0,147.0,NORMAL,,SCREENING,1,2024-11-13,-14
STUDY001,LB,STUDY001-SUBJ0002,10,L00010,ALT,Alanine Aminotransferase,CHEMISTRY,34.8,U/L,7.0,56.0,34.8,34.8,U/L,7.0,56.0,NORMAL,,SCREENING,1,2024-11-13,-14
STUDY001,LB,STUDY001-SUBJ0002,11,L00011,HGB,Hemoglobin,HEMATOLOGY,14.92,g/dL,13.5,17.5,14.92,14.92,g/dL,13.5,17.5,NORMAL,Y,BASELINE,2,2024-11-27,1
STUDY001,LB,STUDY001-SUBJ0002,12,L00012,HCT,Hematocrit,HEMATOLOGY,44.34,%,41.0,51.0,44.34,44.34,%,41.0,51.0,NORMAL,Y,BASELINE,2,2024-11-27,1
STUDY001,LB,STUDY001-SUBJ0002,13,L00013,WBC,White Blood Cell Count,HEMATOLOGY,4.26,10^9/L,4.5,11.0,4.26,4.26,10^9/L,4.5,11.0,LOW,Y,BASELINE,2,2024-11-27,1
STUDY001,LB,STUDY001-SUBJ0002,14,L00014,PLT,Platelet Count,HEMATOLOGY,332.0,10^9/L,150.0,450.0,332.0,332.0,10^9/L,150.0,450.0,NORMAL,Y,BASELINE,2,2024-11-27,1
STUDY001,LB,STUDY001-SUBJ0002,15,L00015,GLUC,Glucose,CHEMISTRY,88.98,mg/dL,70.0,100.0,88.98,88.98,mg/dL,70.0,100.0,NORMAL,Y,BASELINE,2,2024-11-27,1
STUDY001,LB,STUDY001-SUBJ0002,16,L00016,BUN,Blood Urea Nitrogen,CHEMISTRY,13.29,mg/dL,7.0,20.0,13.29,13.29,mg/dL,7.0,20.0,NORMAL,Y,BASELINE,2,2024-11-27,1
STUDY001,LB,STUDY001-SUBJ0002,17,L00017,CREAT,Creatinine,CHEMISTRY,0.9,mg/dL,0.6,1.2,0.9,0.9,mg/dL,0.6,1.2,NORMAL,Y,BASELINE,2,2024-11-27,1
STUDY001,LB,STUDY001-SUBJ0002,18,L00018,BILI,Total Bilirubin,CHEMISTRY,0.61,mg/dL,0.1,1.2,0.61,0.61,mg/dL,0.1,1.2,NORMAL,Y,BASELINE,2,2024-11-27,1
STUDY001,LB,STUDY001-SUBJ0002,19,L00019,ALP,Alkaline Phosphatase,CHEMISTRY,89.5,U/L,44.0,147.0,89.5,89.5,U/L,44.0,147.0,NORMAL,Y,BASELINE,2,2024-11-27,1
STUDY001,LB,STUDY001-SUBJ0002,20,L00020,ALT,Alanine Aminotransferase,CHEMISTRY,35.09,U/L,7.0,56.0,35.09,35.09,U/L,7.0,56.0,NORMAL,Y,BASELINE,2,2024-11-27,1
STUDY001,LB,STUDY001-SUBJ0002,21,L00021,HGB,Hemoglobin,HEMATOLOGY,15.08,g/dL,13.5,17.5,15.08,15.08,g/dL,13.5,17.5,NORMAL,,WEEK 1,3,2024-12-03,7
STUDY001,LB,STUDY001-SUBJ0002,22,L00022,HCT,Hematocrit,HEMATOLOGY,44.19,%,41.0,51.0,44.19,44.19,%,41.0,51.0,NORMAL,,WEEK 1,3,2024-12-03,7
STUDY001,LB,STUDY001-SUBJ0002,23,L00023,WBC,White Blood Cell Count,HEMATOLOGY,4.34,10^9/L,4.5,11.0,4.34,4.34,10^9/L,4.5,11.0,LOW,,WEEK 1,3,2024-12-03,7
STUDY001,LB,STUDY001-SUBJ0002,24,L00024,PLT,Platelet Count,HEMATOLOGY,330.17,10^9/L,150.0,450.0,330.17,330.17,10^9/L,150.0,450.0,NORMAL,,WEEK 1,3,2024-12-03,7
STUDY001,LB,STUDY001-SUBJ0002,25,L00025,GLUC,Glucose,CHEMISTRY,89.18,mg/dL,70.0,100.0,89.18,89.18,mg/dL,70.0,100.0,NORMAL,,WEEK 1,3,2024-12-03,7
STUDY001,LB,STUDY001-SUBJ0002,26,L00026,BUN,Blood Urea Nitrogen,CHEMISTRY,13.26,mg/dL,7.0,20.0,13.26,13.26,mg/dL,7.0,20.0,NORMAL,,WEEK 1,3,2024-12-03,7
STUDY001,LB,STUDY001-SUBJ0002,27,L00027,CREAT,Creatinine,CHEMISTRY,0.88,mg/dL,0.6,1.2,0.88,0.88,mg/dL,0.6,1.2,NORMAL,,WEEK 1,3,2024-12-03,7
STUDY001,LB,STUDY001-SUBJ0002,28,L00028,BILI,Total Bilirubin,CHEMISTRY,0.63,mg/dL,0.1,1.2,0.63,0.63,mg/dL,0.1,1.2,NORMAL,,WEEK 1,3,2024-12-03,7
STUDY001,LB,STUDY001-SUBJ0002,29,L00029,ALP,Alkaline Phosphatase,CHEMISTRY,87.02,U/L,44.0,147.0,87.02,87.02,U/L,44.0,147.0,NORMAL,,WEEK 1,3,2024-12-03,7
STUDY001,LB,STUDY001-SUBJ0002,30,L00030,ALT,Alanine Aminotransferase,CHEMISTRY,35.4,U/L,7.0,56.0,35.4,35.4,U/L,7.0,56.0,NORMAL,,WEEK 1,3,2024-12-03,7
STUDY001,LB,STUDY001-SUBJ0002,31,L00031,HGB,Hemoglobin,HEMATOLOGY,14.9,g/dL,13.5,17.5,14.9,14.9,g/dL,13.5,17.5,NORMAL,,WEEK 2,4,2024-12-10,14
STUDY001,LB,STUDY001-SUBJ0002,32,L00032,HCT,Hematocrit,HEMATOLOGY,44.72,%,41.0,51.0,44.72,44.72,%,41.0,51.0,NORMAL,,WEEK 2,4,2024-12-10,14
STUDY001,LB,STUDY001-SUBJ0002,33,L00033,WBC,White Blood Cell Count,HEMATOLOGY,4.27,10^9/L,4.5,11.0,4.27,4.27,10^9/L,4.5,11.0,LOW,,WEEK 2,4,2024-12-10,14
STUDY001,LB,STUDY001-SUBJ0002,34,L00034,PLT,Platelet Count,HEMATOLOGY,330.3,10^9/L,150.0,450.0,330.3,330.3,10^9/L,150.0,450.0,NORMAL,,WEEK 2,4,2024-12-10,14
STUDY001,LB,STUDY001-SUBJ0002,35,L00035,GLUC,Glucose,CHEMISTRY,89.37,mg/dL,70.0,100.0,89.37,89.37,mg/dL,70.0,100.0,NORMAL,,WEEK 2,4,2024-12-10,14
STUDY001,LB,STUDY001-SUBJ0002,36,L00036,BUN,Blood Urea Nitrogen,CHEMISTRY,12.85,mg/dL,7.0,20.0,12.85,12.85,mg/dL,7.0,20.0,NORMAL,,WEEK 2,4,2024-12-10,14
STUDY001,LB,STUDY001-SUBJ0002,37,L00037,CREAT,Creatinine,CHEMISTRY,0.92,mg/dL,0.6,1.2,0.92,0.92,mg/dL,0.6,1.2,NORMAL,,WEEK 2,4,2024-12-10,14
STUDY001,LB,STUDY001-SUBJ0002,38,L00038,BILI,Total Bilirubin,CHEMISTRY,0.61,mg/dL,0.1,1.2,0.61,0.61,mg/dL,0.1,1.2,NORMAL,,WEEK 2,4,2024-12-10,14
STUDY001,LB,STUDY001-SUBJ0002,39,L00039,ALP,Alkaline Phosphatase,CHEMISTRY,86.46,U/L,44.0,147.0,86.46,86.46,U/L,44.0,147.0,NORMAL,,WEEK 2,4,2024-12-10,14
STUDY001,LB,STUDY001-SUBJ0002,40,L00040,ALT,Alanine Aminotransferase,CHEMISTRY,35.1,U/L,7.0,56.0,35.1,35.1,U/L,7.0,56.0,NORMAL,,WEEK 2,4,2024-12-10,14
STUDY001,LB,STUDY001-SUBJ0002,41,L00041,HGB,Hemoglobin,HEMATOLOGY,14.88,g/dL,13.5,17.5,14.88,14.88,g/dL,13.5,17.5,NORMAL,,WEEK 4,5,2024-12-24,28
STUDY001,LB,STUDY001-SUBJ0002,42,L00042,HCT,Hematocrit,HEMATOLOGY,43.82,%,41.0,51.0,43.82,43.82,%,41.0,51.0,NORMAL,,WEEK 4,5,2024-12-24,28
STUDY001,LB,STUDY001-SUBJ0002,43,L00043,WBC,White Blood Cell Count,HEMATOLOGY,4.49,10^9/L,4.5,11.0,4.49,4.49,10^9/L,4.5,11.0,LOW,,WEEK 4,5,2024-12-24,28
STUDY001,LB,STUDY001-SUBJ0002,44,L00044,PLT,Platelet Count,HEMATOLOGY,328.09,10^9/L,150.0,450.0,328.09,328.09,10^9/L,150.0,450.0,NORMAL,,WEEK 4,5,2024-12-24,28
STUDY001,LB,STUDY001-SUBJ0002,45,L00045,GLUC,Glucose,CHEMISTRY,90.77,mg/dL,70.0,100.0,90.77,90.77,mg/dL,70.0,100.0,NORMAL,,WEEK 4,5,2024-12-24,28
STUDY001,LB,STUDY001-SUBJ0002,46,L00046,BUN,Blood Urea Nitrogen,CHEMISTRY,13.85,mg/dL,7.0,20.0,13.85,13.85,mg/dL,7.0,20.0,NORMAL,,WEEK 4,5,2024-12-24,28
STUDY001,LB,STUDY001-SUBJ0002,47,L00047,CREAT,Creatinine,CHEMISTRY,0.86,mg/dL,0.6,1.2,0.86,0.86,mg/dL,0.6,1.2,NORMAL,,WEEK 4,5,2024-12-24,28
STUDY001,LB,STUDY001-SUBJ0002,48,L00048,BILI,Total Bilirubin,CHEMISTRY,0.65,mg/dL,0.1,1.2,0.65,0.65,mg/dL,0.1,1.2,NORMAL,,WEEK 4,5,2024-12-24,28
STUDY001,LB,STUDY001-SUBJ0002,49,L00049,ALP,Alkaline Phosphatase,CHEMISTRY,88.63,U/L,44.0,147.0,88.63,88.63,U/L,44.0,147.0,NORMAL,,WEEK 4,5,2024-12-24,28
STUDY001,LB,STUDY001-SUBJ0002,50,L00050,ALT,Alanine Aminotransferase,CHEMISTRY,34.59,U/L,7.0,56.0,34.59,34.59,U/L,7.0,56.0,NORMAL,,WEEK 4,5,2024-12-24,28
STUDY001,LB,STUDY001-SUBJ0002,51,L00051,HGB,Hemoglobin,HEMATOLOGY,14.92,g/dL,13.5,17.5,14.92,14.92,g/dL,13.5,17.5,NORMAL,,WEEK 8,6,2025-01-21,56
STUDY001,LB,STUDY001-SUBJ0002,52,L00052,HCT,Hematocrit,HEMATOLOGY,44.13,%,41.0,51.0,44.13,44.13,%,41.0,51.0,NORMAL,,WEEK 8,6,2025-01-21,56
STUDY001,LB,STUDY001-SUBJ0002,53,L00053,WBC,White Blood Cell Count,HEMATOLOGY,4.39,10^9/L,4.5,11.0,4.39,4.39,10^9/L,4.5,11.0,LOW,,WEEK 8,6,2025-01-21,56
STUDY001,LB,STUDY001-SUBJ0002,54,L00054,PLT,Platelet Count,HEMATOLOGY,335.72,10^9/L,150.0,450.0,335.72,335.72,10^9/L,150.0,450.0,NORMAL,,WEEK 8,6,2025-01-21,56
STUDY001,LB,STUDY001-SUBJ0002,55,L00055,GLUC,Glucose,CHEMISTRY,89.34,mg/dL,70.0,100.0,89.34,89.34,mg/dL,70.0,100.0,NORMAL,,WEEK 8,6,2025-01-21,56
STUDY001,LB,STUDY001-SUBJ0002,56,L00056,BUN,Blood Urea Nitrogen,CHEMISTRY,12.74,mg/dL,7.0,20.0,12.74,12.74,mg/dL,7.0,20.0,NORMAL,,WEEK 8,6,2025-01-21,56
STUDY001,LB,STUDY001-SUBJ0002,57,L00057,CREAT,Creatinine,CHEMISTRY,0.92,mg/dL,0.6,1.2,0.92,0.92,mg/dL,0.6,1.2,NORMAL,,WEEK 8,6,2025-01-21,56
STUDY001,LB,STUDY001-SUBJ0002,58,L00058,BILI,Total Bilirubin,CHEMISTRY,0.64,mg/dL,0.1,1.2,0.64,0.64,mg/dL,0.1,1.2,NORMAL,,WEEK 8,6,2025-01-21,56
STUDY001,LB,STUDY001-SUBJ0002,59,L00059,ALP,Alkaline Phosphatase,CHEMISTRY,90.82,U/L,44.0,147.0,90.82,90.82,U/L,44.0,147.0,NORMAL,,WEEK 8,6,2025-01-21,56
STUDY001,LB,STUDY001-SUBJ0002,60,L00060,ALT,Alanine Aminotransferase,CHEMISTRY,35.45,U/L,7.0,56.0,35.45,35.45,U/L,7.0,56.0,NORMAL,,WEEK 8,6,2025-01-21,56
STUDY001,LB,STUDY001-SUBJ0002,61,L00061,HGB,Hemoglobin,HEMATOLOGY,14.93,g/dL,13.5,17.5,14.93,14.93,g/dL,13.5,17.5,NORMAL,,WEEK 12,7,2025-02-18,84
STUDY001,LB,STUDY001-SUBJ0002,62,L00062,HCT,Hematocrit,HEMATOLOGY,44.16,%,41.0,51.0,44.16,44.16,%,41.0,51.0,NORMAL,,WEEK 12,7,2025-02-18,84
STUDY001,LB,STUDY001-SUBJ0002,63,L00063,WBC,White Blood Cell Count,HEMATOLOGY,4.54,10^9/L,4.5,11.0,4.54,4.54,10^9/L,4.5,11.0,NORMAL,,WEEK 12,7,2025-02-18,84
STUDY001,LB,STUDY001-SUBJ0002,64,L00064,PLT,Platelet Count,HEMATOLOGY,331.27,10^9/L,150.0,450.0,331.27,331.27,10^9/L,150.0,450.0,NORMAL,,WEEK 12,7,2025-02-18,84
STUDY001,LB,STUDY001-SUBJ0002,65,L00065,GLUC,Glucose,CHEMISTRY,88.73,mg/dL,70.0,100.0,88.73,88.73,mg/dL,70.0,100.0,NORMAL,,WEEK 12,7,2025-02-18,84
STUDY001,LB,STUDY001-SUBJ0002,66,L00066,BUN,Blood Urea Nitrogen,CHEMISTRY,12.71,mg/dL,7.0,20.0,12.71,12.71,mg/dL,7.0,20.0,NORMAL,,WEEK 12,7,2025-02-18,84
STUDY001,LB,STUDY001-SUBJ0002,67,L00067,CREAT,Creatinine,CHEMISTRY,0.87,mg/dL,0.6,1.2,0.87,0.87,mg/dL,0.6,1.2,NORMAL,,WEEK 12,7,2025-02-18,84
STUDY001,LB,STUDY001-SUBJ0002,68,L00068,BILI,Total Bilirubin,CHEMISTRY,0.61,mg/dL,0.1,1.2,0.61,0.61,mg/dL,0.1,1.2,NORMAL,,WEEK 12,7,2025-02-18,84
STUDY001,LB,STUDY001-SUBJ0002,69,L00069,ALP,Alkaline Phosphatase,CHEMISTRY,88.81,U/L,44.0,147.0,88.81,88.81,U/L,44.0,147.0,NORMAL,,WEEK 12,7,2025-02-18,84
STUDY001,LB,STUDY001-SUBJ0002,70,L00070,ALT,Alanine Aminotransferase,CHEMISTRY,34.78,U/L,7.0,56.0,34.78,34.78,U/L,7.0,56.0,NORMAL,,WEEK 12,7,2025-02-18,84
STUDY001,LB,STUDY001-SUBJ0002,71,L00071,HGB,Hemoglobin,HEMATOLOGY,14.97,g/dL,13.5,17.5,14.97,14.97,g/dL,13.5,17.5,NORMAL,,WEEK 16,8,2025-03-18,112
STUDY001,LB,STUDY001-SUBJ0002,72,L00072,HCT,Hematocrit,HEMATOLOGY,44.21,%,41.0,51.0,44.21,44.21,%,41.0,51.0,NORMAL,,WEEK 16,8,2025-03-18,112
STUDY001,LB,STUDY001-SUBJ0002,73,L00073,WBC,White Blood Cell Count,HEMATOLOGY,4.34,10^9/L,4.5,11.0,4.34,4.34,10^9/L,4.5,11.0,LOW,,WEEK 16,8,2025-03-18,112
STUDY001,LB,STUDY001-SUBJ0002,74,L00074,PLT,Platelet Count,HEMATOLOGY,338.09,10^9/L,150.0,450.0,338.09,338.09,10^9/L,150.0,450.0,NORMAL,,WEEK 16,8,2025-03-18,112
STUDY001,LB,STUDY001-SUBJ0002,75,L00075,GLUC,Glucose,CHEMISTRY,88.91,mg/dL,70.0,100.0,88.91,88.91,mg/dL,70.0,100.0,NORMAL,,WEEK 16,8,2025-03-18,112
STUDY001,LB,STUDY001-SUBJ0002,76,L00076,BUN,Blood Urea Nitrogen,CHEMISTRY,13.84,mg/dL,7.0,20.0,13.84,13.84,mg/dL,7.0,20.0,NORMAL,,WEEK 16,8,2025-03-18,112
STUDY001,LB,STUDY001-SUBJ0002,77,L00077,CREAT,Creatinine,CHEMISTRY,0.89,mg/dL,0.6,1.2,0.89,0.89,mg/dL,0.6,1.2,NORMAL,,WEEK 16,8,2025-03-18,112
STUDY001,LB,STUDY001-SUBJ0002,78,L00078,BILI,Total Bilirubin,CHEMISTRY,0.62,mg/dL,0.1,1.2,0.62,0.62,mg/dL,0.1,1.2,NORMAL,,WEEK 16,8,2025-03-18,112
STUDY001,LB,STUDY001-SUBJ0002,79,L00079,ALP,Alkaline Phosphatase,CHEMISTRY,88.42,U/L,44.0,147.0,88.42,88.42,U/L,44.0,147.0,NORMAL,,WEEK 16,8,2025-03-18,112
STUDY001,LB,STUDY001-SUBJ0002,80,L00080,ALT,Alanine Aminotransferase,CHEMISTRY,35.16,U/L,7.0,56.0,35.16,35.16,U/L,7.0,56.0,NORMAL,,WEEK 16,8,2025-03-18,112
STUDY001,LB,STUDY001-SUBJ0002,81,L00081,HGB,Hemoglobin,HEMATOLOGY,14.96,g/dL,13.5,17.5,14.96,14.96,g/dL,13.5,17.5,NORMAL,,END OF TREATMENT,9,2025-04-15,140
STUDY001,LB,STUDY001-SUBJ0002,82,L00082,HCT,Hematocrit,HEMATOLOGY,44.53,%,41.0,51.0,44.53,44.53,%,41.0,51.0,NORMAL,,END OF TREATMENT,9,2025-04-15,140
STUDY001,LB,STUDY001-SUBJ0002,83,L00083,WBC,White Blood Cell Count,HEMATOLOGY,4.57,10^9/L,4.5,11.0,4.57,4.57,10^9/L,4.5,11.0,NORMAL,,END OF TREATMENT,9,2025-04-15,140
STUDY001,LB,STUDY001-SUBJ0002,84,L00084,PLT,Platelet Count,HEMATOLOGY,340.47,10^9/L,150.0,450.0,340.47,340.47,10^9/L,150.0,450.0,NORMAL,,END OF TREATMENT,9,2025-04-15,140
STUDY001,LB,STUDY001-SUBJ0002,85,L00085,GLUC,Glucose,CHEMISTRY,88.64,mg/dL,70.0,100.0,88.64,88.64,mg/dL,70.0,100.0,NORMAL,,END OF TREATMENT,9,2025-04-15,140
STUDY001,LB,STUDY001-SUBJ0002,86,L00086,BUN,Blood Urea Nitrogen,CHEMISTRY,13.41,mg/dL,7.0,20.0,13.41,13.41,mg/dL,7.0,20.0,NORMAL,,END OF TREATMENT,9,2025-04-15,140
STUDY001,LB,STUDY001-SUBJ0002,87,L00087,CREAT,Creatinine,CHEMISTRY,0.91,mg/dL,0.6,1.2,0.91,0.91,mg/dL,0.6,1.2,NORMAL,,END OF TREATMENT,9,2025-04-15,140
STUDY001,LB,STUDY001-SUBJ0002,88,L00088,BILI,Total Bilirubin,CHEMISTRY,0.63,mg/dL,0.1,1.2,0.63,0.63,mg/dL,0.1,1.2,NORMAL,,END OF TREATMENT,9,2025-04-15,140
STUDY001,LB,STUDY001-SUBJ0002,89,L00089,ALP,Alkaline Phosphatase,CHEMISTRY,90.1,U/L,44.0,147.0,90.1,90.1,U/L,44.0,147.0,NORMAL,,END OF TREATMENT,9,2025-04-15,140
STUDY001,LB,STUDY001-SUBJ0002,90,L00090,ALT,Alanine Aminotransferase,CHEMISTRY,35.28,U/L,7.0,56.0,35.28,35.28,U/L,7.0,56.0,NORMAL,,END OF TREATMENT,9,2025-04-15,140
STUDY001,LB,STUDY001-SUBJ0003,1,L00001,HGB,Hemoglobin,HEMATOLOGY,14.54,g/dL,13.5,17.5,14.54,14.54,g/dL,13.5,17.5,NORMAL,,SCREENING,1,2025-06-10,-14
STUDY001,LB,STUDY001-SUBJ0003,2,L00002,HCT,Hematocrit,HEMATOLOGY,47.1,%,41.0,51.0,47.1,47.1,%,41.0,51.0,NORMAL,,SCREENING,1,2025-06-10,-14
STUDY001,LB,STUDY001-SUBJ0003,3,L00003,WBC,White Blood Cell Count,HEMATOLOGY,7.45,10^9/L,4.5,11.0,7.45,7.45,10^9/L,4.5,11.0,NORMAL,,SCREENING,1,2025-06-10,-14
STUDY001,LB,STUDY001-SUBJ0003,4,L00004,PLT,Platelet Count,HEMATOLOGY,271.87,10^9/L,150.0,450.0,271.87,271.87,10^9/L,150.0,450.0,NORMAL,,SCREENING,1,2025-06-10,-14
STUDY001,LB,STUDY001-SUBJ0003,5,L00005,GLUC,Glucose,CHEMISTRY,76.6,mg/dL,70.0,100.0,76.6,76.6,mg/dL,70.0,100.0,NORMAL,,SCREENING,1,2025-06-10,-14
STUDY001,LB,STUDY001-SUBJ0003,6,L00006,BUN,Blood Urea Nitrogen,CHEMISTRY,12.36,mg/dL,7.0,20.0,12.36,12.36,mg/dL,7.0,20.0,NORMAL,,SCREENING,1,2025-06-10,-14
STUDY001,LB,STUDY001-SUBJ0003,7,L00007,CREAT,Creatinine,CHEMISTRY,1.14,mg/dL,0.6,1.2,1.14,1.14,mg/dL,0.6,1.2,NORMAL,,SCREENING,1,2025-06-10,-14
STUDY001,LB,STUDY001-SUBJ0003,8,L00008,BILI,Total Bilirubin,CHEMISTRY,0.46,mg/dL,0.1,1.2,0.46,0.46,mg/dL,0.1,1.2,NORMAL,,SCREENING,1,2025-06-10,-14
STUDY001,LB,STUDY001-SUBJ0003,9,L00009,ALP,Alkaline Phosphatase,CHEMISTRY,101.55,U/L,44.0,147.0,101.55,101.55,U/L,44.0,147.0,NORMAL,,SCREENING,1,2025-06-10,-14
STUDY001,LB,STUDY001-SUBJ0003,10,L00010,ALT,Alanine Aminotransferase,CHEMISTRY,22.63,U/L,7.0,56.0,22.63,22.63,U/L,7.0,56.0,NORMAL,,SCREENING,1,2025-06-10,-14
STUDY001,LB,STUDY001-SUBJ0003,11,L00011,HGB,Hemoglobin,HEMATOLOGY,14.34,g/dL,13.5,17.5,14.34,14.34,g/dL,13.5,17.5,NORMAL,Y,BASELINE,2,2025-06-24,1
STUDY001,LB,STUDY001-SUBJ0003,12,L00012,HCT,Hematocrit,HEMATOLOGY,47.65,%,41.0,51.0,47.65,47.65,%,41.0,51.0,NORMAL,Y,BASELINE,2,2025-06-24,1
STUDY001,LB,STUDY001-SUBJ0003,13,L00013,WBC,White Blood Cell Count,HEMATOLOGY,7.39,10^9/L,4.5,11.0,7.39,7.39,10^9/L,4.5,11.0,NORMAL,Y,BASELINE,2,2025-06-24,1
STUDY001,LB,STUDY001-SUBJ0003,14,L00014,PLT,Platelet Count,HEMATOLOGY,270.53,10^9/L,150.0,450.0,270.53,270.53,10^9/L,150.0,450.0,NORMAL,Y,BASELINE,2,2025-06-24,1
STUDY001,LB,STUDY001-SUBJ0003,15,L00015,GLUC,Glucose,CHEMISTRY,76.67,mg/dL,70.0,100.0,76.67,76.67,mg/dL,70.0,100.0,NORMAL,Y,BASELINE,2,2025-06-24,1
STUDY001,LB,STUDY001-SUBJ0003,16,L00016,BUN,Blood Urea Nitrogen,CHEMISTRY,12.5,mg/dL,7.0,20.0,12.5,12.5,mg/dL,7.0,20.0,NORMAL,Y,BASELINE,2,2025-06-24,1
STUDY001,LB,STUDY001-SUBJ0003,17,L00017,CREAT,Creatinine,CHEMISTRY,1.15,mg/dL,0.6,1.2,1.15,1.15,mg/dL,0.6,1.2,NORMAL,Y,BASELINE,2,2025-06-24,1
STUDY001,LB,STUDY001-SUBJ0003,18,L00018,BILI,Total Bilirubin,CHEMISTRY,0.46,mg/dL,0.1,1.2,0.46,0.46,mg/dL,0.1,1.2,NORMAL,Y,BASELINE,2,2025-06-24,1
STUDY001,LB,STUDY001-SUBJ0003,19,L00019,ALP,Alkaline Phosphatase,CHEMISTRY,94.56,U/L,44.0,147.0,94.56,94.56,U/L,44.0,147.0,NORMAL,Y,BASELINE,2,2025-06-24,1
STUDY001,LB,STUDY001-SUBJ0003,20,L00020,ALT,Alanine Aminotransferase,CHEMISTRY,21.68,U/L,7.0,56.0,21.68,21.68,U/L,7.0,56.0,NORMAL,Y,BASELINE,2,2025-06-24,1
STUDY001,LB,STUDY001-SUBJ0003,21,L00021,HGB,Hemoglobin,HEMATOLOGY,14.63,g/dL,13.5,17.5,14.63,14.63,g/dL,13.5,17.5,NORMAL,,WEEK 1,3,2025-06-30,7
STUDY001,LB,STUDY001-SUBJ0003,22,L00022,HCT,Hematocrit,HEMATOLOGY,47.74,%,41.0,51.0,47.74,47.74,%,41.0,51.0,NORMAL,,WEEK 1,3,2025-06-30,7
STUDY001,LB,STUDY001-SUBJ0003,23,L00023,WBC,White Blood Cell Count,HEMATOLOGY,7.37,10^9/L,4.5,11.0,7.37,7.37,10^9/L,4.5,11.0,NORMAL,,WEEK 1,3,2025-06-30,7
STUDY001,LB,STUDY001-SUBJ0003,24,L00024,PLT,Platelet Count,HEMATOLOGY,269.88,10^9/L,150.0,450.0,269.88,269.88,10^9/L,150.0,450.0,NORMAL,,WEEK 1,3,2025-06-30,7
STUDY001,LB,STUDY001-SUBJ0003,25,L00025,GLUC,Glucose,CHEMISTRY,76.47,mg/dL,70.0,100.0,76.47,76.47,mg/dL,70.0,100.0,NORMAL,,WEEK 1,3,2025-06-30,7
STUDY001,LB,STUDY001-SUBJ0003,26,L00026,BUN,Blood Urea Nitrogen,CHEMISTRY,12.51,mg/dL,7.0,20.0,12.51,12.51,mg/dL,7.0,20.0,NORMAL,,WEEK 1,3,2025-06-30,7
STUDY001,LB,STUDY001-SUBJ0003,27,L00027,CREAT,Creatinine,CHEMISTRY,1.11,mg/dL,0.6,1.2,1.11,1.11,mg/dL,0.6,1.2,NORMAL,,WEEK 1,3,2025-06-30,7
STUDY001,LB,STUDY001-SUBJ0003,28,L00028,BILI,Total Bilirubin,CHEMISTRY,0.47,mg/dL,0.1,1.2,0.47,0.47,mg/dL,0.1,1.2,NORMAL,,WEEK 1,3,2025-06-30,7
STUDY001,LB,STUDY001-SUBJ0003,29,L00029,ALP,Alkaline Phosphatase,CHEMISTRY,95.54,U/L,44.0,147.0,95.54,95.54,U/L,44.0,147.0,NORMAL,,WEEK 1,3,2025-06-30,7
STUDY001,LB,STUDY001-SUBJ0003,30,L00030,ALT,Alanine Aminotransferase,CHEMISTRY,19.84,U/L,7.0,56.0,19.84,19.84,U/L,7.0,56.0,NORMAL,,WEEK 1,3,2025-06-30,7
STUDY001,LB,STUDY001-SUBJ0003,31,L00031,HGB,Hemoglobin,HEMATOLOGY,14.52,g/dL,13.5,17.5,14.52,14.52,g/dL,13.5,17.5,NORMAL,,WEEK 2,4,2025-07-07,14
STUDY001,LB,STUDY001-SUBJ0003,32,L00032,HCT,Hematocrit,HEMATOLOGY,47.39,%,41.0,51.0,47.39,47.39,%,41.0,51.0,NORMAL,,WEEK 2,4,2025-07-07,14
STUDY001,LB,STUDY001-SUBJ0003,33,L00033,WBC,White Blood Cell Count,HEMATOLOGY,7.18,10^9/L,4.5,11.0,7.18,7.18,10^9/L,4.5,11.0,NORMAL,,WEEK 2,4,2025-07-07,14
STUDY001,LB,STUDY001-SUBJ0003,34,L00034,PLT,Platelet Count,HEMATOLOGY,271.16,10^9/L,150.0,450.0,271.16,271.16,10^9/L,150.0,450.0,NORMAL,,WEEK 2,4,2025-07-07,14
STUDY001,LB,STUDY001-SUBJ0003,35,L00035,GLUC,Glucose,CHEMISTRY,76.08,mg/dL,70.0,100.0,76.08,76.08,mg/dL,70.0,100.0,NORMAL,,WEEK 2,4,2025-07-07,14
STUDY001,LB,STUDY001-SUBJ0003,36,L00036,BUN,Blood Urea Nitrogen,CHEMISTRY,13.28,mg/dL,7.0,20.0,13.28,13.28,mg/dL,7.0,20.0,NORMAL,,WEEK 2,4,2025-07-07,14
STUDY001,LB,STUDY001-SUBJ0003,37,L00037,CREAT,Creatinine,CHEMISTRY,1.14,mg/dL,0.6,1.2,1.14,1.14,mg/dL,0.6,1.2,NORMAL,,WEEK 2,4,2025-07-07,14
STUDY001,LB,STUDY001-SUBJ0003,38,L00038,BILI,Total Bilirubin,CHEMISTRY,0.47,mg/dL,0.1,1.2,0.47,0.47,mg/dL,0.1,1.2,NORMAL,,WEEK 2,4,2025-07-07,14
STUDY001,LB,STUDY001-SUBJ0003,39,L00039,ALP,Alkaline Phosphatase,CHEMISTRY,99.29,U/L,44.0,147.0,99.29,99.29,U/L,44.0,147.0,NORMAL,,WEEK 2,4,2025-07-07,14
STUDY001,LB,STUDY001-SUBJ0003,40,L00040,ALT,Alanine Aminotransferase,CHEMISTRY,21.07,U/L,7.0,56.0,21.07,21.07,U/L,7.0,56.0,NORMAL,,WEEK 2,4,2025-07-07,14
STUDY001,LB,STUDY001-SUBJ0003,41,L00041,HGB,Hemoglobin,HEMATOLOGY,14.55,g/dL,13.5,17.5,14.55,14.55,g/dL,13.5,17.5,NORMAL,,WEEK 4,5,2025-07-21,28
STUDY001,LB,STUDY001-SUBJ0003,42,L00042,HCT,Hematocrit,HEMATOLOGY,47.95,%,41.0,51.0,47.95,47.95,%,41.0,51.0,NORMAL,,WEEK 4,5,2025-07-21,28
STUDY001,LB,STUDY001-SUBJ0003,43,L00043,WBC,White Blood Cell Count,HEMATOLOGY,7.13,10^9/L,4.5,11.0,7.13,7.13,10^9/L,4.5,11.0,NORMAL,,WEEK 4,5,2025-07-21,28
STUDY001,LB,STUDY001-SUBJ0003,44,L00044,PLT,Platelet Count,HEMATOLOGY,269.73,10^9/L,150.0,450.0,269.73,269.73,10^9/L,150.0,450.0,NORMAL,,WEEK 4,5,2025-07-21,28
STUDY001,LB,STUDY001-SUBJ0003,45,L00045,GLUC,Glucose,CHEMISTRY,76.56,mg/dL,70.0,100.0,76.56,76.56,mg/dL,70.0,100.0,NORMAL,,WEEK 4,5,2025-07-21,28
STUDY001,LB,STUDY001-SUBJ0003,46,L00046,BUN,Blood Urea Nitrogen,CHEMISTRY,12.51,mg/dL,7.0,20.0,12.51,12.51,mg/dL,7.0,20.0,NORMAL,,WEEK 4,5,2025-07-21,28
STUDY001,LB,STUDY001-SUBJ0003,47,L00047,CREAT,Creatinine,CHEMISTRY,1.14,mg/dL,0.6,1.2,1.14,1.14,mg/dL,0.6,1.2,NORMAL,,WEEK 4,5,2025-07-21,28
STUDY001,LB,STUDY001-SUBJ0003,48,L00048,BILI,Total Bilirubin,CHEMISTRY,0.49,mg/dL,0.1,1.2,0.49,0.49,mg/dL,0.1,1.2,NORMAL,,WEEK 4,5,2025-07-21,28
STUDY001,LB,STUDY001-SUBJ0003,49,L00049,ALP,Alkaline Phosphatase,CHEMISTRY,101.3,U/L,44.0,147.0,101.3,101.3,U/L,44.0,147.0,NORMAL,,WEEK 4,5,2025-07-21,28
STUDY001,LB,STUDY001-SUBJ0003,50,L00050,ALT,Alanine Aminotransferase,CHEMISTRY,20.49,U/L,7.0,56.0,20.49,20.49,U/L,7.0,56.0,NORMAL,,WEEK 4,5,2025-07-21,28
STUDY001,LB,STUDY001-SUBJ0003,51,L00051,HGB,Hemoglobin,HEMATOLOGY,14.42,g/dL,13.5,17.5,14.42,14.42,g/dL,13.5,17.5,NORMAL,,WEEK 8,6,2025-08-18,56
STUDY001,LB,STUDY001-SUBJ0003,52,L00052,HCT,Hematocrit,HEMATOLOGY,46.95,%,41.0,51.0,46.95,46.95,%,41.0,51.0,NORMAL,,WEEK 8,6,2025-08-18,56
STUDY001,LB,STUDY001-SUBJ0003,53,L00053,WBC,White Blood Cell Count,HEMATOLOGY,7.31,10^9/L,4.5,11.0,7.31,7.31,10^9/L,4.5,11.0,NORMAL,,WEEK 8,6,2025-08-18,56
STUDY001,LB,STUDY001-SUBJ0003,54,L00054,PLT,Platelet Count,HEMATOLOGY,268.31,10^9/L,150.0,450.0,268.31,268.31,10^9/L,150.0,450.0,NORMAL,,WEEK 8,6,2025-08-18,56
STUDY001,LB,STUDY001-SUBJ0003,55,L00055,GLUC,Glucose,CHEMISTRY,76.52,mg/dL,70.0,100.0,76.52,76.52,mg/dL,70.0,100.0,NORMAL,,WEEK 8,6,2025-08-18,56
STUDY001,LB,STUDY001-SUBJ0003,56,L00056,BUN,Blood Urea Nitrogen,CHEMISTRY,12.44,mg/dL,7.0,20.0,12.44,12.44,mg/dL,7.0,20.0,NORMAL,,WEEK 8,6,2025-08-18,56
STUDY001,LB,STUDY001-SUBJ0003,57,L00057,CREAT,Creatinine,CHEMISTRY,1.14,mg/dL,0.6,1.2,1.14,1.14,mg/dL,0.6,1.2,NORMAL,,WEEK 8,6,2025-08-18,56
STUDY001,LB,STUDY001-SUBJ0003,58,L00058,BILI,Total Bilirubin,CHEMISTRY,0.41,mg/dL,0.1,1.2,0.41,0.41,mg/dL,0.1,1.2,NORMAL,,WEEK 8,6,2025-08-18,56
STUDY001,LB,STUDY001-SUBJ0003,59,L00059,ALP,Alkaline Phosphatase,CHEMISTRY,102.6,U/L,44.0,147.0,102.6,102.6,U/L,44.0,147.0,NORMAL,,WEEK 8,6,2025-08-18,56
STUDY001,LB,STUDY001-SUBJ0003,60,L00060,ALT,Alanine Aminotransferase,CHEMISTRY,21.75,U/L,7.0,56.0,21.75,21.75,U/L,7.0,56.0,NORMAL,,WEEK 8,6,2025-08-18,56
STUDY001,LB,STUDY001-SUBJ0003,61,L00061,HGB,Hemoglobin,HEMATOLOGY,14.37,g/dL,13.5,17.5,14.37,14.37,g/dL,13.5,17.5,NORMAL,,WEEK 12,7,2025-09-15,84
STUDY001,LB,STUDY001-SUBJ0003,62,L00062,HCT,Hematocrit,HEMATOLOGY,47.39,%,41.0,51.0,47.39,47.39,%,41.0,51.0,NORMAL,,WEEK 12,7,2025-09-15,84
STUDY001,LB,STUDY001-SUBJ0003,63,L00063,WBC,White Blood Cell Count,HEMATOLOGY,7.04,10^9/L,4.5,11.0,7.04,7.04,10^9/L,4.5,11.0,NORMAL,,WEEK 12,7,2025-09-15,84
STUDY001,LB,STUDY001-SUBJ0003,64,L00064,PLT,Platelet Count,HEMATOLOGY,269.17,10^9/L,150.0,450.0,269.17,269.17,10^9/L,150.0,450.0,NORMAL,,WEEK 12,7,2025-09-15,84
STUDY001,LB,STUDY001-SUBJ0003,65,L00065,GLUC,Glucose,CHEMISTRY,74.76,mg/dL,70.0,100.0,74.76,74.76,mg/dL,70.0,100.0,NORMAL,,WEEK 12,7,2025-09-15,84
STUDY001,LB,STUDY001-SUBJ0003,66,L00066,BUN,Blood Urea Nitrogen,CHEMISTRY,12.47,mg/dL,7.0,20.0,12.47,12.47,mg/dL,7.0,20.0,NORMAL,,WEEK 12,7,2025-09-15,84
STUDY001,LB,STUDY001-SUBJ0003,67,L00067,CREAT,Creatinine,CHEMISTRY,1.12,mg/dL,0.6,1.2,1.12,1.12,mg/dL,0.6,1.2,NORMAL,,WEEK 12,7,2025-09-15,84
STUDY001,LB,STUDY001-SUBJ0003,68,L00068,BILI,Total Bilirubin,CHEMISTRY,0.46,mg/dL,0.1,1.2,0.46,0.46,mg/dL,0.1,1.2,NORMAL,,WEEK 12,7,2025-09-15,84
STUDY001,LB,STUDY001-SUBJ0003,69,L00069,ALP,Alkaline Phosphatase,CHEMISTRY,100.38,U/L,44.0,147.0,100.38,100.38,U/L,44.0,147.0,NORMAL,,WEEK 12,7,2025-09-15,84
STUDY001,LB,STUDY001-SUBJ0003,70,L00070,ALT,Alanine Aminotransferase,CHEMISTRY,20.05,U/L,7.0,56.0,20.05,20.05,U/L,7.0,56.0,NORMAL,,WEEK 12,7,2025-09-15,84
STUDY001,LB,STUDY001-SUBJ0003,71,L00071,HGB,Hemoglobin,HEMATOLOGY,14.39,g/dL,13.5,17.5,14.39,14.39,g/dL,13.5,17.5,NORMAL,,WEEK 16,8,2025-10-13,112
STUDY001,LB,STUDY001-SUBJ0003,72,L00072,HCT,Hematocrit,HEMATOLOGY,47.53,%,41.0,51.0,47.53,47.53,%,41.0,51.0,NORMAL,,WEEK 16,8,2025-10-13,112
STUDY001,LB,STUDY001-SUBJ0003,73,L00073,WBC,White Blood Cell Count,HEMATOLOGY,7.27,10^9/L,4.5,11.0,7.27,7.27,10^9/L,4.5,11.0,NORMAL,,WEEK 16,8,2025-10-13,112
STUDY001,LB,STUDY001-SUBJ0003,74,L00074,PLT,Platelet Count,HEMATOLOGY,279.89,10^9/L,150.0,450.0,279.89,279.89,10^9/L,150.0,450.0,NORMAL,,WEEK 16,8,2025-10-13,112
STUDY001,LB,STUDY001-SUBJ0003,75,L00075,GLUC,Glucose,CHEMISTRY,75.74,mg/dL,70.0,100.0,75.74,75.74,mg/dL,70.0,100.0,NORMAL,,WEEK 16,8,2025-10-13,112
STUDY001,LB,STUDY001-SUBJ0003,76,L00076,BUN,Blood Urea Nitrogen,CHEMISTRY,12.26,mg/dL,7.0,20.0,12.26,12.26,mg/dL,7.0,20.0,NORMAL,,WEEK 16,8,2025-10-13,112
STUDY001,LB,STUDY001-SUBJ0003,77,L00077,CREAT,Creatinine,CHEMISTRY,1.18,mg/dL,0.6,1.2,1.18,1.18,mg/dL,0.6,1.2,NORMAL,,WEEK 16,8,2025-10-13,112
STUDY001,LB,STUDY001-SUBJ0003,78,L00078,BILI,Total Bilirubin,CHEMISTRY,0.47,mg/dL,0.1,1.2,0.47,0.47,mg/dL,0.1,1.2,NORMAL,,WEEK 16,8,2025-10-13,112
STUDY001,LB,STUDY001-SUBJ0003,79,L00079,ALP,Alkaline Phosphatase,CHEMISTRY,101.53,U/L,44.0,147.0,101.53,101.53,U/L,44.0,147.0,NORMAL,,WEEK 16,8,2025-10-13,112
STUDY001,LB,STUDY001-SUBJ0003,80,L00080,ALT,Alanine Aminotransferase,CHEMISTRY,21.4,U/L,7.0,56.0,21.4,21.4,U/L,7.0,56.0,NORMAL,,WEEK 16,8,2025-10-13,112
STUDY001,LB,STUDY001-SUBJ0003,81,L00081,HGB,Hemoglobin,HEMATOLOGY,14.51,g/dL,13.5,17.5,14.51,14.51,g/dL,13.5,17.5,NORMAL,,END OF TREATMENT,9,2025-11-10,140
STUDY001,LB,STUDY001-SUBJ0003,82,L00082,HCT,Hematocrit,HEMATOLOGY,47.15,%,41.0,51.0,47.15,47.15,%,41.0,51.0,NORMAL,,END OF TREATMENT,9,2025-11-10,140
STUDY001,LB,STUDY001-SUBJ0003,83,L00083,WBC,White Blood Cell Count,HEMATOLOGY,7.11,10^9/L,4.5,11.0,7.11,7.11,10^9/L,4.5,11.0,NORMAL,,END OF TREATMENT,9,2025-11-10,140
STUDY001,LB,STUDY001-SUBJ0003,84,L00084,PLT,Platelet Count,HEMATOLOGY,268.88,10^9/L,150.0,450.0,268.88,268.88,10^9/L,150.0,450.0,NORMAL,,END OF TREATMENT,9,2025-11-10,140
STUDY001,LB,STUDY001-SUBJ0003,85,L00085,GLUC,Glucose,CHEMISTRY,74.64,mg/dL,70.0,100.0,74.64,74.64,mg/dL,70.0,100.0,NORMAL,,END OF TREATMENT,9,2025-11-10,140
STUDY001,LB,STUDY001-SUBJ0003,86,L00086,BUN,Blood Urea Nitrogen,CHEMISTRY,12.74,mg/dL,7.0,20.0,12.74,12.74,mg/dL,7.0,20.0,NORMAL,,END OF TREATMENT,9,2025-11-10,140
STUDY001,LB,STUDY001-SUBJ0003,87,L00087,CREAT,Creatinine,CHEMISTRY,1.16,mg/dL,0.6,1.2,1.16,1.16,mg/dL,0.6,1.2,NORMAL,,END OF TREATMENT,9,2025-11-10,140
STUDY001,LB,STUDY001-SUBJ0003,88,L00088,BILI,Total Bilirubin,CHEMISTRY,0.44,mg/dL,0.1,1.2,0.44,0.44,mg/dL,0.1,1.2,NORMAL,,END OF TREATMENT,9,2025-11-10,140
STUDY001,LB,STUDY001-SUBJ0003,89,L00089,ALP,Alkaline Phosphatase,CHEMISTRY,98.43,U/L,44.0,147.0,98.43,98.43,U/L,44.0,147.0,NORMAL,,END OF TREATMENT,9,2025-11-10,140
STUDY001,LB,STUDY001-SUBJ0003,90,L00090,ALT,Alanine Aminotransferase,CHEMISTRY,20.65,U/L,7.0,56.0,20.65,20.65,U/L,7.0,56.0,NORMAL,,END OF TREATMENT,9,2025-11-10,140
STUDY001,LB,STUDY001-SUBJ0004,1,L00001,HGB,Hemoglobin,HEMATOLOGY,15.33,g/dL,13.5,17.5,15.33,15.33,g/dL,13.5,17.5,NORMAL,,SCREENING,1,2025-05-12,-14
STUDY001,LB,STUDY001-SUBJ0004,2,L00002,HCT,Hematocrit,HEMATOLOGY,46.79,%,41.0,51.0,46.79,46.79,%,41.0,51.0,NORMAL,,SCREENING,1,2025-05-12,-14
STUDY001,LB,STUDY001-SUBJ0004,3,L00003,WBC,White Blood Cell Count,HEMATOLOGY,9.02,10^9/L,4.5,11.0,9.02,9.02,10^9/L,4.5,11.0,NORMAL,,SCREENING,1,2025-05-12,-14
STUDY001,LB,STUDY001-SUBJ0004,4,L00004,PLT,Platelet Count,HEMATOLOGY,285.42,10^9/L,150.0,450.0,285.42,285.42,10^9/L,150.0,450.0,NORMAL,,SCREENING,1,2025-05-12,-14
STUDY001,LB,STUDY001-SUBJ0004,5,L00005,GLUC,Glucose,CHEMISTRY,96.69,mg/dL,70.0,100.0,96.69,96.69,mg/dL,70.0,100.0,NORMAL,,SCREENING,1,2025-05-12,-14
STUDY001,LB,STUDY001-SUBJ0004,6,L00006,BUN,Blood Urea Nitrogen,CHEMISTRY,21.46,mg/dL,7.0,20.0,21.46,21.46,mg/dL,7.0,20.0,HIGH,,SCREENING,1,2025-05-12,-14
STUDY001,LB,STUDY001-SUBJ0004,7,L00007,CREAT,Creatinine,CHEMISTRY,0.93,mg/dL,0.6,1.2,0.93,0.93,mg/dL,0.6,1.2,NORMAL,,SCREENING,1,2025-05-12,-14
STUDY001,LB,STUDY001-SUBJ0004,8,L00008,BILI,Total Bilirubin,CHEMISTRY,0.67,mg/dL,0.1,1.2,0.67,0.67,mg/dL,0.1,1.2,NORMAL,,SCREENING,1,2025-05-12,-14
STUDY001,LB,STUDY001-SUBJ0004,9,L00009,ALP,Alkaline Phosphatase,CHEMISTRY,88.31,U/L,44.0,147.0,88.31,88.31,U/L,44.0,147.0,NORMAL,,SCREENING,1,2025-05-12,-14
STUDY001,LB,STUDY001-SUBJ0004,10,L00010,ALT,Alanine Aminotransferase,CHEMISTRY,21.55,U/L,7.0,56.0,21.55,21.55,U/L,7.0,56.0,NORMAL,,SCREENING,1,2025-05-12,-14
STUDY001,LB,STUDY001-SUBJ0004,11,L00011,HGB,Hemoglobin,HEMATOLOGY,15.34,g/dL,13.5,17.5,15.34,15.34,g/dL,13.5,17.5,NORMAL,Y,BASELINE,2,2025-05-26,1
STUDY001,LB,STUDY001-SUBJ0004,12,L00012,HCT,Hematocrit,HEMATOLOGY,46.62,%,41.0,51.0,46.62,46.62,%,41.0,51.0,NORMAL,Y,BASELINE,2,2025-05-26,1
STUDY001,LB,STUDY001-SUBJ0004,13,L00013,WBC,White Blood Cell Count,HEMATOLOGY,9.23,10^9/L,4.5,11.0,9.23,9.23,10^9/L,4.5,11.0,NORMAL,Y,BASELINE,2,2025-05-26,1
STUDY001,LB,STUDY001-SUBJ0004,14,L00014,PLT,Platelet Count,HEMATOLOGY,283.5,10^9/L,150.0,450.0,283.5,283.5,10^9/L,150.0,450.0,NORMAL,Y,BASELINE,2,2025-05-26,1
STUDY001,LB,STUDY001-SUBJ0004,15,L00015,GLUC,Glucose,CHEMISTRY,97.56,mg/dL,70.0,100.0,97.56,97.56,mg/dL,70.0,100.0,NORMAL,Y,BASELINE,2,2025-05-26,1
STUDY001,LB,STUDY001-SUBJ0004,16,L00016,BUN,Blood Urea Nitrogen,CHEMISTRY,21.84,mg/dL,7.0,20.0,21.84,21.84,mg/dL,7.0,20.0,HIGH,Y,BASELINE,2,2025-05-26,1
STUDY001,LB,STUDY001-SUBJ0004,17,L00017,CREAT,Creatinine,CHEMISTRY,0.93,mg/dL,0.6,1.2,0.93,0.93,mg/dL,0.6,1.2,NORMAL,Y,BASELINE,2,2025-05-26,1
STUDY001,LB,STUDY001-SUBJ0004,18,L00018,BILI,Total Bilirubin,CHEMISTRY,0.64,mg/dL,0.1,1.2,0.64,0.64,mg/dL,0.1,1.2,NORMAL,Y,BASELINE,2,2025-05-26,1
STUDY001,LB,STUDY001-SUBJ0004,19,L00019,ALP,Alkaline Phosphatase,CHEMISTRY,86.16,U/L,44.0,147.0,86.16,86.16,U/L,44.0,147.0,NORMAL,Y,BASELINE,2,2025-05-26,1
STUDY001,LB,STUDY001-SUBJ0004,20,L00020,ALT,Alanine Aminotransferase,CHEMISTRY,21.57,U/L,7.0,56.0,21.57,21.57,U/L,7.0,56.0,NORMAL,Y,BASELINE,2,2025-05-26,1
STUDY001,LB,STUDY001-SUBJ0004,21,L00021,HGB,Hemoglobin,HEMATOLOGY,15.25,g/dL,13.5,17.5,15.25,15.25,g/dL,13.5,17.5,NORMAL,,WEEK 1,3,2025-06-01,7
STUDY001,LB,STUDY001-SUBJ0004,22,L00022,HCT,Hematocrit,HEMATOLOGY,46.97,%,41.0,51.0,46.97,46.97,%,41.0,51.0,NORMAL,,WEEK 1,3,2025-06-01,7
STUDY001,LB,STUDY001-SUBJ0004,23,L00023,WBC,White Blood Cell Count,HEMATOLOGY,9.05,10^9/L,4.5,11.0,9.05,9.05,10^9/L,4.5,11.0,NORMAL,,WEEK 1,3,2025-06-01,7
STUDY001,LB,STUDY001-SUBJ0004,24,L00024,PLT,Platelet Count,HEMATOLOGY,283.19,10^9/L,150.0,450.0,283.19,283.19,10^9/L,150.0,450.0,NORMAL,,WEEK 1,3,2025-06-01,7
STUDY001,LB,STUDY001-SUBJ0004,25,L00025,GLUC,Glucose,CHEMISTRY,98.27,mg/dL,70.0,100.0,98.27,98.27,mg/dL,70.0,100.0,NORMAL,,WEEK 1,3,2025-06-01,7
STUDY001,LB,STUDY001-SUBJ0004,26,L00026,BUN,Blood Urea Nitrogen,CHEMISTRY,22.6,mg/dL,7.0,20.0,22.6,22.6,mg/dL,7.0,20.0,HIGH,,WEEK 1,3,2025-06-01,7
STUDY001,LB,STUDY001-SUBJ0004,27,L00027,CREAT,Creatinine,CHEMISTRY,0.92,mg/dL,0.6,1.2,0.92,0.92,mg/dL,0.6,1.2,NORMAL,,WEEK 1,3,2025-06-01,7
STUDY001,LB,STUDY001-SUBJ0004,28,L00028,BILI,Total Bilirubin,CHEMISTRY,0.64,mg/dL,0.1,1.2,0.64,0.64,mg/dL,0.1,1.2,NORMAL,,WEEK 1,3,2025-06-01,7
STUDY001,LB,STUDY001-SUBJ0004,29,L00029,ALP,Alkaline Phosphatase,CHEMISTRY,88.9,U/L,44.0,147.0,88.9,88.9,U/L,44.0,147.0,NORMAL,,WEEK 1,3,2025-06-01,7
STUDY001,LB,STUDY001-SUBJ0004,30,L00030,ALT,Alanine Aminotransferase,CHEMISTRY,21.89,U/L,7.0,56.0,21.89,21.89,U/L,7.0,56.0,NORMAL,,WEEK 1,3,2025-06-01,7
STUDY001,LB,STUDY001-SUBJ0004,31,L00031,HGB,Hemoglobin,HEMATOLOGY,15.43,g/dL,13.5,17.5,15.43,15.43,g/dL,13.5,17.5,NORMAL,,WEEK 2,4,2025-06-08,14
STUDY001,LB,STUDY001-SUBJ0004,32,L00032,HCT,Hematocrit,HEMATOLOGY,46.75,%,41.0,51.0,46.75,46.75,%,41.0,51.0,NORMAL,,WEEK 2,4,2025-06-08,14
STUDY001,LB,STUDY001-SUBJ0004,33,L00033,WBC,White Blood Cell Count,HEMATOLOGY,9.1,10^9/L,4.5,11.0,9.1,9.1,10^9/L,4.5,11.0,NORMAL,,WEEK 2,4,2025-06-08,14
STUDY001,LB,STUDY001-SUBJ0004,34,L00034,PLT,Platelet Count,HEMATOLOGY,284.33,10^9/L,150.0,450.0,284.33,284.33,10^9/L,150.0,450.0,NORMAL,,WEEK 2,4,2025-06-08,14
STUDY001,LB,STUDY001-SUBJ0004,35,L00035,GLUC,Glucose,CHEMISTRY,96.45,mg/dL,70.0,100.0,96.45,96.45,mg/dL,70.0,100.0,NORMAL,,WEEK 2,4,2025-06-08,14
STUDY001,LB,STUDY001-SUBJ0004,36,L00036,BUN,Blood Urea Nitrogen,CHEMISTRY,22.62,mg/dL,7.0,20.0,22.62,22.62,mg/dL,7.0,20.0,HIGH,,WEEK 2,4,2025-06-08,14
STUDY001,LB,STUDY001-SUBJ0004,37,L00037,CREAT,Creatinine,CHEMISTRY,0.93,mg/dL,0.6,1.2,0.93,0.93,mg/dL,0.6,1.2,NORMAL,,WEEK 2,4,2025-06-08,14
STUDY001,LB,STUDY001-SUBJ0004,38,L00038,BILI,Total Bilirubin,CHEMISTRY,0.63,mg/dL,0.1,1.2,0.63,0.63,mg/dL,0.1,1.2,NORMAL,,WEEK 2,4,2025-06-08,14
STUDY001,LB,STUDY001-SUBJ0004,39,L00039,ALP,Alkaline Phosphatase,CHEMISTRY,84.64,U/L,44.0,147.0,84.64,84.64,U/L,44.0,147.0,NORMAL,,WEEK 2,4,2025-06-08,14
STUDY001,LB,STUDY001-SUBJ0004,40,L00040,ALT,Alanine Aminotransferase,CHEMISTRY,21.7,U/L,7.0,56.0,21.7,21.7,U/L,7.0,56.0,NORMAL,,WEEK 2,4,2025-06-08,14
STUDY001,LB,STUDY001-SUBJ0004,41,L00041,HGB,Hemoglobin,HEMATOLOGY,15.31,g/dL,13.5,17.5,15.31,15.31,g/dL,13.5,17.5,NORMAL,,WEEK 4,5,2025-06-22,28
STUDY001,LB,STUDY001-SUBJ0004,42,L00042,HCT,Hematocrit,HEMATOLOGY,46.88,%,41.0,51.0,46.88,46.88,%,41.0,51.0,NORMAL,,WEEK 4,5,2025-06-22,28
STUDY001,LB,STUDY001-SUBJ0004,43,L00043,WBC,White Blood Cell Count,HEMATOLOGY,9.16,10^9/L,4.5,11.0,9.16,9.16,10^9/L,4.5,11.0,NORMAL,,WEEK 4,5,2025-06-22,28
STUDY001,LB,STUDY001-SUBJ0004,44,L00044,PLT,Platelet Count,HEMATOLOGY,292.29,10^9/L,150.0,450.0,292.29,292.29,10^9/L,150.0,450.0,NORMAL,,WEEK 4,5,2025-06-22,28
STUDY001,LB,STUDY001-SUBJ0004,45,L00045,GLUC,Glucose,CHEMISTRY,96.79,mg/dL,70.0,100.0,96.79,96.79,mg/dL,70.0,100.0,NORMAL,,WEEK 4,5,2025-06-22,28
STUDY001,LB,STUDY001-SUBJ0004,46,L00046,BUN,Blood Urea Nitrogen,CHEMISTRY,22.13,mg/dL,7.0,20.0,22.13,22.13,mg/dL,7.0,20.0,HIGH,,WEEK 4,5,2025-06-22,28
STUDY001,LB,STUDY001-SUBJ0004,47,L00047,CREAT,Creatinine,CHEMISTRY,0.94,mg/dL,0.6,1.2,0.94,0.94,mg/dL,0.6,1.2,NORMAL,,WEEK 4,5,2025-06-22,28
STUDY001,LB,STUDY001-SUBJ0004,48,L00048,BILI,Total Bilirubin,CHEMISTRY,0.65,mg/dL,0.1,1.2,0.65,0.65,mg/dL,0.1,1.2,NORMAL,,WEEK 4,5,2025-06-22,28
STUDY001,LB,STUDY001-SUBJ0004,49,L00049,ALP,Alkaline Phosphatase,CHEMISTRY,89.73,U/L,44.0,147.0,89.73,89.73,U/L,44.0,147.0,NORMAL,,WEEK 4,5,2025-06-22,28
STUDY001,LB,STUDY001-SUBJ0004,50,L00050,ALT,Alanine Aminotransferase,CHEMISTRY,23.14,U/L,7.0,56.0,23.14,23.14,U/L,7.0,56.0,NORMAL,,WEEK 4,5,2025-06-22,28
STUDY001,LB,STUDY001-SUBJ0004,51,L00051,HGB,Hemoglobin,HEMATOLOGY,15.24,g/dL,13.5,17.5,15.24,15.24,g/dL,13.5,17.5,NORMAL,,WEEK 8,6,2025-07-20,56
STUDY001,LB,STUDY001-SUBJ0004,52,L00052,HCT,Hematocrit,HEMATOLOGY,46.92,%,41.0,51.0,46.92,46.92,%,41.0,51.0,NORMAL,,WEEK 8,6,2025-07-20,56
STUDY001,LB,STUDY001-SUBJ0004,53,L00053,WBC,White Blood Cell Count,HEMATOLOGY,9.06,10^9/L,4.5,11.0,9.06,9.06,10^9/L,4.5,11.0,NORMAL,,WEEK 8,6,2025-07-20,56
STUDY001,LB,STUDY001-SUBJ0004,54,L00054,PLT,Platelet Count,HEMATOLOGY,296.83,10^9/L,150.0,450.0,296.83,296.83,10^9/L,150.0,450.0,NORMAL,,WEEK 8,6,2025-07-20,56
STUDY001,LB,STUDY001-SUBJ0004,55,L00055,GLUC,Glucose,CHEMISTRY,97.57,mg/dL,70.0,100.0,97.57,97.57,mg/dL,70.0,100.0,NORMAL,,WEEK 8,6,2025-07-20,56
STUDY001,LB,STUDY001-SUBJ0004,56,L00056,BUN,Blood Urea Nitrogen,CHEMISTRY,22.16,mg/dL,7.0,20.0,22.16,22.16,mg/dL,7.0,20.0,HIGH,,WEEK 8,6,2025-07-20,56
STUDY001,LB,STUDY001-SUBJ0004,57,L00057,CREAT,Creatinine,CHEMISTRY,0.94,mg/dL,0.6,1.2,0.94,0.94,mg/dL,0.6,1.2,NORMAL,,WEEK 8,6,2025-07-20,56
STUDY001,LB,STUDY001-SUBJ0004,58,L00058,BILI,Total Bilirubin,CHEMISTRY,0.65,mg/dL,0.1,1.2,0.65,0.65,mg/dL,0.1,1.2,NORMAL,,WEEK 8,6,2025-07-20,56
STUDY001,LB,STUDY001-SUBJ0004,59,L00059,ALP,Alkaline Phosphatase,CHEMISTRY,87.47,U/L,44.0,147.0,87.47,87.47,U/L,44.0,147.0,NORMAL,,WEEK 8,6,2025-07-20,56
STUDY001,LB,STUDY001-SUBJ0004,60,L00060,ALT,Alanine Aminotransferase,CHEMISTRY,20.55,U/L,7.0,56.0,20.55,20.55,U/L,7.0,56.0,NORMAL,,WEEK 8,6,2025-07-20,56
STUDY001,LB,STUDY001-SUBJ0004,61,L00061,HGB,Hemoglobin,HEMATOLOGY,15.41,g/dL,13.5,17.5,15.41,15.41,g/dL,13.5,17.5,NORMAL,,WEEK 12,7,2025-08-17,84
STUDY001,LB,STUDY001-SUBJ0004,62,L00062,HCT,Hematocrit,HEMATOLOGY,46.82,%,41.0,51.0,46.82,46.82,%,41.0,51.0,NORMAL,,WEEK 12,7,2025-08-17,84
STUDY001,LB,STUDY001-SUBJ0004,63,L00063,WBC,White Blood Cell Count,HEMATOLOGY,9.21,10^9/L,4.5,11.0,9.21,9.21,10^9/L,4.5,11.0,NORMAL,,WEEK 12,7,2025-08-17,84
STUDY001,LB,STUDY001-SUBJ0004,64,L00064,PLT,Platelet Count,HEMATOLOGY,284.32,10^9/L,150.0,450.0,284.32,284.32,10^9/L,150.0,450.0,NORMAL,,WEEK 12,7,2025-08-17,84
STUDY001,LB,STUDY001-SUBJ0004,65,L00065,GLUC,Glucose,CHEMISTRY,95.93,mg/dL,70.0,100.0,95.93,95.93,mg/dL,70.0,100.0,NORMAL,,WEEK 12,7,2025-08-17,84
STUDY001,LB,STUDY001-SUBJ0004,66,L00066,BUN,Blood Urea Nitrogen,CHEMISTRY,21.91,mg/dL,7.0,20.0,21.91,21.91,mg/dL,7.0,20.0,HIGH,,WEEK 12,7,2025-08-17,84
STUDY001,LB,STUDY001-SUBJ0004,67,L00067,CREAT,Creatinine,CHEMISTRY,0.93,mg/dL,0.6,1.2,0.93,0.93,mg/dL,0.6,1.2,NORMAL,,WEEK 12,7,2025-08-17,84
STUDY001,LB,STUDY001-SUBJ0004,68,L00068,BILI,Total Bilirubin,CHEMISTRY,0.67,mg/dL,0.1,1.2,0.67,0.67,mg/dL,0.1,1.2,NORMAL,,WEEK 12,7,2025-08-17,84
STUDY001,LB,STUDY001-SUBJ0004,69,L00069,ALP,Alkaline Phosphatase,CHEMISTRY,87.63,U/L,44.0,147.0,87.63,87.63,U/L,44.0,147.0,NORMAL,,WEEK 12,7,2025-08-17,84
STUDY001,LB,STUDY001-SUBJ0004,70,L00070,ALT,Alanine Aminotransferase,CHEMISTRY,23.51,U/L,7.0,56.0,23.51,23.51,U/L,7.0,56.0,NORMAL,,WEEK 12,7,2025-08-17,84
STUDY001,LB,STUDY001-SUBJ0004,71,L00071,HGB,Hemoglobin,HEMATOLOGY,15.57,g/dL,13.5,17.5,15.57,15.57,g/dL,13.5,17.5,NORMAL,,WEEK 16,8,2025-09-14,112
STUDY001,LB,STUDY001-SUBJ0004,72,L00072,HCT,Hematocrit,HEMATOLOGY,46.7,%,41.0,51.0,46.7,46.7,%,41.0,51.0,NORMAL,,WEEK 16,8,2025-09-14,112
STUDY001,LB,STUDY001-SUBJ0004,73,L00073,WBC,White Blood Cell Count,HEMATOLOGY,9.13,10^9/L,4.5,11.0,9.13,9.13,10^9/L,4.5,11.0,NORMAL,,WEEK 16,8,2025-09-14,112
STUDY001,LB,STUDY001-SUBJ0004,74,L00074,PLT,Platelet Count,HEMATOLOGY,286.36,10^9/L,150.0,450.0,286.36,286.36,10^9/L,150.0,450.0,NORMAL,,WEEK 16,8,2025-09-14,112
STUDY001,LB,STUDY001-SUBJ0004,75,L00075,GLUC,Glucose,CHEMISTRY,97.54,mg/dL,70.0,100.0,97.54,97.54,mg/dL,70.0,100.0,NORMAL,,WEEK 16,8,2025-09-14,112
STUDY001,LB,STUDY001-SUBJ0004,76,L00076,BUN,Blood Urea Nitrogen,CHEMISTRY,22.33,mg/dL,7.0,20.0,22.33,22.33,mg/dL,7.0,20.0,HIGH,,WEEK 16,8,2025-09-14,112
STUDY001,LB,STUDY001-SUBJ0004,77,L00077,CREAT,Creatinine,CHEMISTRY,0.94,mg/dL,0.6,1.2,0.94,0.94,mg/dL,0.6,1.2,NORMAL,,WEEK 16,8,2025-09-14,112
STUDY001,LB,STUDY001-SUBJ0004,78,L00078,BILI,Total Bilirubin,CHEMISTRY,0.65,mg/dL,0.1,1.2,0.65,0.65,mg/dL,0.1,1.2,NORMAL,,WEEK 16,8,2025-09-14,112
STUDY001,LB,STUDY001-SUBJ0004,79,L00079,ALP,Alkaline Phosphatase,CHEMISTRY,91.5,U/L,44.0,147.0,91.5,91.5,U/L,44.0,147.0,NORMAL,,WEEK 16,8,2025-09-14,112
STUDY001,LB,STUDY001-SUBJ0004,80,L00080,ALT,Alanine Aminotransferase,CHEMISTRY,22.49,U/L,7.0,56.0,22.49,22.49,U/L,7.0,56.0,NORMAL,,WEEK 16,8,2025-09-14,112
STUDY001,LB,STUDY001-SUBJ0004,81,L00081,HGB,Hemoglobin,HEMATOLOGY,15.35,g/dL,13.5,17.5,15.35,15.35,g/dL,13.5,17.5,NORMAL,,END OF TREATMENT,9,2025-10-12,140
STUDY001,LB,STUDY001-SUBJ0004,82,L00082,HCT,Hematocrit,HEMATOLOGY,47.01,%,41.0,51.0,47.01,47.01,%,41.0,51.0,NORMAL,,END OF TREATMENT,9,2025-10-12,140
STUDY001,LB,STUDY001-SUBJ0004,83,L00083,WBC,White Blood Cell Count,HEMATOLOGY,8.87,10^9/L,4.5,11.0,8.87,8.87,10^9/L,4.5,11.0,NORMAL,,END OF TREATMENT,9,2025-10-12,140
STUDY001,LB,STUDY001-SUBJ0004,84,L00084,PLT,Platelet Count,HEMATOLOGY,293.02,10^9/L,150.0,450.0,293.02,293.02,10^9/L,150.0,450.0,NORMAL,,END OF TREATMENT,9,2025-10-12,140
STUDY001,LB,STUDY001-SUBJ0004,85,L00085,GLUC,Glucose,CHEMISTRY,98.39,mg/dL,70.0,100.0,98.39,98.39,mg/dL,70.0,100.0,NORMAL,,END OF TREATMENT,9,2025-10-12,140
STUDY001,LB,STUDY001-SUBJ0004,86,L00086,BUN,Blood Urea Nitrogen,CHEMISTRY,22.24,mg/dL,7.0,20.0,22.24,22.24,mg/dL,7.0,20.0,HIGH,,END OF TREATMENT,9,2025-10-12,140
STUDY001,LB,STUDY001-SUBJ0004,87,L00087,CREAT,Creatinine,CHEMISTRY,0.92,mg/dL,0.6,1.2,0.92,0.92,mg/dL,0.6,1.2,NORMAL,,END OF TREATMENT,9,2025-10-12,140
STUDY001,LB,STUDY001-SUBJ0004,88,L00088,BILI,Total Bilirubin,CHEMISTRY,0.7,mg/dL,0.1,1.2,0.7,0.7,mg/dL,0.1,1.2,NORMAL,,END OF TREATMENT,9,2025-10-12,140
STUDY001,LB,STUDY001-SUBJ0004,89,L00089,ALP,Alkaline Phosphatase,CHEMISTRY,83.65,U/L,44.0,147.0,83.65,83.65,U/L,44.0,147.0,NORMAL,,END OF TREATMENT,9,2025-10-12,140
STUDY001,LB,STUDY001-SUBJ0004,90,L00090,ALT,Alanine Aminotransferase,CHEMISTRY,23.85,U/L,7.0,56.0,23.85,23.85,U/L,7.0,56.0,NORMAL,,END OF TREATMENT,9,2025-10-12,140
STUDY001,LB,STUDY001-SUBJ0005,1,L00001,HGB,Hemoglobin,HEMATOLOGY,17.12,g/dL,13.5,17.5,17.12,17.12,g/dL,13.5,17.5,NORMAL,,SCREENING,1,2024-12-28,-14
STUDY001,LB,STUDY001-SUBJ0005,2,L00002,HCT,Hematocrit,HEMATOLOGY,42.79,%,41.0,51.0,42.79,42.79,%,41.0,51.0,NORMAL,,SCREENING,1,2024-12-28,-14
STUDY001,LB,STUDY001-SUBJ0005,3,L00003,WBC,White Blood Cell Count,HEMATOLOGY,5.71,10^9/L,4.5,11.0,5.71,5.71,10^9/L,4.5,11.0,NORMAL,,SCREENING,1,2024-12-28,-14
STUDY001,LB,STUDY001-SUBJ0005,4,L00004,PLT,Platelet Count,HEMATOLOGY,359.72,10^9/L,150.0,450.0,359.72,359.72,10^9/L,150.0,450.0,NORMAL,,SCREENING,1,2024-12-28,-14
STUDY001,LB,STUDY001-SUBJ0005,5,L00005,GLUC,Glucose,CHEMISTRY,79.07,mg/dL,70.0,100.0,79.07,79.07,mg/dL,70.0,100.0,NORMAL,,SCREENING,1,2024-12-28,-14
STUDY001,LB,STUDY001-SUBJ0005,6,L00006,BUN,Blood Urea Nitrogen,CHEMISTRY,13.74,mg/dL,7.0,20.0,13.74,13.74,mg/dL,7.0,20.0,NORMAL,,SCREENING,1,2024-12-28,-14
STUDY001,LB,STUDY001-SUBJ0005,7,L00007,CREAT,Creatinine,CHEMISTRY,1.04,mg/dL,0.6,1.2,1.04,1.04,mg/dL,0.6,1.2,NORMAL,,SCREENING,1,2024-12-28,-14
STUDY001,LB,STUDY001-SUBJ0005,8,L00008,BILI,Total Bilirubin,CHEMISTRY,0.59,mg/dL,0.1,1.2,0.59,0.59,mg/dL,0.1,1.2,NORMAL,,SCREENING,1,2024-12-28,-14
STUDY001,LB,STUDY001-SUBJ0005,9,L00009,ALP,Alkaline Phosphatase,CHEMISTRY,82.07,U/L,44.0,147.0,82.07,82.07,U/L,44.0,147.0,NORMAL,,SCREENING,1,2024-12-28,-14
STUDY001,LB,STUDY001-SUBJ0005,10,L00010,ALT,Alanine Aminotransferase,CHEMISTRY,22.88,U/L,7.0,56.0,22.88,22.88,U/L,7.0,56.0,NORMAL,,SCREENING,1,2024-12-28,-14
STUDY001,LB,STUDY001-SUBJ0005,11,L00011,HGB,Hemoglobin,HEMATOLOGY,17.15,g/dL,13.5,17.5,17.15,17.15,g/dL,13.5,17.5,NORMAL,Y,BASELINE,2,2025-01-11,1
STUDY001,LB,STUDY001-SUBJ0005,12,L00012,HCT,Hematocrit,HEMATOLOGY,42.32,%,41.0,51.0,42.32,42.32,%,41.0,51.0,NORMAL,Y,BASELINE,2,2025-01-11,1
STUDY001,LB,STUDY001-SUBJ0005,13,L00013,WBC,White Blood Cell Count,HEMATOLOGY,5.59,10^9/L,4.5,11.0,5.59,5.59,10^9/L,4.5,11.0,NORMAL,Y,BASELINE,2,2025-01-11,1
STUDY001,LB,STUDY001-SUBJ0005,14,L00014,PLT,Platelet Count,HEMATOLOGY,358.46,10^9/L,150.0,450.0,358.46,358.46,10^9/L,150.0,450.0,NORMAL,Y,BASELINE,2,2025-01-11,1
STUDY001,LB,STUDY001-SUBJ0005,15,L00015,GLUC,Glucose,CHEMISTRY,80.4,mg/dL,70.0,100.0,80.4,80.4,mg/dL,70.0,100.0,NORMAL,Y,BASELINE,2,2025-01-11,1
STUDY001,LB,STUDY001-SUBJ0005,16,L00016,BUN,Blood Urea Nitrogen,CHEMISTRY,13.16,mg/dL,7.0,20.0,13.16,13.16,mg/dL,7.0,20.0,NORMAL,Y,BASELINE,2,2025-01-11,1
STUDY001,LB,STUDY001-SUBJ0005,17,L00017,CREAT,Creatinine,CHEMISTRY,1.03,mg/dL,0.6,1.2,1.03,1.03,mg/dL,0.6,1.2,NORMAL,Y,BASELINE,2,2025-01-11,1
STUDY001,LB,STUDY001-SUBJ0005,18,L00018,BILI,Total Bilirubin,CHEMISTRY,0.57,mg/dL,0.1,1.2,0.57,0.57,mg/dL,0.1,1.2,NORMAL,Y,BASELINE,2,2025-01-11,1
STUDY001,LB,STUDY001-SUBJ0005,19,L00019,ALP,Alkaline Phosphatase,CHEMISTRY,81.71,U/L,44.0,147.0,81.71,81.71,U/L,44.0,147.0,NORMAL,Y,BASELINE,2,2025-01-11,1
STUDY001,LB,STUDY001-SUBJ0005,20,L00020,ALT,Alanine Aminotransferase,CHEMISTRY,21.32,U/L,7.0,56.0,21.32,21.32,U/L,7.0,56.0,NORMAL,Y,BASELINE,2,2025-01-11,1
STUDY001,LB,STUDY001-SUBJ0005,21,L00021,HGB,Hemoglobin,HEMATOLOGY,17.19,g/dL,13.5,17.5,17.19,17.19,g/dL,13.5,17.5,NORMAL,,WEEK 1,3,2025-01-17,7
STUDY001,LB,STUDY001-SUBJ0005,22,L00022,HCT,Hematocrit,HEMATOLOGY,42.23,%,41.0,51.0,42.23,42.23,%,41.0,51.0,NORMAL,,WEEK 1,3,2025-01-17,7
STUDY001,LB,STUDY001-SUBJ0005,23,L00023,WBC,White Blood Cell Count,HEMATOLOGY,5.62,10^9/L,4.5,11.0,5.62,5.62,10^9/L,4.5,11.0,NORMAL,,WEEK 1,3,2025-01-17,7
STUDY001,LB,STUDY001-SUBJ0005,24,L00024,PLT,Platelet Count,HEMATOLOGY,347.29,10^9/L,150.0,450.0,347.29,347.29,10^9/L,150.0,450.0,NORMAL,,WEEK 1,3,2025-01-17,7
STUDY001,LB,STUDY001-SUBJ0005,25,L00025,GLUC,Glucose,CHEMISTRY,80.0,mg/dL,70.0,100.0,80.0,80.0,mg/dL,70.0,100.0,NORMAL,,WEEK 1,3,2025-01-17,7
STUDY001,LB,STUDY001-SUBJ0005,26,L00026,BUN,Blood Urea Nitrogen,CHEMISTRY,13.31,mg/dL,7.0,20.0,13.31,13.31,mg/dL,7.0,20.0,NORMAL,,WEEK 1,3,2025-01-17,7
STUDY001,LB,STUDY001-SUBJ0005,27,L00027,CREAT,Creatinine,CHEMISTRY,1.01,mg/dL,0.6,1.2,1.01,1.01,mg/dL,0.6,1.2,NORMAL,,WEEK 1,3,2025-01-17,7
STUDY001,LB,STUDY001-SUBJ0005,28,L00028,BILI,Total Bilirubin,CHEMISTRY,0.62,mg/dL,0.1,1.2,0.62,0.62,mg/dL,0.1,1.2,NORMAL,,WEEK 1,3,2025-01-17,7
STUDY001,LB,STUDY001-SUBJ0005,29,L00029,ALP,Alkaline Phosphatase,CHEMISTRY,85.24,U/L,44.0,147.0,85.24,85.24,U/L,44.0,147.0,NORMAL,,WEEK 1,3,2025-01-17,7
STUDY001,LB,STUDY001-SUBJ0005,30,L00030,ALT,Alanine Aminotransferase,CHEMISTRY,20.61,U/L,7.0,56.0,20.61,20.61,U/L,7.0,56.0,NORMAL,,WEEK 1,3,2025-01-17,7
STUDY001,LB,STUDY001-SUBJ0005,31,L00031,HGB,Hemoglobin,HEMATOLOGY,17.06,g/dL,13.5,17.5,17.06,17.06,g/dL,13.5,17.5,NORMAL,,WEEK 2,4,2025-01-24,14
STUDY001,LB,STUDY001-SUBJ0005,32,L00032,HCT,Hematocrit,HEMATOLOGY,42.31,%,41.0,51.0,42.31,42.31,%,41.0,51.0,NORMAL,,WEEK 2,4,2025-01-24,14
STUDY001,LB,STUDY001-SUBJ0005,33,L00033,WBC,White Blood Cell Count,HEMATOLOGY,6.0,10^9/L,4.5,11.0,6.0,6.0,10^9/L,4.5,11.0,NORMAL,,WEEK 2,4,2025-01-24,14
STUDY001,LB,STUDY001-SUBJ0005,34,L00034,PLT,Platelet Count,HEMATOLOGY,354.14,10^9/L,150.0,450.0,354.14,354.14,10^9/L,150.0,450.0,NORMAL,,WEEK 2,4,2025-01-24,14
STUDY001,LB,STUDY001-SUBJ0005,35,L00035,GLUC,Glucose,CHEMISTRY,81.2,mg/dL,70.0,100.0,81.2,81.2,mg/dL,70.0,100.0,NORMAL,,WEEK 2,4,2025-01-24,14
STUDY001,LB,STUDY001-SUBJ0005,36,L00036,BUN,Blood Urea Nitrogen,CHEMISTRY,13.81,mg/dL,7.0,20.0,13.81,13.81,mg/dL,7.0,20.0,NORMAL,,WEEK 2,4,2025-01-24,14
STUDY001,LB,STUDY001-SUBJ0005,37,L00037,CREAT,Creatinine,CHEMISTRY,1.04,mg/dL,0.6,1.2,1.04,1.04,mg/dL,0.6,1.2,NORMAL,,WEEK 2,4,2025-01-24,14
STUDY001,LB,STUDY001-SUBJ0005,38,L00038,BILI,Total Bilirubin,CHEMISTRY,0.57,mg/dL,0.1,1.2,0.57,0.57,mg/dL,0.1,1.2,NORMAL,,WEEK 2,4,2025-01-24,14
STUDY001,LB,STUDY001-SUBJ0005,39,L00039,ALP,Alkaline Phosphatase,CHEMISTRY,84.18,U/L,44.0,147.0,84.18,84.18,U/L,44.0,147.0,NORMAL,,WEEK 2,4,2025-01-24,14
STUDY001,LB,STUDY001-SUBJ0005,40,L00040,ALT,Alanine Aminotransferase,CHEMISTRY,24.31,U/L,7.0,56.0,24.31,24.31,U/L,7.0,56.0,NORMAL,,WEEK 2,4,2025-01-24,14
STUDY001,LB,STUDY001-SUBJ0005,41,L00041,HGB,Hemoglobin,HEMATOLOGY,17.22,g/dL,13.5,17.5,17.22,17.22,g/dL,13.5,17.5,NORMAL,,WEEK 4,5,2025-02-07,28
STUDY001,LB,STUDY001-SUBJ0005,42,L00042,HCT,Hematocrit,HEMATOLOGY,42.74,%,41.0,51.0,42.74,42.74,%,41.0,51.0,NORMAL,,WEEK 4,5,2025-02-07,28
STUDY001,LB,STUDY001-SUBJ0005,43,L00043,WBC,White Blood Cell Count,HEMATOLOGY,6.08,10^9/L,4.5,11.0,6.08,6.08,10^9/L,4.5,11.0,NORMAL,,WEEK 4,5,2025-02-07,28
STUDY001,LB,STUDY001-SUBJ0005,44,L00044,PLT,Platelet Count,HEMATOLOGY,366.48,10^9/L,150.0,450.0,366.48,366.48,10^9/L,150.0,450.0,NORMAL,,WEEK 4,5,2025-02-07,28
STUDY001,LB,STUDY001-SUBJ0005,45,L00045,GLUC,Glucose,CHEMISTRY,80.66,mg/dL,70.0,100.0,80.66,80.66,mg/dL,70.0,100.0,NORMAL,,WEEK 4,5,2025-02-07,28
STUDY001,LB,STUDY001-SUBJ0005,46,L00046,BUN,Blood Urea Nitrogen,CHEMISTRY,12.84,mg/dL,7.0,20.0,12.84,12.84,mg/dL,7.0,20.0,NORMAL,,WEEK 4,5,2025-02-07,28
STUDY001,LB,STUDY001-SUBJ0005,47,L00047,CREAT,Creatinine,CHEMISTRY,1.05,mg/dL,0.6,1.2,1.05,1.05,mg/dL,0.6,1.2,NORMAL,,WEEK 4,5,2025-02-07,28
STUDY001,LB,STUDY001-SUBJ0005,48,L00048,BILI,Total Bilirubin,CHEMISTRY,0.62,mg/dL,0.1,1.2,0.62,0.62,mg/dL,0.1,1.2,NORMAL,,WEEK 4,5,2025-02-07,28
STUDY001,LB,STUDY001-SUBJ0005,49,L00049,ALP,Alkaline Phosphatase,CHEMISTRY,81.3,U/L,44.0,147.0,81.3,81.3,U/L,44.0,147.0,NORMAL,,WEEK 4,5,2025-02-07,28
STUDY001,LB,STUDY001-SUBJ0005,50,L00050,ALT,Alanine Aminotransferase,CHEMISTRY,22.51,U/L,7.0,56.0,22.51,22.51,U/L,7.0,56.0,NORMAL,,WEEK 4,5,2025-02-07,28
STUDY001,LB,STUDY001-SUBJ0005,51,L00051,HGB,Hemoglobin,HEMATOLOGY,17.23,g/dL,13.5,17.5,17.23,17.23,g/dL,13.5,17.5,NORMAL,,WEEK 8,6,2025-03-07,56
STUDY001,LB,STUDY001-SUBJ0005,52,L00052,HCT,Hematocrit,HEMATOLOGY,42.8,%,41.0,51.0,42.8,42.8,%,41.0,51.0,NORMAL,,WEEK 8,6,2025-03-07,56
STUDY001,LB,STUDY001-SUBJ0005,53,L00053,WBC,White Blood Cell Count,HEMATOLOGY,5.98,10^9/L,4.5,11.0,5.98,5.98,10^9/L,4.5,11.0,NORMAL,,WEEK 8,6,2025-03-07,56
STUDY001,LB,STUDY001-SUBJ0005,54,L00054,PLT,Platelet Count,HEMATOLOGY,351.09,10^9/L,150.0,450.0,351.09,351.09,10^9/L,150.0,450.0,NORMAL,,WEEK 8,6,2025-03-07,56
STUDY001,LB,STUDY001-SUBJ0005,55,L00055,GLUC,Glucose,CHEMISTRY,81.99,mg/dL,70.0,100.0,81.99,81.99,mg/dL,70.0,100.0,NORMAL,,WEEK 8,6,2025-03-07,56
STUDY001,LB,STUDY001-SUBJ0005,56,L00056,BUN,Blood Urea Nitrogen,CHEMISTRY,13.39,mg/dL,7.0,20.0,13.39,13.39,mg/dL,7.0,20.0,NORMAL,,WEEK 8,6,2025-03-07,56
STUDY001,LB,STUDY001-SUBJ0005,57,L00057,CREAT,Creatinine,CHEMISTRY,1.03,mg/dL,0.6,1.2,1.03,1.03,mg/dL,0.6,1.2,NORMAL,,WEEK 8,6,2025-03-07,56
STUDY001,LB,STUDY001-SUBJ0005,58,L00058,BILI,Total Bilirubin,CHEMISTRY,0.59,mg/dL,0.1,1.2,0.59,0.59,mg/dL,0.1,1.2,NORMAL,,WEEK 8,6,2025-03-07,56
STUDY001,LB,STUDY001-SUBJ0005,59,L00059,ALP,Alkaline Phosphatase,CHEMISTRY,81.76,U/L,44.0,147.0,81.76,81.76,U/L,44.0,147.0,NORMAL,,WEEK 8,6,2025-03-07,56
STUDY001,LB,STUDY001-SUBJ0005,60,L00060,ALT,Alanine Aminotransferase,CHEMISTRY,20.91,U/L,7.0,56.0,20.91,20.91,U/L,7.0,56.0,NORMAL,,WEEK 8,6,2025-03-07,56
STUDY001,LB,STUDY001-SUBJ0005,61,L00061,HGB,Hemoglobin,HEMATOLOGY,17.27,g/dL,13.5,17.5,17.27,17.27,g/dL,13.5,17.5,NORMAL,,WEEK 12,7,2025-04-04,84
STUDY001,LB,STUDY001-SUBJ0005,62,L00062,HCT,Hematocrit,HEMATOLOGY,42.71,%,41.0,51.0,42.71,42.71,%,41.0,51.0,NORMAL,,WEEK 12,7,2025-04-04,84
STUDY001,LB,STUDY001-SUBJ0005,63,L00063,WBC,White Blood Cell Count,HEMATOLOGY,6.03,10^9/L,4.5,11.0,6.03,6.03,10^9/L,4.5,11.0,NORMAL,,WEEK 12,7,2025-04-04,84
STUDY001,LB,STUDY001-SUBJ0005,64,L00064,PLT,Platelet Count,HEMATOLOGY,360.73,10^9/L,150.0,450.0,360.73,360.73,10^9/L,150.0,450.0,NORMAL,,WEEK 12,7,2025-04-04,84
STUDY001,LB,STUDY001-SUBJ0005,65,L00065,GLUC,Glucose,CHEMISTRY,82.35,mg/dL,70.0,100.0,82.35,82.35,mg/dL,70.0,100.0,NORMAL,,WEEK 12,7,2025-04-04,84
STUDY001,LB,STUDY001-SUBJ0005,66,L00066,BUN,Blood Urea Nitrogen,CHEMISTRY,12.88,mg/dL,7.0,20.0,12.88,12.88,mg/dL,7.0,20.0,NORMAL,,WEEK 12,7,2025-04-04,84
STUDY001,LB,STUDY001-SUBJ0005,67,L00067,CREAT,Creatinine,CHEMISTRY,1.05,mg/dL,0.6,1.2,1.05,1.05,mg/dL,0.6,1.2,NORMAL,,WEEK 12,7,2025-04-04,84
STUDY001,LB,STUDY001-SUBJ0005,68,L00068,BILI,Total Bilirubin,CHEMISTRY,0.59,mg/dL,0.1,1.2,0.59,0.59,mg/dL,0.1,1.2,NORMAL,,WEEK 12,7,2025-04-04,84
STUDY001,LB,STUDY001-SUBJ0005,69,L00069,ALP,Alkaline Phosphatase,CHEMISTRY,83.61,U/L,44.0,147.0,83.61,83.61,U/L,44.0,147.0,NORMAL,,WEEK 12,7,2025-04-04,84
STUDY001,LB,STUDY001-SUBJ0005,70,L00070,ALT,Alanine Aminotransferase,CHEMISTRY,22.0,U/L,7.0,56.0,22.0,22.0,U/L,7.0,56.0,NORMAL,,WEEK 12,7,2025-04-04,84
STUDY001,LB,STUDY001-SUBJ0005,71,L00071,HGB,Hemoglobin,HEMATOLOGY,17.11,g/dL,13.5,17.5,17.11,17.11,g/dL,13.5,17.5,NORMAL,,WEEK 16,8,2025-05-02,112
STUDY001,LB,STUDY001-SUBJ0005,72,L00072,HCT,Hematocrit,HEMATOLOGY,41.94,%,41.0,51.0,41.94,41.94,%,41.0,51.0,NORMAL,,WEEK 16,8,2025-05-02,112
STUDY001,LB,STUDY001-SUBJ0005,73,L00073,WBC,White Blood Cell Count,HEMATOLOGY,5.92,10^9/L,4.5,11.0,5.92,5.92,10^9/L,4.5,11.0,NORMAL,,WEEK 16,8,2025-05-02,112
STUDY001,LB,STUDY001-SUBJ0005,74,L00074,PLT,Platelet Count,HEMATOLOGY,354.84,10^9/L,150.0,450.0,354.84,354.84,10^9/L,150.0,450.0,NORMAL,,WEEK 16,8,2025-05-02,112
STUDY001,LB,STUDY001-SUBJ0005,75,L00075,GLUC,Glucose,CHEMISTRY,81.54,mg/dL,70.0,100.0,81.54,81.54,mg/dL,70.0,100.0,NORMAL,,WEEK 16,8,2025-05-02,112
STUDY001,LB,STUDY001-SUBJ0005,76,L00076,BUN,Blood Urea Nitrogen,CHEMISTRY,12.9,mg/dL,7.0,20.0,12.9,12.9,mg/dL,7.0,20.0,NORMAL,,WEEK 16,8,2025-05-02,112
STUDY001,LB,STUDY001-SUBJ0005,77,L00077,CREAT,Creatinine,CHEMISTRY,1.04,mg/dL,0.6,1.2,1.04,1.04,mg/dL,0.6,1.2,NORMAL,,WEEK 16,8,2025-05-02,112
STUDY001,LB,STUDY001-SUBJ0005,78,L00078,BILI,Total Bilirubin,CHEMISTRY,0.62,mg/dL,0.1,1.2,0.62,0.62,mg/dL,0.1,1.2,NORMAL,,WEEK 16,8,2025-05-02,112
STUDY001,LB,STUDY001-SUBJ0005,79,L00079,ALP,Alkaline Phosphatase,CHEMISTRY,81.73,U/L,44.0,147.0,81.73,81.73,U/L,44.0,147.0,NORMAL,,WEEK 16,8,2025-05-02,112
STUDY001,LB,STUDY001-SUBJ0005,80,L00080,ALT,Alanine Aminotransferase,CHEMISTRY,24.09,U/L,7.0,56.0,24.09,24.09,U/L,7.0,56.0,NORMAL,,WEEK 16,8,2025-05-02,112
STUDY001,LB,STUDY001-SUBJ0005,81,L00081,HGB,Hemoglobin,HEMATOLOGY,17.2,g/dL,13.5,17.5,17.2,17.2,g/dL,13.5,17.5,NORMAL,,END OF TREATMENT,9,2025-05-30,140
STUDY001,LB,STUDY001-SUBJ0005,82,L00082,HCT,Hematocrit,HEMATOLOGY,42.44,%,41.0,51.0,42.44,42.44,%,41.0,51.0,NORMAL,,END OF TREATMENT,9,2025-05-30,140
STUDY001,LB,STUDY001-SUBJ0005,83,L00083,WBC,White Blood Cell Count,HEMATOLOGY,5.85,10^9/L,4.5,11.0,5.85,5.85,10^9/L,4.5,11.0,NORMAL,,END OF TREATMENT,9,2025-05-30,140
STUDY001,LB,STUDY001-SUBJ0005,84,L00084,PLT,Platelet Count,HEMATOLOGY,355.47,10^9/L,150.0,450.0,355.47,355.47,10^9/L,150.0,450.0,NORMAL,,END OF TREATMENT,9,2025-05-30,140
STUDY001,LB,STUDY001-SUBJ0005,85,L00085,GLUC,Glucose,CHEMISTRY,79.73,mg/dL,70.0,100.0,79.73,79.73,mg/dL,70.0,100.0,NORMAL,,END OF TREATMENT,9,2025-05-30,140
STUDY001,LB,STUDY001-SUBJ0005,86,L00086,BUN,Blood Urea Nitrogen,CHEMISTRY,13.18,mg/dL,7.0,20.0,13.18,13.18,mg/dL,7.0,20.0,NORMAL,,END OF TREATMENT,9,2025-05-30,140
STUDY001,LB,STUDY001-SUBJ0005,87,L00087,CREAT,Creatinine,CHEMISTRY,1.04,mg/dL,0.6,1.2,1.04,1.04,mg/dL,0.6,1.2,NORMAL,,END OF TREATMENT,9,2025-05-30,140
STUDY001,LB,STUDY001-SUBJ0005,88,L00088,BILI,Total Bilirubin,CHEMISTRY,0.59,mg/dL,0.1,1.2,0.59,0.59,mg/dL,0.1,1.2,NORMAL,,END OF TREATMENT,9,2025-05-30,140
STUDY001,LB,STUDY001-SUBJ0005,89,L00089,ALP,Alkaline Phosphatase,CHEMISTRY,84.12,U/L,44.0,147.0,84.12,84.12,U/L,44.0,147.0,NORMAL,,END OF TREATMENT,9,2025-05-30,140
STUDY001,LB,STUDY001-SUBJ0005,90,L00090,ALT,Alanine Aminotransferase,CHEMISTRY,21.29,U/L,7.0,56.0,21.29,21.29,U/L,7.0,56.0,NORMAL,,END OF TREATMENT,9,2025-05-30,140
STUDY001,LB,STUDY001-SUBJ0006,1,L00001,HGB,Hemoglobin,HEMATOLOGY,14.27,g/dL,13.5,17.5,14.27,14.27,g/dL,13.5,17.5,NORMAL,,SCREENING,1,2024-10-22,-14
STUDY001,LB,STUDY001-SUBJ0006,2,L00002,HCT,Hematocrit,HEMATOLOGY,43.29,%,41.0,51.0,43.29,43.29,%,41.0,51.0,NORMAL,,SCREENING,1,2024-10-22,-14
STUDY001,LB,STUDY001-SUBJ0006,3,L00003,WBC,White Blood Cell Count,HEMATOLOGY,6.19,10^9/L,4.5,11.0,6.19,6.19,10^9/L,4.5,11.0,NORMAL,,SCREENING,1,2024-10-22,-14
STUDY001,LB,STUDY001-SUBJ0006,4,L00004,PLT,Platelet Count,HEMATOLOGY,307.93,10^9/L,150.0,450.0,307.93,307.93,10^9/L,150.0,450.0,NORMAL,,SCREENING,1,2024-10-22,-14
STUDY001,LB,STUDY001-SUBJ0006,5,L00005,GLUC,Glucose,CHEMISTRY,108.06,mg/dL,70.0,100.0,108.06,108.06,mg/dL,70.0,100.0,HIGH,,SCREENING,1,2024-10-22,-14
STUDY001,LB,STUDY001-SUBJ0006,6,L00006,BUN,Blood Urea Nitrogen,CHEMISTRY,13.7,mg/dL,7.0,20.0,13.7,13.7,mg/dL,7.0,20.0,NORMAL,,SCREENING,1,2024-10-22,-14
STUDY001,LB,STUDY001-SUBJ0006,7,L00007,CREAT,Creatinine,CHEMISTRY,0.97,mg/dL,0.6,1.2,0.97,0.97,mg/dL,0.6,1.2,NORMAL,,SCREENING,1,2024-10-22,-14
STUDY001,LB,STUDY001-SUBJ0006,8,L00008,BILI,Total Bilirubin,CHEMISTRY,0.92,mg/dL,0.1,1.2,0.92,0.92,mg/dL,0.1,1.2,NORMAL,,SCREENING,1,2024-10-22,-14
STUDY001,LB,STUDY001-SUBJ0006,9,L00009,ALP,Alkaline Phosphatase,CHEMISTRY,106.98,U/L,44.0,147.0,106.98,106.98,U/L,44.0,147.0,NORMAL,,SCREENING,1,2024-10-22,-14
STUDY001,LB,STUDY001-SUBJ0006,10,L00010,ALT,Alanine Aminotransferase,CHEMISTRY,29.55,U/L,7.0,56.0,29.55,29.55,U/L,7.0,56.0,NORMAL,,SCREENING,1,2024-10-22,-14
STUDY001,LB,STUDY001-SUBJ0006,11,L00011,HGB,Hemoglobin,HEMATOLOGY,14.23,g/dL,13.5,17.5,14.23,14.23,g/dL,13.5,17.5,NORMAL,Y,BASELINE,2,2024-11-05,1
STUDY001,LB,STUDY001-SUBJ0006,12,L00012,HCT,Hematocrit,HEMATOLOGY,43.35,%,41.0,51.0,43.35,43.35,%,41.0,51.0,NORMAL,Y,BASELINE,2,2024-11-05,1
STUDY001,LB,STUDY001-SUBJ0006,13,L00013,WBC,White Blood Cell Count,HEMATOLOGY,6.26,10^9/L,4.5,11.0,6.26,6.26,10^9/L,4.5,11.0,NORMAL,Y,BASELINE,2,2024-11-05,1
STUDY001,LB,STUDY001-SUBJ0006,14,L00014,PLT,Platelet Count,HEMATOLOGY,313.2,10^9/L,150.0,450.0,313.2,313.2,10^9/L,150.0,450.0,NORMAL,Y,BASELINE,2,2024-11-05,1
STUDY001,LB,STUDY001-SUBJ0006,15,L00015,GLUC,Glucose,CHEMISTRY,110.32,mg/dL,70.0,100.0,110.32,110.32,mg/dL,70.0,100.0,HIGH,Y,BASELINE,2,2024-11-05,1
STUDY001,LB,STUDY001-SUBJ0006,16,L00016,BUN,Blood Urea Nitrogen,CHEMISTRY,14.1,mg/dL,7.0,20.0,14.1,14.1,mg/dL,7.0,20.0,NORMAL,Y,BASELINE,2,2024-11-05,1
STUDY001,LB,STUDY001-SUBJ0006,17,L00017,CREAT,Creatinine,CHEMISTRY,0.99,mg/dL,0.6,1.2,0.99,0.99,mg/dL,0.6,1.2,NORMAL,Y,BASELINE,2,2024-11-05,1
STUDY001,LB,STUDY001-SUBJ0006,18,L00018,BILI,Total Bilirubin,CHEMISTRY,0.92,mg/dL,0.1,1.2,0.92,0.92,mg/dL,0.1,1.2,NORMAL,Y,BASELINE,2,2024-11-05,1
STUDY001,LB,STUDY001-SUBJ0006,19,L00019,ALP,Alkaline Phosphatase,CHEMISTRY,111.89,U/L,44.0,147.0,111.89,111.89,U/L,44.0,147.0,NORMAL,Y,BASELINE,2,2024-11-05,1
STUDY001,LB,STUDY001-SUBJ0006,20,L00020,ALT,Alanine Aminotransferase,CHEMISTRY,32.07,U/L,7.0,56.0,32.07,32.07,U/L,7.0,56.0,NORMAL,Y,BASELINE,2,2024-11-05,1
STUDY001,LB,STUDY001-SUBJ0006,21,L00021,HGB,Hemoglobin,HEMATOLOGY,14.38,g/dL,13.5,17.5,14.38,14.38,g/dL,13.5,17.5,NORMAL,,WEEK 1,3,2024-11-11,7
STUDY001,LB,STUDY001-SUBJ0006,22,L00022,HCT,Hematocrit,HEMATOLOGY,43.51,%,41.0,51.0,43.51,43.51,%,41.0,51.0,NORMAL,,WEEK 1,3,2024-11-11,7
STUDY001,LB,STUDY001-SUBJ0006,23,L00023,WBC,White Blood Cell Count,HEMATOLOGY,6.21,10^9/L,4.5,11.0,6.21,6.21,10^9/L,4.5,11.0,NORMAL,,WEEK 1,3,2024-11-11,7
STUDY001,LB,STUDY001-SUBJ0006,24,L00024,PLT,Platelet Count,HEMATOLOGY,315.67,10^9/L,150.0,450.0,315.67,315.67,10^9/L,150.0,450.0,NORMAL,,WEEK 1,3,2024-11-11,7
STUDY001,LB,STUDY001-SUBJ0006,25,L00025,GLUC,Glucose,CHEMISTRY,109.31,mg/dL,70.0,100.0,109.31,109.31,mg/dL,70.0,100.0,HIGH,,WEEK 1,3,2024-11-11,7
STUDY001,LB,STUDY001-SUBJ0006,26,L00026,BUN,Blood Urea Nitrogen,CHEMISTRY,13.25,mg/dL,7.0,20.0,13.25,13.25,mg/dL,7.0,20.0,NORMAL,,WEEK 1,3,2024-11-11,7
STUDY001,LB,STUDY001-SUBJ0006,27,L00027,CREAT,Creatinine,CHEMISTRY,0.99,mg/dL,0.6,1.2,0.99,0.99,mg/dL,0.6,1.2,NORMAL,,WEEK 1,3,2024-11-11,7
STUDY001,LB,STUDY001-SUBJ0006,28,L00028,BILI,Total Bilirubin,CHEMISTRY,1.0,mg/dL,0.1,1.2,1.0,1.0,mg/dL,0.1,1.2,NORMAL,,WEEK 1,3,2024-11-11,7
STUDY001,LB,STUDY001-SUBJ0006,29,L00029,ALP,Alkaline Phosphatase,CHEMISTRY,107.27,U/L,44.0,147.0,107.27,107.27,U/L,44.0,147.0,NORMAL,,WEEK 1,3,2024-11-11,7
STUDY001,LB,STUDY001-SUBJ0006,30,L00030,ALT,Alanine Aminotransferase,CHEMISTRY,32.34,U/L,7.0,56.0,32.34,32.34,U/L,7.0,56.0,NORMAL,,WEEK 1,3,2024-11-11,7
STUDY001,LB,STUDY001-SUBJ0006,31,L00031,HGB,Hemoglobin,HEMATOLOGY,14.23,g/dL,13.5,17.5,14.23,14.23,g/dL,13.5,17.5,NORMAL,,WEEK 2,4,2024-11-18,14
STUDY001,LB,STUDY001-SUBJ0006,32,L00032,HCT,Hematocrit,HEMATOLOGY,43.49,%,41.0,51.0,43.49,43.49,%,41.0,51.0,NORMAL,,WEEK 2,4,2024-11-18,14
STUDY001,LB,STUDY001-SUBJ0006,33,L00033,WBC,White Blood Cell Count,HEMATOLOGY,6.07,10^9/L,4.5,11.0,6.07,6.07,10^9/L,4.5,11.0,NORMAL,,WEEK 2,4,2024-11-18,14
STUDY001,LB,STUDY001-SUBJ0006,34,L00034,PLT,Platelet Count,HEMATOLOGY,316.12,10^9/L,150.0,450.0,316.12,316.12,10^9/L,150.0,450.0,NORMAL,,WEEK 2,4,2024-11-18,14
STUDY001,LB,STUDY001-SUBJ0006,35,L00035,GLUC,Glucose,CHEMISTRY,110.98,mg/dL,70.0,100.0,110.98,110.98,mg/dL,70.0,100.0,HIGH,,WEEK 2,4,2024-11-18,14
STUDY001,LB,STUDY001-SUBJ0006,36,L00036,BUN,Blood Urea Nitrogen,CHEMISTRY,13.89,mg/dL,7.0,20.0,13.89,13.89,mg/dL,7.0,20.0,NORMAL,,WEEK 2,4,2024-11-18,14
STUDY001,LB,STUDY001-SUBJ0006,37,L00037,CREAT,Creatinine,CHEMISTRY,0.95,mg/dL,0.6,1.2,0.95,0.95,mg/dL,0.6,1.2,NORMAL,,WEEK 2,4,2024-11-18,14
STUDY001,LB,STUDY001-SUBJ0006,38,L00038,BILI,Total Bilirubin,CHEMISTRY,0.91,mg/dL,0.1,1.2,0.91,0.91,mg/dL,0.1,1.2,NORMAL,,WEEK 2,4,2024-11-18,14
STUDY001,LB,STUDY001-SUBJ0006,39,L00039,ALP,Alkaline Phosphatase,CHEMISTRY,108.7,U/L,44.0,147.0,108.7,108.7,U/L,44.0,147.0,NORMAL,,WEEK 2,4,2024-11-18,14
STUDY001,LB,STUDY001-SUBJ0006,40,L00040,ALT,Alanine Aminotransferase,CHEMISTRY,30.89,U/L,7.0,56.0,30.89,30.89,U/L,7.0,56.0,NORMAL,,WEEK 2,4,2024-11-18,14
STUDY001,LB,STUDY001-SUBJ0006,41,L00041,HGB,Hemoglobin,HEMATOLOGY,14.17,g/dL,13.5,17.5,14.17,14.17,g/dL,13.5,17.5,NORMAL,,WEEK 4,5,2024-12-02,28
STUDY001,LB,STUDY001-SUBJ0006,42,L00042,HCT,Hematocrit,HEMATOLOGY,43.52,%,41.0,51.0,43.52,43.52,%,41.0,51.0,NORMAL,,WEEK 4,5,2024-12-02,28
STUDY001,LB,STUDY001-SUBJ0006,43,L00043,WBC,White Blood Cell Count,HEMATOLOGY,6.32,10^9/L,4.5,11.0,6.32,6.32,10^9/L,4.5,11.0,NORMAL,,WEEK 4,5,2024-12-02,28
STUDY001,LB,STUDY001-SUBJ0006,44,L00044,PLT,Platelet Count,HEMATOLOGY,312.17,10^9/L,150.0,450.0,312.17,312.17,10^9/L,150.0,450.0,NORMAL,,WEEK 4,5,2024-12-02,28
STUDY001,LB,STUDY001-SUBJ0006,45,L00045,GLUC,Glucose,CHEMISTRY,110.54,mg/dL,70.0,100.0,110.54,110.54,mg/dL,70.0,100.0,HIGH,,WEEK 4,5,2024-12-02,28
STUDY001,LB,STUDY001-SUBJ0006,46,L00046,BUN,Blood Urea Nitrogen,CHEMISTRY,14.2,mg/dL,7.0,20.0,14.2,14.2,mg/dL,7.0,20.0,NORMAL,,WEEK 4,5,2024-12-02,28
STUDY001,LB,STUDY001-SUBJ0006,47,L00047,CREAT,Creatinine,CHEMISTRY,0.99,mg/dL,0.6,1.2,0.99,0.99,mg/dL,0.6,1.2,NORMAL,,WEEK 4,5,2024-12-02,28
STUDY001,LB,STUDY001-SUBJ0006,48,L00048,BILI,Total Bilirubin,CHEMISTRY,0.93,mg/dL,0.1,1.2,0.93,0.93,mg/dL,0.1,1.2,NORMAL,,WEEK 4,5,2024-12-02,28
STUDY001,LB,STUDY001-SUBJ0006,49,L00049,ALP,Alkaline Phosphatase,CHEMISTRY,110.75,U/L,44.0,147.0,110.75,110.75,U/L,44.0,147.0,NORMAL,,WEEK 4,5,2024-12-02,28
STUDY001,LB,STUDY001-SUBJ0006,50,L00050,ALT,Alanine Aminotransferase,CHEMISTRY,31.07,U/L,7.0,56.0,31.07,31.07,U/L,7.0,56.0,NORMAL,,WEEK 4,5,2024-12-02,28
STUDY001,LB,STUDY001-SUBJ0006,51,L00051,HGB,Hemoglobin,HEMATOLOGY,14.32,g/dL,13.5,17.5,14.32,14.32,g/dL,13.5,17.5,NORMAL,,WEEK 8,6,2024-12-30,56
STUDY001,LB,STUDY001-SUBJ0006,52,L00052,HCT,Hematocrit,HEMATOLOGY,43.28,%,41.0,51.0,43.28,43.28,%,41.0,51.0,NORMAL,,WEEK 8,6,2024-12-30,56
STUDY001,LB,STUDY001-SUBJ0006,53,L00053,WBC,White Blood Cell Count,HEMATOLOGY,6.3,10^9/L,4.5,11.0,6.3,6.3,10^9/L,4.5,11.0,NORMAL,,WEEK 8,6,2024-12-30,56
STUDY001,LB,STUDY001-SUBJ0006,54,L00054,PLT,Platelet Count,HEMATOLOGY,314.35,10^9/L,150.0,450.0,314.35,314.35,10^9/L,150.0,450.0,NORMAL,,WEEK 8,6,2024-12-30,56
STUDY001,LB,STUDY001-SUBJ0006,55,L00055,GLUC,Glucose,CHEMISTRY,108.21,mg/dL,70.0,100.0,108.21,108.21,mg/dL,70.0,100.0,HIGH,,WEEK 8,6,2024-12-30,56
STUDY001,LB,STUDY001-SUBJ0006,56,L00056,BUN,Blood Urea Nitrogen,CHEMISTRY,14.36,mg/dL,7.0,20.0,14.36,14.36,mg/dL,7.0,20.0,NORMAL,,WEEK 8,6,2024-12-30,56
STUDY001,LB,STUDY001-SUBJ0006,57,L00057,CREAT,Creatinine,CHEMISTRY,0.98,mg/dL,0.6,1.2,0.98,0.98,mg/dL,0.6,1.2,NORMAL,,WEEK 8,6,2024-12-30,56
STUDY001,LB,STUDY001-SUBJ0006,58,L00058,BILI,Total Bilirubin,CHEMISTRY,0.92,mg/dL,0.1,1.2,0.92,0.92,mg/dL,0.1,1.2,NORMAL,,WEEK 8,6,2024-12-30,56
STUDY001,LB,STUDY001-SUBJ0006,59,L00059,ALP,Alkaline Phosphatase,CHEMISTRY,109.85,U/L,44.0,147.0,109.85,109.85,U/L,44.0,147.0,NORMAL,,WEEK 8,6,2024-12-30,56
STUDY001,LB,STUDY001-SUBJ0006,60,L00060,ALT,Alanine Aminotransferase,CHEMISTRY,32.55,U/L,7.0,56.0,32.55,32.55,U/L,7.0,56.0,NORMAL,,WEEK 8,6,2024-12-30,56
STUDY001,LB,STUDY001-SUBJ0006,61,L00061,HGB,Hemoglobin,HEMATOLOGY,14.46,g/dL,13.5,17.5,14.46,14.46,g/dL,13.5,17.5,NORMAL,,WEEK 12,7,2025-01-27,84
STUDY001,LB,STUDY001-SUBJ0006,62,L00062,HCT,Hematocrit,HEMATOLOGY,43.48,%,41.0,51.0,43.48,43.48,%,41.0,51.0,NORMAL,,WEEK 12,7,2025-01-27,84
STUDY001,LB,STUDY001-SUBJ0006,63,L00063,WBC,White Blood Cell Count,HEMATOLOGY,6.49,10^9/L,4.5,11.0,6.49,6.49,10^9/L,4.5,11.0,NORMAL,,WEEK 12,7,2025-01-27,84
STUDY001,LB,STUDY001-SUBJ0006,64,L00064,PLT,Platelet Count,HEMATOLOGY,314.85,10^9/L,150.0,450.0,314.85,314.85,10^9/L,150.0,450.0,NORMAL,,WEEK 12,7,2025-01-27,84
STUDY001,LB,STUDY001-SUBJ0006,65,L00065,GLUC,Glucose,CHEMISTRY,109.35,mg/dL,70.0,100.0,109.35,109.35,mg/dL,70.0,100.0,HIGH,,WEEK 12,7,2025-01-27,84
STUDY001,LB,STUDY001-SUBJ0006,66,L00066,BUN,Blood Urea Nitrogen,CHEMISTRY,13.61,mg/dL,7.0,20.0,13.61,13.61,mg/dL,7.0,20.0,NORMAL,,WEEK 12,7,2025-01-27,84
STUDY001,LB,STUDY001-SUBJ0006,67,L00067,CREAT,Creatinine,CHEMISTRY,0.97,mg/dL,0.6,1.2,0.97,0.97,mg/dL,0.6,1.2,NORMAL,,WEEK 12,7,2025-01-27,84
STUDY001,LB,STUDY001-SUBJ0006,68,L00068,BILI,Total Bilirubin,CHEMISTRY,0.93,mg/dL,0.1,1.2,0.93,0.93,mg/dL,0.1,1.2,NORMAL,,WEEK 12,7,2025-01-27,84
STUDY001,LB,STUDY001-SUBJ0006,69,L00069,ALP,Alkaline Phosphatase,CHEMISTRY,112.18,U/L,44.0,147.0,112.18,112.18,U/L,44.0,147.0,NORMAL,,WEEK 12,7,2025-01-27,84
STUDY001,LB,STUDY001-SUBJ0006,70,L00070,ALT,Alanine Aminotransferase,CHEMISTRY,31.78,U/L,7.0,56.0,31.78,31.78,U/L,7.0,56.0,NORMAL,,WEEK 12,7,2025-01-27,84
STUDY001,LB,STUDY001-SUBJ0006,71,L00071,HGB,Hemoglobin,HEMATOLOGY,14.27,g/dL,13.5,17.5,14.27,14.27,g/dL,13.5,17.5,NORMAL,,WEEK 16,8,2025-02-24,112
STUDY001,LB,STUDY001-SUBJ0006,72,L00072,HCT,Hematocrit,HEMATOLOGY,43.44,%,41.0,51.0,43.44,43.44,%,41.0,51.0,NORMAL,,WEEK 16,8,2025-02-24,112
STUDY001,LB,STUDY001-SUBJ0006,73,L00073,WBC,White Blood Cell Count,HEMATOLOGY,6.29,10^9/L,4.5,11.0,6.29,6.29,10^9/L,4.5,11.0,NORMAL,,WEEK 16,8,2025-02-24,112
STUDY001,LB,STUDY001-SUBJ0006,74,L00074,PLT,Platelet Count,HEMATOLOGY,311.68,10^9/L,150.0,450.0,311.68,311.68,10^9/L,150.0,450.0,NORMAL,,WEEK 16,8,2025-02-24,112
STUDY001,LB,STUDY001-SUBJ0006,75,L00075,GLUC,Glucose,CHEMISTRY,110.1,mg/dL,70.0,100.0,110.1,110.1,mg/dL,70.0,100.0,HIGH,,WEEK 16,8,2025-02-24,112
STUDY001,LB,STUDY001-SUBJ0006,76,L00076,BUN,Blood Urea Nitrogen,CHEMISTRY,13.79,mg/dL,7.0,20.0,13.79,13.79,mg/dL,7.0,20.0,NORMAL,,WEEK 16,8,2025-02-24,112
STUDY001,LB,STUDY001-SUBJ0006,77,L00077,CREAT,Creatinine,CHEMISTRY,0.98,mg/dL,0.6,1.2,0.98,0.98,mg/dL,0.6,1.2,NORMAL,,WEEK 16,8,2025-02-24,112
STUDY001,LB,STUDY001-SUBJ0006,78,L00078,BILI,Total Bilirubin,CHEMISTRY,0.98,mg/dL,0.1,1.2,0.98,0.98,mg/dL,0.1,1.2,NORMAL,,WEEK 16,8,2025-02-24,112
STUDY001,LB,STUDY001-SUBJ0006,79,L00079,ALP,Alkaline Phosphatase,CHEMISTRY,114.36,U/L,44.0,147.0,114.36,114.36,U/L,44.0,147.0,NORMAL,,WEEK 16,8,2025-02-24,112
STUDY001,LB,STUDY001-SUBJ0006,80,L00080,ALT,Alanine Aminotransferase,CHEMISTRY,33.11,U/L,7.0,56.0,33.11,33.11,U/L,7.0,56.0,NORMAL,,WEEK 16,8,2025-02-24,112
STUDY001,LB,STUDY001-SUBJ0006,81,L00081,HGB,Hemoglobin,HEMATOLOGY,14.27,g/dL,13.5,17.5,14.27,14.27,g/dL,13.5,17.5,NORMAL,,END OF TREATMENT,9,2025-03-24,140
STUDY001,LB,STUDY001-SUBJ0006,82,L00082,HCT,Hematocrit,HEMATOLOGY,43.79,%,41.0,51.0,43.79,43.79,%,41.0,51.0,NORMAL,,END OF TREATMENT,9,2025-03-24,140
STUDY001,LB,STUDY001-SUBJ0006,83,L00083,WBC,White Blood Cell Count,HEMATOLOGY,6.38,10^9/L,4.5,11.0,6.38,6.38,10^9/L,4.5,11.0,NORMAL,,END OF TREATMENT,9,2025-03-24,140
STUDY001,LB,STUDY001-SUBJ0006,84,L00084,PLT,Platelet Count,HEMATOLOGY,307.26,10^9/L,150.0,450.0,307.26,307.26,10^9/L,150.0,450.0,NORMAL,,END OF TREATMENT,9,2025-03-24,140
STUDY001,LB,STUDY001-SUBJ0006,85,L00085,GLUC,Glucose,CHEMISTRY,110.45,mg/dL,70.0,100.0,110.45,110.45,mg/dL,70.0,100.0,HIGH,,END OF TREATMENT,9,2025-03-24,140
STUDY001,LB,STUDY001-SUBJ0006,86,L00086,BUN,Blood Urea Nitrogen,CHEMISTRY,13.95,mg/dL,7.0,20.0,13.95,13.95,mg/dL,7.0,20.0,NORMAL,,END OF TREATMENT,9,2025-03-24,140
STUDY001,LB,STUDY001-SUBJ0006,87,L00087,CREAT,Creatinine,CHEMISTRY,0.98,mg/dL,0.6,1.2,0.98,0.98,mg/dL,0.6,1.2,NORMAL,,END OF TREATMENT,9,2025-03-24,140
STUDY001,LB,STUDY001-SUBJ0006,88,L00088,BILI,Total Bilirubin,CHEMISTRY,0.97,mg/dL,0.1,1.2,0.97,0.97,mg/dL,0.1,1.2,NORMAL,,END OF TREATMENT,9,2025-03-24,140
STUDY001,LB,STUDY001-SUBJ0006,89,L00089,ALP,Alkaline Phosphatase,CHEMISTRY,111.93,U/L,44.0,147.0,111.93,111.93,U/L,44.0,147.0,NORMAL,,END OF TREATMENT,9,2025-03-24,140
STUDY001,LB,STUDY001-SUBJ0006,90,L00090,ALT,Alanine Aminotransferase,CHEMISTRY,30.89,U/L,7.0,56.0,30.89,30.89,U/L,7.0,56.0,NORMAL,,END OF TREATMENT,9,2025-03-24,140
STUDY001,LB,STUDY001-SUBJ0007,1,L00001,HGB,Hemoglobin,HEMATOLOGY,14.58,g/dL,13.5,17.5,14.58,14.58,g/dL,13.5,17.5,NORMAL,,SCREENING,1,2024-10-01,-14
STUDY001,LB,STUDY001-SUBJ0007,2,L00002,HCT,Hematocrit,HEMATOLOGY,50.15,%,41.0,51.0,50.15,50.15,%,41.0,51.0,NORMAL,,SCREENING,1,2024-10-01,-14
STUDY001,LB,STUDY001-SUBJ0007,3,L00003,WBC,White Blood Cell Count,HEMATOLOGY,8.86,10^9/L,4.5,11.0,8.86,8.86,10^9/L,4.5,11.0,NORMAL,,SCREENING,1,2024-10-01,-14
STUDY001,LB,STUDY001-SUBJ0007,4,L00004,PLT,Platelet Count,HEMATOLOGY,295.97,10^9/L,150.0,450.0,295.97,295.97,10^9/L,150.0,450.0,NORMAL,,SCREENING,1,2024-10-01,-14
STUDY001,LB,STUDY001-SUBJ0007,5,L00005,GLUC,Glucose,CHEMISTRY,89.9,mg/dL,70.0,100.0,89.9,89.9,mg/dL,70.0,100.0,NORMAL,,SCREENING,1,2024-10-01,-14
STUDY001,LB,STUDY001-SUBJ0007,6,L00006,BUN,Blood Urea Nitrogen,CHEMISTRY,11.98,mg/dL,7.0,20.0,11.98,11.98,mg/dL,7.0,20.0,NORMAL,,SCREENING,1,2024-10-01,-14
STUDY001,LB,STUDY001-SUBJ0007,7,L00007,CREAT,Creatinine,CHEMISTRY,1.14,mg/dL,0.6,1.2,1.14,1.14,mg/dL,0.6,1.2,NORMAL,,SCREENING,1,2024-10-01,-14
STUDY001,LB,STUDY001-SUBJ0007,8,L00008,BILI,Total Bilirubin,CHEMISTRY,0.83,mg/dL,0.1,1.2,0.83,0.83,mg/dL,0.1,1.2,NORMAL,,SCREENING,1,2024-10-01,-14
STUDY001,LB,STUDY001-SUBJ0007,9,L00009,ALP,Alkaline Phosphatase,CHEMISTRY,55.53,U/L,44.0,147.0,55.53,55.53,U/L,44.0,147.0,NORMAL,,SCREENING,1,2024-10-01,-14
STUDY001,LB,STUDY001-SUBJ0007,10,L00010,ALT,Alanine Aminotransferase,CHEMISTRY,31.17,U/L,7.0,56.0,31.17,31.17,U/L,7.0,56.0,NORMAL,,SCREENING,1,2024-10-01,-14
STUDY001,LB,STUDY001-SUBJ0007,11,L00011,HGB,Hemoglobin,HEMATOLOGY,14.51,g/dL,13.5,17.5,14.51,14.51,g/dL,13.5,17.5,NORMAL,Y,BASELINE,2,2024-10-15,1
STUDY001,LB,STUDY001-SUBJ0007,12,L00012,HCT,Hematocrit,HEMATOLOGY,50.57,%,41.0,51.0,50.57,50.57,%,41.0,51.0,NORMAL,Y,BASELINE,2,2024-10-15,1
STUDY001,LB,STUDY001-SUBJ0007,13,L00013,WBC,White Blood Cell Count,HEMATOLOGY,9.11,10^9/L,4.5,11.0,9.11,9.11,10^9/L,4.5,11.0,NORMAL,Y,BASELINE,2,2024-10-15,1
STUDY001,LB,STUDY001-SUBJ0007,14,L00014,PLT,Platelet Count,HEMATOLOGY,285.98,10^9/L,150.0,450.0,285.98,285.98,10^9/L,150.0,450.0,NORMAL,Y,BASELINE,2,2024-10-15,1
STUDY001,LB,STUDY001-SUBJ0007,15,L00015,GLUC,Glucose,CHEMISTRY,91.35,mg/dL,70.0,100.0,91.35,91.35,mg/dL,70.0,100.0,NORMAL,Y,BASELINE,2,2024-10-15,1
STUDY001,LB,STUDY001-SUBJ0007,16,L00016,BUN,Blood Urea Nitrogen,CHEMISTRY,11.87,mg/dL,7.0,20.0,11.87,11.87,mg/dL,7.0,20.0,NORMAL,Y,BASELINE,2,2024-10-15,1
STUDY001,LB,STUDY001-SUBJ0007,17,L00017,CREAT,Creatinine,CHEMISTRY,1.15,mg/dL,0.6,1.2,1.15,1.15,mg/dL,0.6,1.2,NORMAL,Y,BASELINE,2,2024-10-15,1
STUDY001,LB,STUDY001-SUBJ0007,18,L00018,BILI,Total Bilirubin,CHEMISTRY,0.87,mg/dL,0.1,1.2,0.87,0.87,mg/dL,0.1,1.2,NORMAL,Y,BASELINE,2,2024-10-15,1
STUDY001,LB,STUDY001-SUBJ0007,19,L00019,ALP,Alkaline Phosphatase,CHEMISTRY,56.95,U/L,44.0,147.0,56.95,56.95,U/L,44.0,147.0,NORMAL,Y,BASELINE,2,2024-10-15,1
STUDY001,LB,STUDY001-SUBJ0007,20,L00020,ALT,Alanine Aminotransferase,CHEMISTRY,32.44,U/L,7.0,56.0,32.44,32.44,U/L,7.0,56.0,NORMAL,Y,BASELINE,2,2024-10-15,1
STUDY001,LB,STUDY001-SUBJ0007,21,L00021,HGB,Hemoglobin,HEMATOLOGY,14.34,g/dL,13.5,17.5,14.34,14.34,g/dL,13.5,17.5,NORMAL,,WEEK 1,3,2024-10-21,7
STUDY001,LB,STUDY001-SUBJ0007,22,L00022,HCT,Hematocrit,HEMATOLOGY,50.5,%,41.0,51.0,50.5,50.5,%,41.0,51.0,NORMAL,,WEEK 1,3,2024-10-21,7
STUDY001,LB,STUDY001-SUBJ0007,23,L00023,WBC,White Blood Cell Count,HEMATOLOGY,8.99,10^9/L,4.5,11.0,8.99,8.99,10^9/L,4.5,11.0,NORMAL,,WEEK 1,3,2024-10-21,7
STUDY001,LB,STUDY001-SUBJ0007,24,L00024,PLT,Platelet Count,HEMATOLOGY,296.67,10^9/L,150.0,450.0,296.67,296.67,10^9/L,150.0,450.0,NORMAL,,WEEK 1,3,2024-10-21,7
STUDY001,LB,STUDY001-SUBJ0007,25,L00025,GLUC,Glucose,CHEMISTRY,91.29,mg/dL,70.0,100.0,91.29,91.29,mg/dL,70.0,100.0,NORMAL,,WEEK 1,3,2024-10-21,7
STUDY001,LB,STUDY001-SUBJ0007,26,L00026,BUN,Blood Urea Nitrogen,CHEMISTRY,12.21,mg/dL,7.0,20.0,12.21,12.21,mg/dL,7.0,20.0,NORMAL,,WEEK 1,3,2024-10-21,7
STUDY001,LB,STUDY001-SUBJ0007,27,L00027,CREAT,Creatinine,CHEMISTRY,1.15,mg/dL,0.6,1.2,1.15,1.15,mg/dL,0.6,1.2,NORMAL,,WEEK 1,3,2024-10-21,7
STUDY001,LB,STUDY001-SUBJ0007,28,L00028,BILI,Total Bilirubin,CHEMISTRY,0.9,mg/dL,0.1,1.2,0.9,0.9,mg/dL,0.1,1.2,NORMAL,,WEEK 1,3,2024-10-21,7
STUDY001,LB,STUDY001-SUBJ0007,29,L00029,ALP,Alkaline Phosphatase,CHEMISTRY,63.87,U/L,44.0,147.0,63.87,63.87,U/L,44.0,147.0,NORMAL,,WEEK 1,3,2024-10-21,7
STUDY001,LB,STUDY001-SUBJ0007,30,L00030,ALT,Alanine Aminotransferase,CHEMISTRY,34.16,U/L,7.0,56.0,34.16,34.16,U/L,7.0,56.0,NORMAL,,WEEK 1,3,2024-10-21,7
STUDY001,LB,STUDY001-SUBJ0007,31,L00031,HGB,Hemoglobin,HEMATOLOGY,14.62,g/dL,13.5,17.5,14.62,14.62,g/dL,13.5,17.5,NORMAL,,WEEK 2,4,2024-10-28,14
STUDY001,LB,STUDY001-SUBJ0007,32,L00032,HCT,Hematocrit,HEMATOLOGY,50.1,%,41.0,51.0,50.1,50.1,%,41.0,51.0,NORMAL,,WEEK 2,4,2024-10-28,14
STUDY001,LB,STUDY001-SUBJ0007,33,L00033,WBC,White Blood Cell Count,HEMATOLOGY,8.79,10^9/L,4.5,11.0,8.79,8.79,10^9/L,4.5,11.0,NORMAL,,WEEK 2,4,2024-10-28,14
STUDY001,LB,STUDY001-SUBJ0007,34,L00034,PLT,Platelet Count,HEMATOLOGY,294.52,10^9/L,150.0,450.0,294.52,294.52,10^9/L,150.0,450.0,NORMAL,,WEEK 2,4,2024-10-28,14
STUDY001,LB,STUDY001-SUBJ0007,35,L00035,GLUC,Glucose,CHEMISTRY,91.43,mg/dL,70.0,100.0,91.43,91.43,mg/dL,70.0,100.0,NORMAL,,WEEK 2,4,2024-10-28,14
STUDY001,LB,STUDY001-SUBJ0007,36,L00036,BUN,Blood Urea Nitrogen,CHEMISTRY,12.02,mg/dL,7.0,20.0,12.02,12.02,mg/dL,7.0,20.0,NORMAL,,WEEK 2,4,2024-10-28,14
STUDY001,LB,STUDY001-SUBJ0007,37,L00037,CREAT,Creatinine,CHEMISTRY,1.13,mg/dL,0.6,1.2,1.13,1.13,mg/dL,0.6,1.2,NORMAL,,WEEK 2,4,2024-10-28,14
STUDY001,LB,STUDY001-SUBJ0007,38,L00038,BILI,Total Bilirubin,CHEMISTRY,0.84,mg/dL,0.1,1.2,0.84,0.84,mg/dL,0.1,1.2,NORMAL,,WEEK 2,4,2024-10-28,14
STUDY001,LB,STUDY001-SUBJ0007,39,L00039,ALP,Alkaline Phosphatase,CHEMISTRY,53.82,U/L,44.0,147.0,53.82,53.82,U/L,44.0,147.0,NORMAL,,WEEK 2,4,2024-10-28,14
STUDY001,LB,STUDY001-SUBJ0007,40,L00040,ALT,Alanine Aminotransferase,CHEMISTRY,31.42,U/L,7.0,56.0,31.42,31.42,U/L,7.0,56.0,NORMAL,,WEEK 2,4,2024-10-28,14
STUDY001,LB,STUDY001-SUBJ0007,41,L00041,HGB,Hemoglobin,HEMATOLOGY,14.72,g/dL,13.5,17.5,14.72,14.72,g/dL,13.5,17.5,NORMAL,,WEEK 4,5,2024-11-11,28
STUDY001,LB,STUDY001-SUBJ0007,42,L00042,HCT,Hematocrit,HEMATOLOGY,50.25,%,41.0,51.0,50.25,50.25,%,41.0,51.0,NORMAL,,WEEK 4,5,2024-11-11,28
STUDY001,LB,STUDY001-SUBJ0007,43,L00043,WBC,White Blood Cell Count,HEMATOLOGY,8.79,10^9/L,4.5,11.0,8.79,8.79,10^9/L,4.5,11.0,NORMAL,,WEEK 4,5,2024-11-11,28
STUDY001,LB,STUDY001-SUBJ0007,44,L00044,PLT,Platelet Count,HEMATOLOGY,292.52,10^9/L,150.0,450.0,292.52,292.52,10^9/L,150.0,450.0,NORMAL,,WEEK 4,5,2024-11-11,28
STUDY001,LB,STUDY001-SUBJ0007,45,L00045,GLUC,Glucose,CHEMISTRY,91.3,mg/dL,70.0,100.0,91.3,91.3,mg/dL,70.0,100.0,NORMAL,,WEEK 4,5,2024-11-11,28
STUDY001,LB,STUDY001-SUBJ0007,46,L00046,BUN,Blood Urea Nitrogen,CHEMISTRY,12.11,mg/dL,7.0,20.0,12.11,12.11,mg/dL,7.0,20.0,NORMAL,,WEEK 4,5,2024-11-11,28
STUDY001,LB,STUDY001-SUBJ0007,47,L00047,CREAT,Creatinine,CHEMISTRY,1.14,mg/dL,0.6,1.2,1.14,1.14,mg/dL,0.6,1.2,NORMAL,,WEEK 4,5,2024-11-11,28
STUDY001,LB,STUDY001-SUBJ0007,48,L00048,BILI,Total Bilirubin,CHEMISTRY,0.84,mg/dL,0.1,1.2,0.84,0.84,mg/dL,0.1,1.2,NORMAL,,WEEK 4,5,2024-11-11,28
STUDY001,LB,STUDY001-SUBJ0007,49,L00049,ALP,Alkaline Phosphatase,CHEMISTRY,56.22,U/L,44.0,147.0,56.22,56.22,U/L,44.0,147.0,NORMAL,,WEEK 4,5,2024-11-11,28
STUDY001,LB,STUDY001-SUBJ0007,50,L00050,ALT,Alanine Aminotransferase,CHEMISTRY,31.4,U/L,7.0,56.0,31.4,31.4,U/L,7.0,56.0,NORMAL,,WEEK 4,5,2024-11-11,28
STUDY001,LB,STUDY001-SUBJ0007,51,L00051,HGB,Hemoglobin,HEMATOLOGY,14.71,g/dL,13.5,17.5,14.71,14.71,g/dL,13.5,17.5,NORMAL,,WEEK 8,6,2024-12-09,56
STUDY001,LB,STUDY001-SUBJ0007,52,L00052,HCT,Hematocrit,HEMATOLOGY,50.54,%,41.0,51.0,50.54,50.54,%,41.0,51.0,NORMAL,,WEEK 8,6,2024-12-09,56
STUDY001,LB,STUDY001-SUBJ0007,53,L00053,WBC,White Blood Cell Count,HEMATOLOGY,9.21,10^9/L,4.5,11.0,9.21,9.21,10^9/L,4.5,11.0,NORMAL,,WEEK 8,6,2024-12-09,56
STUDY001,LB,STUDY001-SUBJ0007,54,L00054,PLT,Platelet Count,HEMATOLOGY,293.21,10^9/L,150.0,450.0,293.21,293.21,10^9/L,150.0,450.0,NORMAL,,WEEK 8,6,2024-12-09,56
STUDY001,LB,STUDY001-SUBJ0007,55,L00055,GLUC,Glucose,CHEMISTRY,89.03,mg/dL,70.0,100.0,89.03,89.03,mg/dL,70.0,100.0,NORMAL,,WEEK 8,6,2024-12-09,56
STUDY001,LB,STUDY001-SUBJ0007,56,L00056,BUN,Blood Urea Nitrogen,CHEMISTRY,11.37,mg/dL,7.0,20.0,11.37,11.37,mg/dL,7.0,20.0,NORMAL,,WEEK 8,6,2024-12-09,56
STUDY001,LB,STUDY001-SUBJ0007,57,L00057,CREAT,Creatinine,CHEMISTRY,1.14,mg/dL,0.6,1.2,1.14,1.14,mg/dL,0.6,1.2,NORMAL,,WEEK 8,6,2024-12-09,56
STUDY001,LB,STUDY001-SUBJ0007,58,L00058,BILI,Total Bilirubin,CHEMISTRY,0.88,mg/dL,0.1,1.2,0.88,0.88,mg/dL,0.1,1.2,NORMAL,,WEEK 8,6,2024-12-09,56
STUDY001,LB,STUDY001-SUBJ0007,59,L00059,ALP,Alkaline Phosphatase,CHEMISTRY,57.85,U/L,44.0,147.0,57.85,57.85,U/L,44.0,147.0,NORMAL,,WEEK 8,6,2024-12-09,56
STUDY001,LB,STUDY001-SUBJ0007,60,L00060,ALT,Alanine Aminotransferase,CHEMISTRY,32.33,U/L,7.0,56.0,32.33,32.33,U/L,7.0,56.0,NORMAL,,WEEK 8,6,2024-12-09,56
STUDY001,LB,STUDY001-SUBJ0007,61,L00061,HGB,Hemoglobin,HEMATOLOGY,14.56,g/dL,13.5,17.5,14.56,14.56,g/dL,13.5,17.5,NORMAL,,WEEK 12,7,2025-01-06,84
STUDY001,LB,STUDY001-SUBJ0007,62,L00062,HCT,Hematocrit,HEMATOLOGY,50.61,%,41.0,51.0,50.61,50.61,%,41.0,51.0,NORMAL,,WEEK 12,7,2025-01-06,84
STUDY001,LB,STUDY001-SUBJ0007,63,L00063,WBC,White Blood Cell Count,HEMATOLOGY,9.31,10^9/L,4.5,11.0,9.31,9.31,10^9/L,4.5,11.0,NORMAL,,WEEK 12,7,2025-01-06,84
STUDY001,LB,STUDY001-SUBJ0007,64,L00064,PLT,Platelet Count,HEMATOLOGY,292.24,10^9/L,150.0,450.0,292.24,292.24,10^9/L,150.0,450.0,NORMAL,,WEEK 12,7,2025-01-06,84
STUDY001,LB,STUDY001-SUBJ0007,65,L00065,GLUC,Glucose,CHEMISTRY,91.46,mg/dL,70.0,100.0,91.46,91.46,mg/dL,70.0,100.0,NORMAL,,WEEK 12,7,2025-01-06,84
STUDY001,LB,STUDY001-SUBJ0007,66,L00066,BUN,Blood Urea Nitrogen,CHEMISTRY,12.34,mg/dL,7.0,20.0,12.34,12.34,mg/dL,7.0,20.0,NORMAL,,WEEK 12,7,2025-01-06,84
STUDY001,LB,STUDY001-SUBJ0007,67,L00067,CREAT,Creatinine,CHEMISTRY,1.14,mg/dL,0.6,1.2,1.14,1.14,mg/dL,0.6,1.2,NORMAL,,WEEK 12,7,2025-01-06,84
STUDY001,LB,STUDY001-SUBJ0007,68,L00068,BILI,Total Bilirubin,CHEMISTRY,0.84,mg/dL,0.1,1.2,0.84,0.84,mg/dL,0.1,1.2,NORMAL,,WEEK 12,7,2025-01-06,84
STUDY001,LB,STUDY001-SUBJ0007,69,L00069,ALP,Alkaline Phosphatase,CHEMISTRY,56.45,U/L,44.0,147.0,56.45,56.45,U/L,44.0,147.0,NORMAL,,WEEK 12,7,2025-01-06,84
STUDY001,LB,STUDY001-SUBJ0007,70,L00070,ALT,Alanine Aminotransferase,CHEMISTRY,33.27,U/L,7.0,56.0,33.27,33.27,U/L,7.0,56.0,NORMAL,,WEEK 12,7,2025-01-06,84
STUDY001,LB,STUDY001-SUBJ0007,71,L00071,HGB,Hemoglobin,HEMATOLOGY,14.34,g/dL,13.5,17.5,14.34,14.34,g/dL,13.5,17.5,NORMAL,,WEEK 16,8,2025-02-03,112
STUDY001,LB,STUDY001-SUBJ0007,72,L00072,HCT,Hematocrit,HEMATOLOGY,50.76,%,41.0,51.0,50.76,50.76,%,41.0,51.0,NORMAL,,WEEK 16,8,2025-02-03,112
STUDY001,LB,STUDY001-SUBJ0007,73,L00073,WBC,White Blood Cell Count,HEMATOLOGY,9.1,10^9/L,4.5,11.0,9.1,9.1,10^9/L,4.5,11.0,NORMAL,,WEEK 16,8,2025-02-03,112
STUDY001,LB,STUDY001-SUBJ0007,74,L00074,PLT,Platelet Count,HEMATOLOGY,287.11,10^9/L,150.0,450.0,287.11,287.11,10^9/L,150.0,450.0,NORMAL,,WEEK 16,8,2025-02-03,112
STUDY001,LB,STUDY001-SUBJ0007,75,L00075,GLUC,Glucose,CHEMISTRY,90.43,mg/dL,70.0,100.0,90.43,90.43,mg/dL,70.0,100.0,NORMAL,,WEEK 16,8,2025-02-03,112
STUDY001,LB,STUDY001-SUBJ0007,76,L00076,BUN,Blood Urea Nitrogen,CHEMISTRY,11.85,mg/dL,7.0,20.0,11.85,11.85,mg/dL,7.0,20.0,NORMAL,,WEEK 16,8,2025-02-03,112
STUDY001,LB,STUDY001-SUBJ0007,77,L00077,CREAT,Creatinine,CHEMISTRY,1.15,mg/dL,0.6,1.2,1.15,1.15,mg/dL,0.6,1.2,NORMAL,,WEEK 16,8,2025-02-03,112
STUDY001,LB,STUDY001-SUBJ0007,78,L00078,BILI,Total Bilirubin,CHEMISTRY,0.88,mg/dL,0.1,1.2,0.88,0.88,mg/dL,0.1,1.2,NORMAL,,WEEK 16,8,2025-02-03,112
STUDY001,LB,STUDY001-SUBJ0007,79,L00079,ALP,Alkaline Phosphatase,CHEMISTRY,59.85,U/L,44.0,147.0,59.85,59.85,U/L,44.0,147.0,NORMAL,,WEEK 16,8,2025-02-03,112
STUDY001,LB,STUDY001-SUBJ0007,80,L00080,ALT,Alanine Aminotransferase,CHEMISTRY,32.92,U/L,7.0,56.0,32.92,32.92,U/L,7.0,56.0,NORMAL,,WEEK 16,8,2025-02-03,112
STUDY001,LB,STUDY001-SUBJ0007,81,L00081,HGB,Hemoglobin,HEMATOLOGY,14.53,g/dL,13.5,17.5,14.53,14.53,g/dL,13.5,17.5,NORMAL,,END OF TREATMENT,9,2025-03-03,140
STUDY001,LB,STUDY001-SUBJ0007,82,L00082,HCT,Hematocrit,HEMATOLOGY,50.34,%,41.0,51.0,50.34,50.34,%,41.0,51.0,NORMAL,,END OF TREATMENT,9,2025-03-03,140
STUDY001,LB,STUDY001-SUBJ0007,83,L00083,WBC,White Blood Cell Count,HEMATOLOGY,8.73,10^9/L,4.5,11.0,8.73,8.73,10^9/L,4.5,11.0,NORMAL,,END OF TREATMENT,9,2025-03-03,140
STUDY001,LB,STUDY001-SUBJ0007,84,L00084,PLT,Platelet Count,HEMATOLOGY,283.15,10^9/L,150.0,450.0,283.15,283.15,10^9/L,150.0,450.0,NORMAL,,END OF TREATMENT,9,2025-03-03,140
STUDY001,LB,STUDY001-SUBJ0007,85,L00085,GLUC,Glucose,CHEMISTRY,90.1,mg/dL,70.0,100.0,90.1,90.1,mg/dL,70.0,100.0,NORMAL,,END OF TREATMENT,9,2025-03-03,140
STUDY001,LB,STUDY001-SUBJ0007,86,L00086,BUN,Blood Urea Nitrogen,CHEMISTRY,11.56,mg/dL,7.0,20.0,11.56,11.56,mg/dL,7.0,20.0,NORMAL,,END OF TREATMENT,9,2025-03-03,140
STUDY001,LB,STUDY001-SUBJ0007,87,L00087,CREAT,Creatinine,CHEMISTRY,1.14,mg/dL,0.6,1.2,1.14,1.14,mg/dL,0.6,1.2,NORMAL,,END OF TREATMENT,9,2025-03-03,140
STUDY001,LB,STUDY001-SUBJ0007,88,L00088,BILI,Total Bilirubin,CHEMISTRY,0.81,mg/dL,0.1,1.2,0.81,0.81,mg/dL,0.1,1.2,NORMAL,,END OF TREATMENT,9,2025-03-03,140
STUDY001,LB,STUDY001-SUBJ0007,89,L00089,ALP,Alkaline Phosphatase,CHEMISTRY,54.93,U/L,44.0,147.0,54.93,54.93,U/L,44.0,147.0,NORMAL,,END OF TREATMENT,9,2025-03-03,140
STUDY001,LB,STUDY001-SUBJ0007,90,L00090,ALT,Alanine Aminotransferase,CHEMISTRY,32.53,U/L,7.0,56.0,32.53,32.53,U/L,7.0,56.0,NORMAL,,END OF TREATMENT,9,2025-03-03,140
STUDY001,LB,STUDY001-SUBJ0008,1,L00001,HGB,Hemoglobin,HEMATOLOGY,14.2,g/dL,13.5,17.5,14.2,14.2,g/dL,13.5,17.5,NORMAL,,SCREENING,1,2025-04-21,-14
STUDY001,LB,STUDY001-SUBJ0008,2,L00002,HCT,Hematocrit,HEMATOLOGY,48.19,%,41.0,51.0,48.19,48.19,%,41.0,51.0,NORMAL,,SCREENING,1,2025-04-21,-14
STUDY001,LB,STUDY001-SUBJ0008,3,L00003,WBC,White Blood Cell Count,HEMATOLOGY,10.52,10^9/L,4.5,11.0,10.52,10.52,10^9/L,4.5,11.0,NORMAL,,SCREENING,1,2025-04-21,-14
STUDY001,LB,STUDY001-SUBJ0008,4,L00004,PLT,Platelet Count,HEMATOLOGY,267.59,10^9/L,150.0,450.0,267.59,267.59,10^9/L,150.0,450.0,NORMAL,,SCREENING,1,2025-04-21,-14
STUDY001,LB,STUDY001-SUBJ0008,5,L00005,GLUC,Glucose,CHEMISTRY,77.18,mg/dL,70.0,100.0,77.18,77.18,mg/dL,70.0,100.0,NORMAL,,SCREENING,1,2025-04-21,-14
STUDY001,LB,STUDY001-SUBJ0008,6,L00006,BUN,Blood Urea Nitrogen,CHEMISTRY,14.26,mg/dL,7.0,20.0,14.26,14.26,mg/dL,7.0,20.0,NORMAL,,SCREENING,1,2025-04-21,-14
STUDY001,LB,STUDY001-SUBJ0008,7,L00007,CREAT,Creatinine,CHEMISTRY,1.05,mg/dL,0.6,1.2,1.05,1.05,mg/dL,0.6,1.2,NORMAL,,SCREENING,1,2025-04-21,-14
STUDY001,LB,STUDY001-SUBJ0008,8,L00008,BILI,Total Bilirubin,CHEMISTRY,0.43,mg/dL,0.1,1.2,0.43,0.43,mg/dL,0.1,1.2,NORMAL,,SCREENING,1,2025-04-21,-14
STUDY001,LB,STUDY001-SUBJ0008,9,L00009,ALP,Alkaline Phosphatase,CHEMISTRY,36.85,U/L,44.0,147.0,36.85,36.85,U/L,44.0,147.0,LOW,,SCREENING,1,2025-04-21,-14
STUDY001,LB,STUDY001-SUBJ0008,10,L00010,ALT,Alanine Aminotransferase,CHEMISTRY,27.81,U/L,7.0,56.0,27.81,27.81,U/L,7.0,56.0,NORMAL,,SCREENING,1,2025-04-21,-14
STUDY001,LB,STUDY001-SUBJ0008,11,L00011,HGB,Hemoglobin,HEMATOLOGY,14.04,g/dL,13.5,17.5,14.04,14.04,g/dL,13.5,17.5,NORMAL,Y,BASELINE,2,2025-05-05,1
STUDY001,LB,STUDY001-SUBJ0008,12,L00012,HCT,Hematocrit,HEMATOLOGY,47.95,%,41.0,51.0,47.95,47.95,%,41.0,51.0,NORMAL,Y,BASELINE,2,2025-05-05,1
STUDY001,LB,STUDY001-SUBJ0008,13,L00013,WBC,White Blood Cell Count,HEMATOLOGY,10.54,10^9/L,4.5,11.0,10.54,10.54,10^9/L,4.5,11.0,NORMAL,Y,BASELINE,2,2025-05-05,1
STUDY001,LB,STUDY001-SUBJ0008,14,L00014,PLT,Platelet Count,HEMATOLOGY,257.65,10^9/L,150.0,450.0,257.65,257.65,10^9/L,150.0,450.0,NORMAL,Y,BASELINE,2,2025-05-05,1
STUDY001,LB,STUDY001-SUBJ0008,15,L00015,GLUC,Glucose,CHEMISTRY,77.95,mg/dL,70.0,100.0,77.95,77.95,mg/dL,70.0,100.0,NORMAL,Y,BASELINE,2,2025-05-05,1
STUDY001,LB,STUDY001-SUBJ0008,16,L00016,BUN,Blood Urea Nitrogen,CHEMISTRY,13.93,mg/dL,7.0,20.0,13.93,13.93,mg/dL,7.0,20.0,NORMAL,Y,BASELINE,2,2025-05-05,1
STUDY001,LB,STUDY001-SUBJ0008,17,L00017,CREAT,Creatinine,CHEMISTRY,1.07,mg/dL,0.6,1.2,1.07,1.07,mg/dL,0.6,1.2,NORMAL,Y,BASELINE,2,2025-05-05,1
STUDY001,LB,STUDY001-SUBJ0008,18,L00018,BILI,Total Bilirubin,CHEMISTRY,0.49,mg/dL,0.1,1.2,0.49,0.49,mg/dL,0.1,1.2,NORMAL,Y,BASELINE,2,2025-05-05,1
STUDY001,LB,STUDY001-SUBJ0008,19,L00019,ALP,Alkaline Phosphatase,CHEMISTRY,32.97,U/L,44.0,147.0,32.97,32.97,U/L,44.0,147.0,LOW,Y,BASELINE,2,2025-05-05,1
STUDY001,LB,STUDY001-SUBJ0008,20,L00020,ALT,Alanine Aminotransferase,CHEMISTRY,25.4,U/L,7.0,56.0,25.4,25.4,U/L,7.0,56.0,NORMAL,Y,BASELINE,2,2025-05-05,1
STUDY001,LB,STUDY001-SUBJ0008,21,L00021,HGB,Hemoglobin,HEMATOLOGY,14.07,g/dL,13.5,17.5,14.07,14.07,g/dL,13.5,17.5,NORMAL,,WEEK 1,3,2025-05-11,7
STUDY001,LB,STUDY001-SUBJ0008,22,L00022,HCT,Hematocrit,HEMATOLOGY,48.23,%,41.0,51.0,48.23,48.23,%,41.0,51.0,NORMAL,,WEEK 1,3,2025-05-11,7
STUDY001,LB,STUDY001-SUBJ0008,23,L00023,WBC,White Blood Cell Count,HEMATOLOGY,10.57,10^9/L,4.5,11.0,10.57,10.57,10^9/L,4.5,11.0,NORMAL,,WEEK 1,3,2025-05-11,7
STUDY001,LB,STUDY001-SUBJ0008,24,L00024,PLT,Platelet Count,HEMATOLOGY,261.25,10^9/L,150.0,450.0,261.25,261.25,10^9/L,150.0,450.0,NORMAL,,WEEK 1,3,2025-05-11,7
STUDY001,LB,STUDY001-SUBJ0008,25,L00025,GLUC,Glucose,CHEMISTRY,77.6,mg/dL,70.0,100.0,77.6,77.6,mg/dL,70.0,100.0,NORMAL,,WEEK 1,3,2025-05-11,7
STUDY001,LB,STUDY001-SUBJ0008,26,L00026,BUN,Blood Urea Nitrogen,CHEMISTRY,13.88,mg/dL,7.0,20.0,13.88,13.88,mg/dL,7.0,20.0,NORMAL,,WEEK 1,3,2025-05-11,7
STUDY001,LB,STUDY001-SUBJ0008,27,L00027,CREAT,Creatinine,CHEMISTRY,1.05,mg/dL,0.6,1.2,1.05,1.05,mg/dL,0.6,1.2,NORMAL,,WEEK 1,3,2025-05-11,7
STUDY001,LB,STUDY001-SUBJ0008,28,L00028,BILI,Total Bilirubin,CHEMISTRY,0.45,mg/dL,0.1,1.2,0.45,0.45,mg/dL,0.1,1.2,NORMAL,,WEEK 1,3,2025-05-11,7
STUDY001,LB,STUDY001-SUBJ0008,29,L00029,ALP,Alkaline Phosphatase,CHEMISTRY,30.53,U/L,44.0,147.0,30.53,30.53,U/L,44.0,147.0,LOW,,WEEK 1,3,2025-05-11,7
STUDY001,LB,STUDY001-SUBJ0008,30,L00030,ALT,Alanine Aminotransferase,CHEMISTRY,26.34,U/L,7.0,56.0,26.34,26.34,U/L,7.0,56.0,NORMAL,,WEEK 1,3,2025-05-11,7
STUDY001,LB,STUDY001-SUBJ0008,31,L00031,HGB,Hemoglobin,HEMATOLOGY,14.08,g/dL,13.5,17.5,14.08,14.08,g/dL,13.5,17.5,NORMAL,,WEEK 2,4,2025-05-18,14
STUDY001,LB,STUDY001-SUBJ0008,32,L00032,HCT,Hematocrit,HEMATOLOGY,48.33,%,41.0,51.0,48.33,48.33,%,41.0,51.0,NORMAL,,WEEK 2,4,2025-05-18,14
STUDY001,LB,STUDY001-SUBJ0008,33,L00033,WBC,White Blood Cell Count,HEMATOLOGY,10.46,10^9/L,4.5,11.0,10.46,10.46,10^9/L,4.5,11.0,NORMAL,,WEEK 2,4,2025-05-18,14
STUDY001,LB,STUDY001-SUBJ0008,34,L00034,PLT,Platelet Count,HEMATOLOGY,263.17,10^9/L,150.0,450.0,263.17,263.17,10^9/L,150.0,450.0,NORMAL,,WEEK 2,4,2025-05-18,14
STUDY001,LB,STUDY001-SUBJ0008,35,L00035,GLUC,Glucose,CHEMISTRY,76.46,mg/dL,70.0,100.0,76.46,76.46,mg/dL,70.0,100.0,NORMAL,,WEEK 2,4,2025-05-18,14
STUDY001,LB,STUDY001-SUBJ0008,36,L00036,BUN,Blood Urea Nitrogen,CHEMISTRY,13.81,mg/dL,7.0,20.0,13.81,13.81,mg/dL,7.0,20.0,NORMAL,,WEEK 2,4,2025-05-18,14
STUDY001,LB,STUDY001-SUBJ0008,37,L00037,CREAT,Creatinine,CHEMISTRY,1.02,mg/dL,0.6,1.2,1.02,1.02,mg/dL,0.6,1.2,NORMAL,,WEEK 2,4,2025-05-18,14
STUDY001,LB,STUDY001-SUBJ0008,38,L00038,BILI,Total Bilirubin,CHEMISTRY,0.5,mg/dL,0.1,1.2,0.5,0.5,mg/dL,0.1,1.2,NORMAL,,WEEK 2,4,2025-05-18,14
STUDY001,LB,STUDY001-SUBJ0008,39,L00039,ALP,Alkaline Phosphatase,CHEMISTRY,37.5,U/L,44.0,147.0,37.5,37.5,U/L,44.0,147.0,LOW,,WEEK 2,4,2025-05-18,14
STUDY001,LB,STUDY001-SUBJ0008,40,L00040,ALT,Alanine Aminotransferase,CHEMISTRY,26.66,U/L,7.0,56.0,26.66,26.66,U/L,7.0,56.0,NORMAL,,WEEK 2,4,2025-05-18,14
STUDY001,LB,STUDY001-SUBJ0008,41,L00041,HGB,Hemoglobin,HEMATOLOGY,14.11,g/dL,13.5,17.5,14.11,14.11,g/dL,13.5,17.5,NORMAL,,WEEK 4,5,2025-06-01,28
STUDY001,LB,STUDY001-SUBJ0008,42,L00042,HCT,Hematocrit,HEMATOLOGY,47.86,%,41.0,51.0,47.86,47.86,%,41.0,51.0,NORMAL,,WEEK 4,5,2025-06-01,28
STUDY001,LB,STUDY001-SUBJ0008,43,L00043,WBC,White Blood Cell Count,HEMATOLOGY,10.42,10^9/L,4.5,11.0,10.42,10.42,10^9/L,4.5,11.0,NORMAL,,WEEK 4,5,2025-06-01,28
STUDY001,LB,STUDY001-SUBJ0008,44,L00044,PLT,Platelet Count,HEMATOLOGY,273.86,10^9/L,150.0,450.0,273.86,273.86,10^9/L,150.0,450.0,NORMAL,,WEEK 4,5,2025-06-01,28
STUDY001,LB,STUDY001-SUBJ0008,45,L00045,GLUC,Glucose,CHEMISTRY,77.54,mg/dL,70.0,100.0,77.54,77.54,mg/dL,70.0,100.0,NORMAL,,WEEK 4,5,2025-06-01,28
STUDY001,LB,STUDY001-SUBJ0008,46,L00046,BUN,Blood Urea Nitrogen,CHEMISTRY,14.5,mg/dL,7.0,20.0,14.5,14.5,mg/dL,7.0,20.0,NORMAL,,WEEK 4,5,2025-06-01,28
STUDY001,LB,STUDY001-SUBJ0008,47,L00047,CREAT,Creatinine,CHEMISTRY,1.04,mg/dL,0.6,1.2,1.04,1.04,mg/dL,0.6,1.2,NORMAL,,WEEK 4,5,2025-06-01,28
STUDY001,LB,STUDY001-SUBJ0008,48,L00048,BILI,Total Bilirubin,CHEMISTRY,0.47,mg/dL,0.1,1.2,0.47,0.47,mg/dL,0.1,1.2,NORMAL,,WEEK 4,5,2025-06-01,28
STUDY001,LB,STUDY001-SUBJ0008,49,L00049,ALP,Alkaline Phosphatase,CHEMISTRY,33.46,U/L,44.0,147.0,33.46,33.46,U/L,44.0,147.0,LOW,,WEEK 4,5,2025-06-01,28
STUDY001,LB,STUDY001-SUBJ0008,50,L00050,ALT,Alanine Aminotransferase,CHEMISTRY,25.15,U/L,7.0,56.0,25.15,25.15,U/L,7.0,56.0,NORMAL,,WEEK 4,5,2025-06-01,28
STUDY001,LB,STUDY001-SUBJ0008,51,L00051,HGB,Hemoglobin,HEMATOLOGY,14.11,g/dL,13.5,17.5,14.11,14.11,g/dL,13.5,17.5,NORMAL,,WEEK 8,6,2025-06-29,56
STUDY001,LB,STUDY001-SUBJ0008,52,L00052,HCT,Hematocrit,HEMATOLOGY,48.26,%,41.0,51.0,48.26,48.26,%,41.0,51.0,NORMAL,,WEEK 8,6,2025-06-29,56
STUDY001,LB,STUDY001-SUBJ0008,53,L00053,WBC,White Blood Cell Count,HEMATOLOGY,10.39,10^9/L,4.5,11.0,10.39,10.39,10^9/L,4.5,11.0,NORMAL,,WEEK 8,6,2025-06-29,56
STUDY001,LB,STUDY001-SUBJ0008,54,L00054,PLT,Platelet Count,HEMATOLOGY,258.42,10^9/L,150.0,450.0,258.42,258.42,10^9/L,150.0,450.0,NORMAL,,WEEK 8,6,2025-06-29,56
STUDY001,LB,STUDY001-SUBJ0008,55,L00055,GLUC,Glucose,CHEMISTRY,77.03,mg/dL,70.0,100.0,77.03,77.03,mg/dL,70.0,100.0,NORMAL,,WEEK 8,6,2025-06-29,56
STUDY001,LB,STUDY001-SUBJ0008,56,L00056,BUN,Blood Urea Nitrogen,CHEMISTRY,13.71,mg/dL,7.0,20.0,13.71,13.71,mg/dL,7.0,20.0,NORMAL,,WEEK 8,6,2025-06-29,56
STUDY001,LB,STUDY001-SUBJ0008,57,L00057,CREAT,Creatinine,CHEMISTRY,1.04,mg/dL,0.6,1.2,1.04,1.04,mg/dL,0.6,1.2,NORMAL,,WEEK 8,6,2025-06-29,56
STUDY001,LB,STUDY001-SUBJ0008,58,L00058,BILI,Total Bilirubin,CHEMISTRY,0.48,mg/dL,0.1,1.2,0.48,0.48,mg/dL,0.1,1.2,NORMAL,,WEEK 8,6,2025-06-29,56
STUDY001,LB,STUDY001-SUBJ0008,59,L00059,ALP,Alkaline Phosphatase,CHEMISTRY,34.69,U/L,44.0,147.0,34.69,34.69,U/L,44.0,147.0,LOW,,WEEK 8,6,2025-06-29,56
STUDY001,LB,STUDY001-SUBJ0008,60,L00060,ALT,Alanine Aminotransferase,CHEMISTRY,27.96,U/L,7.0,56.0,27.96,27.96,U/L,7.0,56.0,NORMAL,,WEEK 8,6,2025-06-29,56
STUDY001,LB,STUDY001-SUBJ0008,61,L00061,HGB,Hemoglobin,HEMATOLOGY,14.2,g/dL,13.5,17.5,14.2,14.2,g/dL,13.5,17.5,NORMAL,,WEEK 12,7,2025-07-27,84
STUDY001,LB,STUDY001-SUBJ0008,62,L00062,HCT,Hematocrit,HEMATOLOGY,47.95,%,41.0,51.0,47.95,47.95,%,41.0,51.0,NORMAL,,WEEK 12,7,2025-07-27,84
STUDY001,LB,STUDY001-SUBJ0008,63,L00063,WBC,White Blood Cell Count,HEMATOLOGY,10.17,10^9/L,4.5,11.0,10.17,10.17,10^9/L,4.5,11.0,NORMAL,,WEEK 12,7,2025-07-27,84
STUDY001,LB,STUDY001-SUBJ0008,64,L00064,PLT,Platelet Count,HEMATOLOGY,264.31,10^9/L,150.0,450.0,264.31,264.31,10^9/L,150.0,450.0,NORMAL,,WEEK 12,7,2025-07-27,84
STUDY001,LB,STUDY001-SUBJ0008,65,L00065,GLUC,Glucose,CHEMISTRY,77.24,mg/dL,70.0,100.0,77.24,77.24,mg/dL,70.0,100.0,NORMAL,,WEEK 12,7,2025-07-27,84
STUDY001,LB,STUDY001-SUBJ0008,66,L00066,BUN,Blood Urea Nitrogen,CHEMISTRY,14.36,mg/dL,7.0,20.0,14.36,14.36,mg/dL,7.0,20.0,NORMAL,,WEEK 12,7,2025-07-27,84
STUDY001,LB,STUDY001-SUBJ0008,67,L00067,CREAT,Creatinine,CHEMISTRY,1.07,mg/dL,0.6,1.2,1.07,1.07,mg/dL,0.6,1.2,NORMAL,,WEEK 12,7,2025-07-27,84
STUDY001,LB,STUDY001-SUBJ0008,68,L00068,BILI,Total Bilirubin,CHEMISTRY,0.51,mg/dL,0.1,1.2,0.51,0.51,mg/dL,0.1,1.2,NORMAL,,WEEK 12,7,2025-07-27,84
STUDY001,LB,STUDY001-SUBJ0008,69,L00069,ALP,Alkaline Phosphatase,CHEMISTRY,31.82,U/L,44.0,147.0,31.82,31.82,U/L,44.0,147.0,LOW,,WEEK 12,7,2025-07-27,84
STUDY001,LB,STUDY001-SUBJ0008,70,L00070,ALT,Alanine Aminotransferase,CHEMISTRY,26.03,U/L,7.0,56.0,26.03,26.03,U/L,7.0,56.0,NORMAL,,WEEK 12,7,2025-07-27,84
STUDY001,LB,STUDY001-SUBJ0008,71,L00071,HGB,Hemoglobin,HEMATOLOGY,14.29,g/dL,13.5,17.5,14.29,14.29,g/dL,13.5,17.5,NORMAL,,WEEK 16,8,2025-08-24,112
STUDY001,LB,STUDY001-SUBJ0008,72,L00072,HCT,Hematocrit,HEMATOLOGY,48.46,%,41.0,51.0,48.46,48.46,%,41.0,51.0,NORMAL,,WEEK 16,8,2025-08-24,112
STUDY001,LB,STUDY001-SUBJ0008,73,L00073,WBC,White Blood Cell Count,HEMATOLOGY,10.55,10^9/L,4.5,11.0,10.55,10.55,10^9/L,4.5,11.0,NORMAL,,WEEK 16,8,2025-08-24,112
STUDY001,LB,STUDY001-SUBJ0008,74,L00074,PLT,Platelet Count,HEMATOLOGY,267.6,10^9/L,150.0,450.0,267.6,267.6,10^9/L,150.0,450.0,NORMAL,,WEEK 16,8,2025-08-24,112
STUDY001,LB,STUDY001-SUBJ0008,75,L00075,GLUC,Glucose,CHEMISTRY,76.43,mg/dL,70.0,100.0,76.43,76.43,mg/dL,70.0,100.0,NORMAL,,WEEK 16,8,2025-08-24,112
STUDY001,LB,STUDY001-SUBJ0008,76,L00076,BUN,Blood Urea Nitrogen,CHEMISTRY,14.36,mg/dL,7.0,20.0,14.36,14.36,mg/dL,7.0,20.0,NORMAL,,WEEK 16,8,2025-08-24,112
STUDY001,LB,STUDY001-SUBJ0008,77,L00077,CREAT,Creatinine,CHEMISTRY,1.09,mg/dL,0.6,1.2,1.09,1.09,mg/dL,0.6,1.2,NORMAL,,WEEK 16,8,2025-08-24,112
STUDY001,LB,STUDY001-SUBJ0008,78,L00078,BILI,Total Bilirubin,CHEMISTRY,0.49,mg/dL,0.1,1.2,0.49,0.49,mg/dL,0.1,1.2,NORMAL,,WEEK 16,8,2025-08-24,112
STUDY001,LB,STUDY001-SUBJ0008,79,L00079,ALP,Alkaline Phosphatase,CHEMISTRY,37.7,U/L,44.0,147.0,37.7,37.7,U/L,44.0,147.0,LOW,,WEEK 16,8,2025-08-24,112
STUDY001,LB,STUDY001-SUBJ0008,80,L00080,ALT,Alanine Aminotransferase,CHEMISTRY,25.06,U/L,7.0,56.0,25.06,25.06,U/L,7.0,56.0,NORMAL,,WEEK 16,8,2025-08-24,112
STUDY001,LB,STUDY001-SUBJ0008,81,L00081,HGB,Hemoglobin,HEMATOLOGY,14.14,g/dL,13.5,17.5,14.14,14.14,g/dL,13.5,17.5,NORMAL,,END OF TREATMENT,9,2025-09-21,140
STUDY001,LB,STUDY001-SUBJ0008,82,L00082,HCT,Hematocrit,HEMATOLOGY,48.41,%,41.0,51.0,48.41,48.41,%,41.0,51.0,NORMAL,,END OF TREATMENT,9,2025-09-21,140
STUDY001,LB,STUDY001-SUBJ0008,83,L00083,WBC,White Blood Cell Count,HEMATOLOGY,10.34,10^9/L,4.5,11.0,10.34,10.34,10^9/L,4.5,11.0,NORMAL,,END OF TREATMENT,9,2025-09-21,140
STUDY001,LB,STUDY001-SUBJ0008,84,L00084,PLT,Platelet Count,HEMATOLOGY,261.47,10^9/L,150.0,450.0,261.47,261.47,10^9/L,150.0,450.0,NORMAL,,END OF TREATMENT,9,2025-09-21,140
STUDY001,LB,STUDY001-SUBJ0008,85,L00085,GLUC,Glucose,CHEMISTRY,75.74,mg/dL,70.0,100.0,75.74,75.74,mg/dL,70.0,100.0,NORMAL,,END OF TREATMENT,9,2025-09-21,140
STUDY001,LB,STUDY001-SUBJ0008,86,L00086,BUN,Blood Urea Nitrogen,CHEMISTRY,14.78,mg/dL,7.0,20.0,14.78,14.78,mg/dL,7.0,20.0,NORMAL,,END OF TREATMENT,9,2025-09-21,140
STUDY001,LB,STUDY001-SUBJ0008,87,L00087,CREAT,Creatinine,CHEMISTRY,1.04,mg/dL,0.6,1.2,1.04,1.04,mg/dL,0.6,1.2,NORMAL,,END OF TREATMENT,9,2025-09-21,140
STUDY001,LB,STUDY001-SUBJ0008,88,L00088,BILI,Total Bilirubin,CHEMISTRY,0.48,mg/dL,0.1,1.2,0.48,0.48,mg/dL,0.1,1.2,NORMAL,,END OF TREATMENT,9,2025-09-21,140
STUDY001,LB,STUDY001-SUBJ0008,89,L00089,ALP,Alkaline Phosphatase,CHEMISTRY,34.22,U/L,44.0,147.0,34.22,34.22,U/L,44.0,147.0,LOW,,END OF TREATMENT,9,2025-09-21,140
STUDY001,LB,STUDY001-SUBJ0008,90,L00090,ALT,Alanine Aminotransferase,CHEMISTRY,24.84,U/L,7.0,56.0,24.84,24.84,U/L,7.0,56.0,NORMAL,,END OF TREATMENT,9,2025-09-21,140
STUDY001,LB,STUDY001-SUBJ0009,1,L00001,HGB,Hemoglobin,HEMATOLOGY,14.74,g/dL,13.5,17.5,14.74,14.74,g/dL,13.5,17.5,NORMAL,,SCREENING,1,2024-09-20,-14
STUDY001,LB,STUDY001-SUBJ0009,2,L00002,HCT,Hematocrit,HEMATOLOGY,46.54,%,41.0,51.0,46.54,46.54,%,41.0,51.0,NORMAL,,SCREENING,1,2024-09-20,-14
STUDY001,LB,STUDY001-SUBJ0009,3,L00003,WBC,White Blood Cell Count,HEMATOLOGY,6.72,10^9/L,4.5,11.0,6.72,6.72,10^9/L,4.5,11.0,NORMAL,,SCREENING,1,2024-09-20,-14
STUDY001,LB,STUDY001-SUBJ0009,4,L00004,PLT,Platelet Count,HEMATOLOGY,239.98,10^9/L,150.0,450.0,239.98,239.98,10^9/L,150.0,450.0,NORMAL,,SCREENING,1,2024-09-20,-14
STUDY001,LB,STUDY001-SUBJ0009,5,L00005,GLUC,Glucose,CHEMISTRY,82.37,mg/dL,70.0,100.0,82.37,82.37,mg/dL,70.0,100.0,NORMAL,,SCREENING,1,2024-09-20,-14
STUDY001,LB,STUDY001-SUBJ0009,6,L00006,BUN,Blood Urea Nitrogen,CHEMISTRY,16.66,mg/dL,7.0,20.0,16.66,16.66,mg/dL,7.0,20.0,NORMAL,,SCREENING,1,2024-09-20,-14
STUDY001,LB,STUDY001-SUBJ0009,7,L00007,CREAT,Creatinine,CHEMISTRY,0.77,mg/dL,0.6,1.2,0.77,0.77,mg/dL,0.6,1.2,NORMAL,,SCREENING,1,2024-09-20,-14
STUDY001,LB,STUDY001-SUBJ0009,8,L00008,BILI,Total Bilirubin,CHEMISTRY,0.54,mg/dL,0.1,1.2,0.54,0.54,mg/dL,0.1,1.2,NORMAL,,SCREENING,1,2024-09-20,-14
STUDY001,LB,STUDY001-SUBJ0009,9,L00009,ALP,Alkaline Phosphatase,CHEMISTRY,118.07,U/L,44.0,147.0,118.07,118.07,U/L,44.0,147.0,NORMAL,,SCREENING,1,2024-09-20,-14
STUDY001,LB,STUDY001-SUBJ0009,10,L00010,ALT,Alanine Aminotransferase,CHEMISTRY,15.74,U/L,7.0,56.0,15.74,15.74,U/L,7.0,56.0,NORMAL,,SCREENING,1,2024-09-20,-14
STUDY001,LB,STUDY001-SUBJ0009,11,L00011,HGB,Hemoglobin,HEMATOLOGY,14.65,g/dL,13.5,17.5,14.65,14.65,g/dL,13.5,17.5,NORMAL,Y,BASELINE,2,2024-10-04,1
STUDY001,LB,STUDY001-SUBJ0009,12,L00012,HCT,Hematocrit,HEMATOLOGY,46.17,%,41.0,51.0,46.17,46.17,%,41.0,51.0,NORMAL,Y,BASELINE,2,2024-10-04,1
STUDY001,LB,STUDY001-SUBJ0009,13,L00013,WBC,White Blood Cell Count,HEMATOLOGY,7.11,10^9/L,4.5,11.0,7.11,7.11,10^9/L,4.5,11.0,NORMAL,Y,BASELINE,2,2024-10-04,1
STUDY001,LB,STUDY001-SUBJ0009,14,L00014,PLT,Platelet Count,HEMATOLOGY,253.14,10^9/L,150.0,450.0,253.14,253.14,10^9/L,150.0,450.0,NORMAL,Y,BASELINE,2,2024-10-04,1
STUDY001,LB,STUDY001-SUBJ0009,15,L00015,GLUC,Glucose,CHEMISTRY,81.46,mg/dL,70.0,100.0,81.46,81.46,mg/dL,70.0,100.0,NORMAL,Y,BASELINE,2,2024-10-04,1
STUDY001,LB,STUDY001-SUBJ0009,16,L00016,BUN,Blood Urea Nitrogen,CHEMISTRY,16.63,mg/dL,7.0,20.0,16.63,16.63,mg/dL,7.0,20.0,NORMAL,Y,BASELINE,2,2024-10-04,1
STUDY001,LB,STUDY001-SUBJ0009,17,L00017,CREAT,Creatinine,CHEMISTRY,0.76,mg/dL,0.6,1.2,0.76,0.76,mg/dL,0.6,1.2,NORMAL,Y,BASELINE,2,2024-10-04,1
STUDY001,LB,STUDY001-SUBJ0009,18,L00018,BILI,Total Bilirubin,CHEMISTRY,0.57,mg/dL,0.1,1.2,0.57,0.57,mg/dL,0.1,1.2,NORMAL,Y,BASELINE,2,2024-10-04,1
STUDY001,LB,STUDY001-SUBJ0009,19,L00019,ALP,Alkaline Phosphatase,CHEMISTRY,113.03,U/L,44.0,147.0,113.03,113.03,U/L,44.0,147.0,NORMAL,Y,BASELINE,2,2024-10-04,1
STUDY001,LB,STUDY001-SUBJ0009,20,L00020,ALT,Alanine Aminotransferase,CHEMISTRY,14.58,U/L,7.0,56.0,14.58,14.58,U/L,7.0,56.0,NORMAL,Y,BASELINE,2,2024-10-04,1
STUDY001,LB,STUDY001-SUBJ0009,21,L00021,HGB,Hemoglobin,HEMATOLOGY,14.84,g/dL,13.5,17.5,14.84,14.84,g/dL,13.5,17.5,NORMAL,,WEEK 1,3,2024-10-10,7
STUDY001,LB,STUDY001-SUBJ0009,22,L00022,HCT,Hematocrit,HEMATOLOGY,46.55,%,41.0,51.0,46.55,46.55,%,41.0,51.0,NORMAL,,WEEK 1,3,2024-10-10,7
STUDY001,LB,STUDY001-SUBJ0009,23,L00023,WBC,White Blood Cell Count,HEMATOLOGY,6.97,10^9/L,4.5,11.0,6.97,6.97,10^9/L,4.5,11.0,NORMAL,,WEEK 1,3,2024-10-10,7
STUDY001,LB,STUDY001-SUBJ0009,24,L00024,PLT,Platelet Count,HEMATOLOGY,247.86,10^9/L,150.0,450.0,247.86,247.86,10^9/L,150.0,450.0,NORMAL,,WEEK 1,3,2024-10-10,7
STUDY001,LB,STUDY001-SUBJ0009,25,L00025,GLUC,Glucose,CHEMISTRY,82.69,mg/dL,70.0,100.0,82.69,82.69,mg/dL,70.0,100.0,NORMAL,,WEEK 1,3,2024-10-10,7
STUDY001,LB,STUDY001-SUBJ0009,26,L00026,BUN,Blood Urea Nitrogen,CHEMISTRY,16.47,mg/dL,7.0,20.0,16.47,16.47,mg/dL,7.0,20.0,NORMAL,,WEEK 1,3,2024-10-10,7
STUDY001,LB,STUDY001-SUBJ0009,27,L00027,CREAT,Creatinine,CHEMISTRY,0.78,mg/dL,0.6,1.2,0.78,0.78,mg/dL,0.6,1.2,NORMAL,,WEEK 1,3,2024-10-10,7
STUDY001,LB,STUDY001-SUBJ0009,28,L00028,BILI,Total Bilirubin,CHEMISTRY,0.5,mg/dL,0.1,1.2,0.5,0.5,mg/dL,0.1,1.2,NORMAL,,WEEK 1,3,2024-10-10,7
STUDY001,LB,STUDY001-SUBJ0009,29,L00029,ALP,Alkaline Phosphatase,CHEMISTRY,115.08,U/L,44.0,147.0,115.08,115.08,U/L,44.0,147.0,NORMAL,,WEEK 1,3,2024-10-10,7
STUDY001,LB,STUDY001-SUBJ0009,30,L00030,ALT,Alanine Aminotransferase,CHEMISTRY,14.72,U/L,7.0,56.0,14.72,14.72,U/L,7.0,56.0,NORMAL,,WEEK 1,3,2024-10-10,7
STUDY001,LB,STUDY001-SUBJ0009,31,L00031,HGB,Hemoglobin,HEMATOLOGY,14.73,g/dL,13.5,17.5,14.73,14.73,g/dL,13.5,17.5,NORMAL,,WEEK 2,4,2024-10-17,14
STUDY001,LB,STUDY001-SUBJ0009,32,L00032,HCT,Hematocrit,HEMATOLOGY,46.79,%,41.0,51.0,46.79,46.79,%,41.0,51.0,NORMAL,,WEEK 2,4,2024-10-17,14
STUDY001,LB,STUDY001-SUBJ0009,33,L00033,WBC,White Blood Cell Count,HEMATOLOGY,7.2,10^9/L,4.5,11.0,7.2,7.2,10^9/L,4.5,11.0,NORMAL,,WEEK 2,4,2024-10-17,14
STUDY001,LB,STUDY001-SUBJ0009,34,L00034,PLT,Platelet Count,HEMATOLOGY,240.64,10^9/L,150.0,450.0,240.64,240.64,10^9/L,150.0,450.0,NORMAL,,WEEK 2,4,2024-10-17,14
STUDY001,LB,STUDY001-SUBJ0009,35,L00035,GLUC,Glucose,CHEMISTRY,81.17,mg/dL,70.0,100.0,81.17,81.17,mg/dL,70.0,100.0,NORMAL,,WEEK 2,4,2024-10-17,14
STUDY001,LB,STUDY001-SUBJ0009,36,L00036,BUN,Blood Urea Nitrogen,CHEMISTRY,16.27,mg/dL,7.0,20.0,16.27,16.27,mg/dL,7.0,20.0,NORMAL,,WEEK 2,4,2024-10-17,14
STUDY001,LB,STUDY001-SUBJ0009,37,L00037,CREAT,Creatinine,CHEMISTRY,0.76,mg/dL,0.6,1.2,0.76,0.76,mg/dL,0.6,1.2,NORMAL,,WEEK 2,4,2024-10-17,14
STUDY001,LB,STUDY001-SUBJ0009,38,L00038,BILI,Total Bilirubin,CHEMISTRY,0.57,mg/dL,0.1,1.2,0.57,0.57,mg/dL,0.1,1.2,NORMAL,,WEEK 2,4,2024-10-17,14
STUDY001,LB,STUDY001-SUBJ0009,39,L00039,ALP,Alkaline Phosphatase,CHEMISTRY,116.66,U/L,44.0,147.0,116.66,116.66,U/L,44.0,147.0,NORMAL,,WEEK 2,4,2024-10-17,14
STUDY001,LB,STUDY001-SUBJ0009,40,L00040,ALT,Alanine Aminotransferase,CHEMISTRY,13.49,U/L,7.0,56.0,13.49,13.49,U/L,7.0,56.0,NORMAL,,WEEK 2,4,2024-10-17,14
STUDY001,LB,STUDY001-SUBJ0009,41,L00041,HGB,Hemoglobin,HEMATOLOGY,15.0,g/dL,13.5,17.5,15.0,15.0,g/dL,13.5,17.5,NORMAL,,WEEK 4,5,2024-10-31,28
STUDY001,LB,STUDY001-SUBJ0009,42,L00042,HCT,Hematocrit,HEMATOLOGY,46.35,%,41.0,51.0,46.35,46.35,%,41.0,51.0,NORMAL,,WEEK 4,5,2024-10-31,28
STUDY001,LB,STUDY001-SUBJ0009,43,L00043,WBC,White Blood Cell Count,HEMATOLOGY,7.0,10^9/L,4.5,11.0,7.0,7.0,10^9/L,4.5,11.0,NORMAL,,WEEK 4,5,2024-10-31,28
STUDY001,LB,STUDY001-SUBJ0009,44,L00044,PLT,Platelet Count,HEMATOLOGY,242.53,10^9/L,150.0,450.0,242.53,242.53,10^9/L,150.0,450.0,NORMAL,,WEEK 4,5,2024-10-31,28
STUDY001,LB,STUDY001-SUBJ0009,45,L00045,GLUC,Glucose,CHEMISTRY,81.02,mg/dL,70.0,100.0,81.02,81.02,mg/dL,70.0,100.0,NORMAL,,WEEK 4,5,2024-10-31,28
STUDY001,LB,STUDY001-SUBJ0009,46,L00046,BUN,Blood Urea Nitrogen,CHEMISTRY,16.62,mg/dL,7.0,20.0,16.62,16.62,mg/dL,7.0,20.0,NORMAL,,WEEK 4,5,2024-10-31,28
STUDY001,LB,STUDY001-SUBJ0009,47,L00047,CREAT,Creatinine,CHEMISTRY,0.75,mg/dL,0.6,1.2,0.75,0.75,mg/dL,0.6,1.2,NORMAL,,WEEK 4,5,2024-10-31,28
STUDY001,LB,STUDY001-SUBJ0009,48,L00048,BILI,Total Bilirubin,CHEMISTRY,0.55,mg/dL,0.1,1.2,0.55,0.55,mg/dL,0.1,1.2,NORMAL,,WEEK 4,5,2024-10-31,28
STUDY001,LB,STUDY001-SUBJ0009,49,L00049,ALP,Alkaline Phosphatase,CHEMISTRY,113.44,U/L,44.0,147.0,113.44,113.44,U/L,44.0,147.0,NORMAL,,WEEK 4,5,2024-10-31,28
STUDY001,LB,STUDY001-SUBJ0009,50,L00050,ALT,Alanine Aminotransferase,CHEMISTRY,12.95,U/L,7.0,56.0,12.95,12.95,U/L,7.0,56.0,NORMAL,,WEEK 4,5,2024-10-31,28
STUDY001,LB,STUDY001-SUBJ0009,51,L00051,HGB,Hemoglobin,HEMATOLOGY,14.88,g/dL,13.5,17.5,14.88,14.88,g/dL,13.5,17.5,NORMAL,,WEEK 8,6,2024-11-28,56
STUDY001,LB,STUDY001-SUBJ0009,52,L00052,HCT,Hematocrit,HEMATOLOGY,46.36,%,41.0,51.0,46.36,46.36,%,41.0,51.0,NORMAL,,WEEK 8,6,2024-11-28,56
STUDY001,LB,STUDY001-SUBJ0009,53,L00053,WBC,White Blood Cell Count,HEMATOLOGY,6.99,10^9/L,4.5,11.0,6.99,6.99,10^9/L,4.5,11.0,NORMAL,,WEEK 8,6,2024-11-28,56
STUDY001,LB,STUDY001-SUBJ0009,54,L00054,PLT,Platelet Count,HEMATOLOGY,251.69,10^9/L,150.0,450.0,251.69,251.69,10^9/L,150.0,450.0,NORMAL,,WEEK 8,6,2024-11-28,56
STUDY001,LB,STUDY001-SUBJ0009,55,L00055,GLUC,Glucose,CHEMISTRY,80.57,mg/dL,70.0,100.0,80.57,80.57,mg/dL,70.0,100.0,NORMAL,,WEEK 8,6,2024-11-28,56
STUDY001,LB,STUDY001-SUBJ0009,56,L00056,BUN,Blood Urea Nitrogen,CHEMISTRY,16.39,mg/dL,7.0,20.0,16.39,16.39,mg/dL,7.0,20.0,NORMAL,,WEEK 8,6,2024-11-28,56
STUDY001,LB,STUDY001-SUBJ0009,57,L00057,CREAT,Creatinine,CHEMISTRY,0.77,mg/dL,0.6,1.2,0.77,0.77,mg/dL,0.6,1.2,NORMAL,,WEEK 8,6,2024-11-28,56
STUDY001,LB,STUDY001-SUBJ0009,58,L00058,BILI,Total Bilirubin,CHEMISTRY,0.56,mg/dL,0.1,1.2,0.56,0.56,mg/dL,0.1,1.2,NORMAL,,WEEK 8,6,2024-11-28,56
STUDY001,LB,STUDY001-SUBJ0009,59,L00059,ALP,Alkaline Phosphatase,CHEMISTRY,115.49,U/L,44.0,147.0,115.49,115.49,U/L,44.0,147.0,NORMAL,,WEEK 8,6,2024-11-28,56
STUDY001,LB,STUDY001-SUBJ0009,60,L00060,ALT,Alanine Aminotransferase,CHEMISTRY,13.88,U/L,7.0,56.0,13.88,13.88,U/L,7.0,56.0,NORMAL,,WEEK 8,6,2024-11-28,56
STUDY001,LB,STUDY001-SUBJ0009,61,L00061,HGB,Hemoglobin,HEMATOLOGY,14.71,g/dL,13.5,17.5,14.71,14.71,g/dL,13.5,17.5,NORMAL,,WEEK 12,7,2024-12-26,84
STUDY001,LB,STUDY001-SUBJ0009,62,L00062,HCT,Hematocrit,HEMATOLOGY,45.95,%,41.0,51.0,45.95,45.95,%,41.0,51.0,NORMAL,,WEEK 12,7,2024-12-26,84
STUDY001,LB,STUDY001-SUBJ0009,63,L00063,WBC,White Blood Cell Count,HEMATOLOGY,7.16,10^9/L,4.5,11.0,7.16,7.16,10^9/L,4.5,11.0,NORMAL,,WEEK 12,7,2024-12-26,84
STUDY001,LB,STUDY001-SUBJ0009,64,L00064,PLT,Platelet Count,HEMATOLOGY,248.3,10^9/L,150.0,450.0,248.3,248.3,10^9/L,150.0,450.0,NORMAL,,WEEK 12,7,2024-12-26,84
STUDY001,LB,STUDY001-SUBJ0009,65,L00065,GLUC,Glucose,CHEMISTRY,81.01,mg/dL,70.0,100.0,81.01,81.01,mg/dL,70.0,100.0,NORMAL,,WEEK 12,7,2024-12-26,84
STUDY001,LB,STUDY001-SUBJ0009,66,L00066,BUN,Blood Urea Nitrogen,CHEMISTRY,16.46,mg/dL,7.0,20.0,16.46,16.46,mg/dL,7.0,20.0,NORMAL,,WEEK 12,7,2024-12-26,84
STUDY001,LB,STUDY001-SUBJ0009,67,L00067,CREAT,Creatinine,CHEMISTRY,0.77,mg/dL,0.6,1.2,0.77,0.77,mg/dL,0.6,1.2,NORMAL,,WEEK 12,7,2024-12-26,84
STUDY001,LB,STUDY001-SUBJ0009,68,L00068,BILI,Total Bilirubin,CHEMISTRY,0.57,mg/dL,0.1,1.2,0.57,0.57,mg/dL,0.1,1.2,NORMAL,,WEEK 12,7,2024-12-26,84
STUDY001,LB,STUDY001-SUBJ0009,69,L00069,ALP,Alkaline Phosphatase,CHEMISTRY,117.49,U/L,44.0,147.0,117.49,117.49,U/L,44.0,147.0,NORMAL,,WEEK 12,7,2024-12-26,84
STUDY001,LB,STUDY001-SUBJ0009,70,L00070,ALT,Alanine Aminotransferase,CHEMISTRY,13.35,U/L,7.0,56.0,13.35,13.35,U/L,7.0,56.0,NORMAL,,WEEK 12,7,2024-12-26,84
STUDY001,LB,STUDY001-SUBJ0009,71,L00071,HGB,Hemoglobin,HEMATOLOGY,14.78,g/dL,13.5,17.5,14.78,14.78,g/dL,13.5,17.5,NORMAL,,WEEK 16,8,2025-01-23,112
STUDY001,LB,STUDY001-SUBJ0009,72,L00072,HCT,Hematocrit,HEMATOLOGY,46.64,%,41.0,51.0,46.64,46.64,%,41.0,51.0,NORMAL,,WEEK 16,8,2025-01-23,112
STUDY001,LB,STUDY001-SUBJ0009,73,L00073,WBC,White Blood Cell Count,HEMATOLOGY,7.01,10^9/L,4.5,11.0,7.01,7.01,10^9/L,4.5,11.0,NORMAL,,WEEK 16,8,2025-01-23,112
STUDY001,LB,STUDY001-SUBJ0009,74,L00074,PLT,Platelet Count,HEMATOLOGY,249.39,10^9/L,150.0,450.0,249.39,249.39,10^9/L,150.0,450.0,NORMAL,,WEEK 16,8,2025-01-23,112
STUDY001,LB,STUDY001-SUBJ0009,75,L00075,GLUC,Glucose,CHEMISTRY,82.19,mg/dL,70.0,100.0,82.19,82.19,mg/dL,70.0,100.0,NORMAL,,WEEK 16,8,2025-01-23,112
STUDY001,LB,STUDY001-SUBJ0009,76,L00076,BUN,Blood Urea Nitrogen,CHEMISTRY,16.14,mg/dL,7.0,20.0,16.14,16.14,mg/dL,7.0,20.0,NORMAL,,WEEK 16,8,2025-01-23,112
STUDY001,LB,STUDY001-SUBJ0009,77,L00077,CREAT,Creatinine,CHEMISTRY,0.74,mg/dL,0.6,1.2,0.74,0.74,mg/dL,0.6,1.2,NORMAL,,WEEK 16,8,2025-01-23,112
STUDY001,LB,STUDY001-SUBJ0009,78,L00078,BILI,Total Bilirubin,CHEMISTRY,0.55,mg/dL,0.1,1.2,0.55,0.55,mg/dL,0.1,1.2,NORMAL,,WEEK 16,8,2025-01-23,112
STUDY001,LB,STUDY001-SUBJ0009,79,L00079,ALP,Alkaline Phosphatase,CHEMISTRY,110.59,U/L,44.0,147.0,110.59,110.59,U/L,44.0,147.0,NORMAL,,WEEK 16,8,2025-01-23,112
STUDY001,LB,STUDY001-SUBJ0009,80,L00080,ALT,Alanine Aminotransferase,CHEMISTRY,13.32,U/L,7.0,56.0,13.32,13.32,U/L,7.0,56.0,NORMAL,,WEEK 16,8,2025-01-23,112
STUDY001,LB,STUDY001-SUBJ0009,81,L00081,HGB,Hemoglobin,HEMATOLOGY,14.74,g/dL,13.5,17.5,14.74,14.74,g/dL,13.5,17.5,NORMAL,,END OF TREATMENT,9,2025-02-20,140
STUDY001,LB,STUDY001-SUBJ0009,82,L00082,HCT,Hematocrit,HEMATOLOGY,46.2,%,41.0,51.0,46.2,46.2,%,41.0,51.0,NORMAL,,END OF TREATMENT,9,2025-02-20,140
STUDY001,LB,STUDY001-SUBJ0009,83,L00083,WBC,White Blood Cell Count,HEMATOLOGY,6.94,10^9/L,4.5,11.0,6.94,6.94,10^9/L,4.5,11.0,NORMAL,,END OF TREATMENT,9,2025-02-20,140
STUDY001,LB,STUDY001-SUBJ0009,84,L00084,PLT,Platelet Count,HEMATOLOGY,261.27,10^9/L,150.0,450.0,261.27,261.27,10^9/L,150.0,450.0,NORMAL,,END OF TREATMENT,9,2025-02-20,140
STUDY001,LB,STUDY001-SUBJ0009,85,L00085,GLUC,Glucose,CHEMISTRY,81.57,mg/dL,70.0,100.0,81.57,81.57,mg/dL,70.0,100.0,NORMAL,,END OF TREATMENT,9,2025-02-20,140
STUDY001,LB,STUDY001-SUBJ0009,86,L00086,BUN,Blood Urea Nitrogen,CHEMISTRY,16.56,mg/dL,7.0,20.0,16.56,16.56,mg/dL,7.0,20.0,NORMAL,,END OF TREATMENT,9,2025-02-20,140
STUDY001,LB,STUDY001-SUBJ0009,87,L00087,CREAT,Creatinine,CHEMISTRY,0.79,mg/dL,0.6,1.2,0.79,0.79,mg/dL,0.6,1.2,NORMAL,,END OF TREATMENT,9,2025-02-20,140
STUDY001,LB,STUDY001-SUBJ0009,88,L00088,BILI,Total Bilirubin,CHEMISTRY,0.55,mg/dL,0.1,1.2,0.55,0.55,mg/dL,0.1,1.2,NORMAL,,END OF TREATMENT,9,2025-02-20,140
STUDY001,LB,STUDY001-SUBJ0009,89,L00089,ALP,Alkaline Phosphatase,CHEMISTRY,113.47,U/L,44.0,147.0,113.47,113.47,U/L,44.0,147.0,NORMAL,,END OF TREATMENT,9,2025-02-20,140
STUDY001,LB,STUDY001-SUBJ0009,90,L00090,ALT,Alanine Aminotransferase,CHEMISTRY,13.35,U/L,7.0,56.0,13.35,13.35,U/L,7.0,56.0,NORMAL,,END OF TREATMENT,9,2025-02-20,140
STUDY001,LB,STUDY001-SUBJ0010,1,L00001,HGB,Hemoglobin,HEMATOLOGY,15.79,g/dL,13.5,17.5,15.79,15.79,g/dL,13.5,17.5,NORMAL,,SCREENING,1,2025-04-17,-14
STUDY001,LB,STUDY001-SUBJ0010,2,L00002,HCT,Hematocrit,HEMATOLOGY,46.47,%,41.0,51.0,46.47,46.47,%,41.0,51.0,NORMAL,,SCREENING,1,2025-04-17,-14
STUDY001,LB,STUDY001-SUBJ0010,3,L00003,WBC,White Blood Cell Count,HEMATOLOGY,6.99,10^9/L,4.5,11.0,6.99,6.99,10^9/L,4.5,11.0,NORMAL,,SCREENING,1,2025-04-17,-14
STUDY001,LB,STUDY001-SUBJ0010,4,L00004,PLT,Platelet Count,HEMATOLOGY,267.1,10^9/L,150.0,450.0,267.1,267.1,10^9/L,150.0,450.0,NORMAL,,SCREENING,1,2025-04-17,-14
STUDY001,LB,STUDY001-SUBJ0010,5,L00005,GLUC,Glucose,CHEMISTRY,80.72,mg/dL,70.0,100.0,80.72,80.72,mg/dL,70.0,100.0,NORMAL,,SCREENING,1,2025-04-17,-14
STUDY001,LB,STUDY001-SUBJ0010,6,L00006,BUN,Blood Urea Nitrogen,CHEMISTRY,12.06,mg/dL,7.0,20.0,12.06,12.06,mg/dL,7.0,20.0,NORMAL,,SCREENING,1,2025-04-17,-14
STUDY001,LB,STUDY001-SUBJ0010,7,L00007,CREAT,Creatinine,CHEMISTRY,0.72,mg/dL,0.6,1.2,0.72,0.72,mg/dL,0.6,1.2,NORMAL,,SCREENING,1,2025-04-17,-14
STUDY001,LB,STUDY001-SUBJ0010,8,L00008,BILI,Total Bilirubin,CHEMISTRY,0.56,mg/dL,0.1,1.2,0.56,0.56,mg/dL,0.1,1.2,NORMAL,,SCREENING,1,2025-04-17,-14
STUDY001,LB,STUDY001-SUBJ0010,9,L00009,ALP,Alkaline Phosphatase,CHEMISTRY,99.44,U/L,44.0,147.0,99.44,99.44,U/L,44.0,147.0,NORMAL,,SCREENING,1,2025-04-17,-14
STUDY001,LB,STUDY001-SUBJ0010,10,L00010,ALT,Alanine Aminotransferase,CHEMISTRY,28.3,U/L,7.0,56.0,28.3,28.3,U/L,7.0,56.0,NORMAL,,SCREENING,1,2025-04-17,-14
STUDY001,LB,STUDY001-SUBJ0010,11,L00011,HGB,Hemoglobin,HEMATOLOGY,15.57,g/dL,13.5,17.5,15.57,15.57,g/dL,13.5,17.5,NORMAL,Y,BASELINE,2,2025-05-01,1
STUDY001,LB,STUDY001-SUBJ0010,12,L00012,HCT,Hematocrit,HEMATOLOGY,46.29,%,41.0,51.0,46.29,46.29,%,41.0,51.0,NORMAL,Y,BASELINE,2,2025-05-01,1
STUDY001,LB,STUDY001-SUBJ0010,13,L00013,WBC,White Blood Cell Count,HEMATOLOGY,6.93,10^9/L,4.5,11.0,6.93,6.93,10^9/L,4.5,11.0,NORMAL,Y,BASELINE,2,2025-05-01,1
STUDY001,LB,STUDY001-SUBJ0010,14,L00014,PLT,Platelet Count,HEMATOLOGY,267.56,10^9/L,150.0,450.0,267.56,267.56,10^9/L,150.0,450.0,NORMAL,Y,BASELINE,2,2025-05-01,1
STUDY001,LB,STUDY001-SUBJ0010,15,L00015,GLUC,Glucose,CHEMISTRY,82.41,mg/dL,70.0,100.0,82.41,82.41,mg/dL,70.0,100.0,NORMAL,Y,BASELINE,2,2025-05-01,1
STUDY001,LB,STUDY001-SUBJ0010,16,L00016,BUN,Blood Urea Nitrogen,CHEMISTRY,12.59,mg/dL,7.0,20.0,12.59,12.59,mg/dL,7.0,20.0,NORMAL,Y,BASELINE,2,2025-05-01,1
STUDY001,LB,STUDY001-SUBJ0010,17,L00017,CREAT,Creatinine,CHEMISTRY,0.72,mg/dL,0.6,1.2,0.72,0.72,mg/dL,0.6,1.2,NORMAL,Y,BASELINE,2,2025-05-01,1
STUDY001,LB,STUDY001-SUBJ0010,18,L00018,BILI,Total Bilirubin,CHEMISTRY,0.63,mg/dL,0.1,1.2,0.63,0.63,mg/dL,0.1,1.2,NORMAL,Y,BASELINE,2,2025-05-01,1
STUDY001,LB,STUDY001-SUBJ0010,19,L00019,ALP,Alkaline Phosphatase,CHEMISTRY,95.73,U/L,44.0,147.0,95.73,95.73,U/L,44.0,147.0,NORMAL,Y,BASELINE,2,2025-05-01,1
STUDY001,LB,STUDY001-SUBJ0010,20,L00020,ALT,Alanine Aminotransferase,CHEMISTRY,26.66,U/L,7.0,56.0,26.66,26.66,U/L,7.0,56.0,NORMAL,Y,BASELINE,2,2025-05-01,1
STUDY001,LB,STUDY001-SUBJ0010,21,L00021,HGB,Hemoglobin,HEMATOLOGY,15.78,g/dL,13.5,17.5,15.78,15.78,g/dL,13.5,17.5,NORMAL,,WEEK 1,3,2025-05-07,7
STUDY001,LB,STUDY001-SUBJ0010,22,L00022,HCT,Hematocrit,HEMATOLOGY,45.73,%,41.0,51.0,45.73,45.73,%,41.0,51.0,NORMAL,,WEEK 1,3,2025-05-07,7
STUDY001,LB,STUDY001-SUBJ0010,23,L00023,WBC,White Blood Cell Count,HEMATOLOGY,7.08,10^9/L,4.5,11.0,7.08,7.08,10^9/L,4.5,11.0,NORMAL,,WEEK 1,3,2025-05-07,7
STUDY001,LB,STUDY001-SUBJ0010,24,L00024,PLT,Platelet Count,HEMATOLOGY,260.14,10^9/L,150.0,450.0,260.14,260.14,10^9/L,150.0,450.0,NORMAL,,WEEK 1,3,2025-05-07,7
STUDY001,LB,STUDY001-SUBJ0010,25,L00025,GLUC,Glucose,CHEMISTRY,81.45,mg/dL,70.0,100.0,81.45,81.45,mg/dL,70.0,100.0,NORMAL,,WEEK 1,3,2025-05-07,7
STUDY001,LB,STUDY001-SUBJ0010,26,L00026,BUN,Blood Urea Nitrogen,CHEMISTRY,12.68,mg/dL,7.0,20.0,12.68,12.68,mg/dL,7.0,20.0,NORMAL,,WEEK 1,3,2025-05-07,7
STUDY001,LB,STUDY001-SUBJ0010,27,L00027,CREAT,Creatinine,CHEMISTRY,0.75,mg/dL,0.6,1.2,0.75,0.75,mg/dL,0.6,1.2,NORMAL,,WEEK 1,3,2025-05-07,7
STUDY001,LB,STUDY001-SUBJ0010,28,L00028,BILI,Total Bilirubin,CHEMISTRY,0.6,mg/dL,0.1,1.2,0.6,0.6,mg/dL,0.1,1.2,NORMAL,,WEEK 1,3,2025-05-07,7
STUDY001,LB,STUDY001-SUBJ0010,29,L00029,ALP,Alkaline Phosphatase,CHEMISTRY,96.3,U/L,44.0,147.0,96.3,96.3,U/L,44.0,147.0,NORMAL,,WEEK 1,3,2025-05-07,7
STUDY001,LB,STUDY001-SUBJ0010,30,L00030,ALT,Alanine Aminotransferase,CHEMISTRY,24.43,U/L,7.0,56.0,24.43,24.43,U/L,7.0,56.0,NORMAL,,WEEK 1,3,2025-05-07,7
STUDY001,LB,STUDY001-SUBJ0010,31,L00031,HGB,Hemoglobin,HEMATOLOGY,15.62,g/dL,13.5,17.5,15.62,15.62,g/dL,13.5,17.5,NORMAL,,WEEK 2,4,2025-05-14,14
STUDY001,LB,STUDY001-SUBJ0010,32,L00032,HCT,Hematocrit,HEMATOLOGY,45.56,%,41.0,51.0,45.56,45.56,%,41.0,51.0,NORMAL,,WEEK 2,4,2025-05-14,14
STUDY001,LB,STUDY001-SUBJ0010,33,L00033,WBC,White Blood Cell Count,HEMATOLOGY,7.13,10^9/L,4.5,11.0,7.13,7.13,10^9/L,4.5,11.0,NORMAL,,WEEK 2,4,2025-05-14,14
STUDY001,LB,STUDY001-SUBJ0010,34,L00034,PLT,Platelet Count,HEMATOLOGY,279.35,10^9/L,150.0,450.0,279.35,279.35,10^9/L,150.0,450.0,NORMAL,,WEEK 2,4,2025-05-14,14
STUDY001,LB,STUDY001-SUBJ0010,35,L00035,GLUC,Glucose,CHEMISTRY,81.35,mg/dL,70.0,100.0,81.35,81.35,mg/dL,70.0,100.0,NORMAL,,WEEK 2,4,2025-05-14,14
STUDY001,LB,STUDY001-SUBJ0010,36,L00036,BUN,Blood Urea Nitrogen,CHEMISTRY,12.52,mg/dL,7.0,20.0,12.52,12.52,mg/dL,7.0,20.0,NORMAL,,WEEK 2,4,2025-05-14,14
STUDY001,LB,STUDY001-SUBJ0010,37,L00037,CREAT,Creatinine,CHEMISTRY,0.71,mg/dL,0.6,1.2,0.71,0.71,mg/dL,0.6,1.2,NORMAL,,WEEK 2,4,2025-05-14,14
STUDY001,LB,STUDY001-SUBJ0010,38,L00038,BILI,Total Bilirubin,CHEMISTRY,0.61,mg/dL,0.1,1.2,0.61,0.61,mg/dL,0.1,1.2,NORMAL,,WEEK 2,4,2025-05-14,14
STUDY001,LB,STUDY001-SUBJ0010,39,L00039,ALP,Alkaline Phosphatase,CHEMISTRY,99.83,U/L,44.0,147.0,99.83,99.83,U/L,44.0,147.0,NORMAL,,WEEK 2,4,2025-05-14,14
STUDY001,LB,STUDY001-SUBJ0010,40,L00040,ALT,Alanine Aminotransferase,CHEMISTRY,25.38,U/L,7.0,56.0,25.38,25.38,U/L,7.0,56.0,NORMAL,,WEEK 2,4,2025-05-14,14
STUDY001,LB,STUDY001-SUBJ0010,41,L00041,HGB,Hemoglobin,HEMATOLOGY,15.76,g/dL,13.5,17.5,15.76,15.76,g/dL,13.5,17.5,NORMAL,,WEEK 4,5,2025-05-28,28
STUDY001,LB,STUDY001-SUBJ0010,42,L00042,HCT,Hematocrit,HEMATOLOGY,46.47,%,41.0,51.0,46.47,46.47,%,41.0,51.0,NORMAL,,WEEK 4,5,2025-05-28,28
STUDY001,LB,STUDY001-SUBJ0010,43,L00043,WBC,White Blood Cell Count,HEMATOLOGY,7.14,10^9/L,4.5,11.0,7.14,7.14,10^9/L,4.5,11.0,NORMAL,,WEEK 4,5,2025-05-28,28
STUDY001,LB,STUDY001-SUBJ0010,44,L00044,PLT,Platelet Count,HEMATOLOGY,260.82,10^9/L,150.0,450.0,260.82,260.82,10^9/L,150.0,450.0,NORMAL,,WEEK 4,5,2025-05-28,28
STUDY001,LB,STUDY001-SUBJ0010,45,L00045,GLUC,Glucose,CHEMISTRY,81.87,mg/dL,70.0,100.0,81.87,81.87,mg/dL,70.0,100.0,NORMAL,,WEEK 4,5,2025-05-28,28
STUDY001,LB,STUDY001-SUBJ0010,46,L00046,BUN,Blood Urea Nitrogen,CHEMISTRY,12.72,mg/dL,7.0,20.0,12.72,12.72,mg/dL,7.0,20.0,NORMAL,,WEEK 4,5,2025-05-28,28
STUDY001,LB,STUDY001-SUBJ0010,47,L00047,CREAT,Creatinine,CHEMISTRY,0.73,mg/dL,0.6,1.2,0.73,0.73,mg/dL,0.6,1.2,NORMAL,,WEEK 4,5,2025-05-28,28
STUDY001,LB,STUDY001-SUBJ0010,48,L00048,BILI,Total Bilirubin,CHEMISTRY,0.6,mg/dL,0.1,1.2,0.6,0.6,mg/dL,0.1,1.2,NORMAL,,WEEK 4,5,2025-05-28,28
STUDY001,LB,STUDY001-SUBJ0010,49,L00049,ALP,Alkaline Phosphatase,CHEMISTRY,97.39,U/L,44.0,147.0,97.39,97.39,U/L,44.0,147.0,NORMAL,,WEEK 4,5,2025-05-28,28
STUDY001,LB,STUDY001-SUBJ0010,50,L00050,ALT,Alanine Aminotransferase,CHEMISTRY,27.0,U/L,7.0,56.0,27.0,27.0,U/L,7.0,56.0,NORMAL,,WEEK 4,5,2025-05-28,28
STUDY001,LB,STUDY001-SUBJ0010,51,L00051,HGB,Hemoglobin,HEMATOLOGY,15.51,g/dL,13.5,17.5,15.51,15.51,g/dL,13.5,17.5,NORMAL,,WEEK 8,6,2025-06-25,56
STUDY001,LB,STUDY001-SUBJ0010,52,L00052,HCT,Hematocrit,HEMATOLOGY,46.32,%,41.0,51.0,46.32,46.32,%,41.0,51.0,NORMAL,,WEEK 8,6,2025-06-25,56
STUDY001,LB,STUDY001-SUBJ0010,53,L00053,WBC,White Blood Cell Count,HEMATOLOGY,6.95,10^9/L,4.5,11.0,6.95,6.95,10^9/L,4.5,11.0,NORMAL,,WEEK 8,6,2025-06-25,56
STUDY001,LB,STUDY001-SUBJ0010,54,L00054,PLT,Platelet Count,HEMATOLOGY,275.76,10^9/L,150.0,450.0,275.76,275.76,10^9/L,150.0,450.0,NORMAL,,WEEK 8,6,2025-06-25,56
STUDY001,LB,STUDY001-SUBJ0010,55,L00055,GLUC,Glucose,CHEMISTRY,80.84,mg/dL,70.0,100.0,80.84,80.84,mg/dL,70.0,100.0,NORMAL,,WEEK 8,6,2025-06-25,56
STUDY001,LB,STUDY001-SUBJ0010,56,L00056,BUN,Blood Urea Nitrogen,CHEMISTRY,12.74,mg/dL,7.0,20.0,12.74,12.74,mg/dL,7.0,20.0,NORMAL,,WEEK 8,6,2025-06-25,56
STUDY001,LB,STUDY001-SUBJ0010,57,L00057,CREAT,Creatinine,CHEMISTRY,0.72,mg/dL,0.6,1.2,0.72,0.72,mg/dL,0.6,1.2,NORMAL,,WEEK 8,6,2025-06-25,56
STUDY001,LB,STUDY001-SUBJ0010,58,L00058,BILI,Total Bilirubin,CHEMISTRY,0.6,mg/dL,0.1,1.2,0.6,0.6,mg/dL,0.1,1.2,NORMAL,,WEEK 8,6,2025-06-25,56
STUDY001,LB,STUDY001-SUBJ0010,59,L00059,ALP,Alkaline Phosphatase,CHEMISTRY,98.85,U/L,44.0,147.0,98.85,98.85,U/L,44.0,147.0,NORMAL,,WEEK 8,6,2025-06-25,56
STUDY001,LB,STUDY001-SUBJ0010,60,L00060,ALT,Alanine Aminotransferase,CHEMISTRY,27.79,U/L,7.0,56.0,27.79,27.79,U/L,7.0,56.0,NORMAL,,WEEK 8,6,2025-06-25,56
STUDY001,LB,STUDY001-SUBJ0010,61,L00061,HGB,Hemoglobin,HEMATOLOGY,15.7,g/dL,13.5,17.5,15.7,15.7,g/dL,13.5,17.5,NORMAL,,WEEK 12,7,2025-07-23,84
STUDY001,LB,STUDY001-SUBJ0010,62,L00062,HCT,Hematocrit,HEMATOLOGY,46.34,%,41.0,51.0,46.34,46.34,%,41.0,51.0,NORMAL,,WEEK 12,7,2025-07-23,84
STUDY001,LB,STUDY001-SUBJ0010,63,L00063,WBC,White Blood Cell Count,HEMATOLOGY,6.95,10^9/L,4.5,11.0,6.95,6.95,10^9/L,4.5,11.0,NORMAL,,WEEK 12,7,2025-07-23,84
STUDY001,LB,STUDY001-SUBJ0010,64,L00064,PLT,Platelet Count,HEMATOLOGY,267.76,10^9/L,150.0,450.0,267.76,267.76,10^9/L,150.0,450.0,NORMAL,,WEEK 12,7,2025-07-23,84
STUDY001,LB,STUDY001-SUBJ0010,65,L00065,GLUC,Glucose,CHEMISTRY,80.26,mg/dL,70.0,100.0,80.26,80.26,mg/dL,70.0,100.0,NORMAL,,WEEK 12,7,2025-07-23,84
STUDY001,LB,STUDY001-SUBJ0010,66,L00066,BUN,Blood Urea Nitrogen,CHEMISTRY,12.8,mg/dL,7.0,20.0,12.8,12.8,mg/dL,7.0,20.0,NORMAL,,WEEK 12,7,2025-07-23,84
STUDY001,LB,STUDY001-SUBJ0010,67,L00067,CREAT,Creatinine,CHEMISTRY,0.72,mg/dL,0.6,1.2,0.72,0.72,mg/dL,0.6,1.2,NORMAL,,WEEK 12,7,2025-07-23,84
STUDY001,LB,STUDY001-SUBJ0010,68,L00068,BILI,Total Bilirubin,CHEMISTRY,0.61,mg/dL,0.1,1.2,0.61,0.61,mg/dL,0.1,1.2,NORMAL,,WEEK 12,7,2025-07-23,84
STUDY001,LB,STUDY001-SUBJ0010,69,L00069,ALP,Alkaline Phosphatase,CHEMISTRY,98.95,U/L,44.0,147.0,98.95,98.95,U/L,44.0,147.0,NORMAL,,WEEK 12,7,2025-07-23,84
STUDY001,LB,STUDY001-SUBJ0010,70,L00070,ALT,Alanine Aminotransferase,CHEMISTRY,25.57,U/L,7.0,56.0,25.57,25.57,U/L,7.0,56.0,NORMAL,,WEEK 12,7,2025-07-23,84
STUDY001,LB,STUDY001-SUBJ0010,71,L00071,HGB,Hemoglobin,HEMATOLOGY,15.77,g/dL,13.5,17.5,15.77,15.77,g/dL,13.5,17.5,NORMAL,,WEEK 16,8,2025-08-20,112
STUDY001,LB,STUDY001-SUBJ0010,72,L00072,HCT,Hematocrit,HEMATOLOGY,46.24,%,41.0,51.0,46.24,46.24,%,41.0,51.0,NORMAL,,WEEK 16,8,2025-08-20,112
STUDY001,LB,STUDY001-SUBJ0010,73,L00073,WBC,White Blood Cell Count,HEMATOLOGY,6.71,10^9/L,4.5,11.0,6.71,6.71,10^9/L,4.5,11.0,NORMAL,,WEEK 16,8,2025-08-20,112
STUDY001,LB,STUDY001-SUBJ0010,74,L00074,PLT,Platelet Count,HEMATOLOGY,273.49,10^9/L,150.0,450.0,273.49,273.49,10^9/L,150.0,450.0,NORMAL,,WEEK 16,8,2025-08-20,112
STUDY001,LB,STUDY001-SUBJ0010,75,L00075,GLUC,Glucose,CHEMISTRY,81.27,mg/dL,70.0,100.0,81.27,81.27,mg/dL,70.0,100.0,NORMAL,,WEEK 16,8,2025-08-20,112
STUDY001,LB,STUDY001-SUBJ0010,76,L00076,BUN,Blood Urea Nitrogen,CHEMISTRY,13.1,mg/dL,7.0,20.0,13.1,13.1,mg/dL,7.0,20.0,NORMAL,,WEEK 16,8,2025-08-20,112
STUDY001,LB,STUDY001-SUBJ0010,77,L00077,CREAT,Creatinine,CHEMISTRY,0.75,mg/dL,0.6,1.2,0.75,0.75,mg/dL,0.6,1.2,NORMAL,,WEEK 16,8,2025-08-20,112
STUDY001,LB,STUDY001-SUBJ0010,78,L00078,BILI,Total Bilirubin,CHEMISTRY,0.61,mg/dL,0.1,1.2,0.61,0.61,mg/dL,0.1,1.2,NORMAL,,WEEK 16,8,2025-08-20,112
STUDY001,LB,STUDY001-SUBJ0010,79,L00079,ALP,Alkaline Phosphatase,CHEMISTRY,96.47,U/L,44.0,147.0,96.47,96.47,U/L,44.0,147.0,NORMAL,,WEEK 16,8,2025-08-20,112
STUDY001,LB,STUDY001-SUBJ0010,80,L00080,ALT,Alanine Aminotransferase,CHEMISTRY,25.71,U/L,7.0,56.0,25.71,25.71,U/L,7.0,56.0,NORMAL,,WEEK 16,8,2025-08-20,112
STUDY001,LB,STUDY001-SUBJ0010,81,L00081,HGB,Hemoglobin,HEMATOLOGY,15.58,g/dL,13.5,17.5,15.58,15.58,g/dL,13.5,17.5,NORMAL,,END OF TREATMENT,9,2025-09-17,140
STUDY001,LB,STUDY001-SUBJ0010,82,L00082,HCT,Hematocrit,HEMATOLOGY,45.99,%,41.0,51.0,45.99,45.99,%,41.0,51.0,NORMAL,,END OF TREATMENT,9,2025-09-17,140
STUDY001,LB,STUDY001-SUBJ0010,83,L00083,WBC,White Blood Cell Count,HEMATOLOGY,6.86,10^9/L,4.5,11.0,6.86,6.86,10^9/L,4.5,11.0,NORMAL,,END OF TREATMENT,9,2025-09-17,140
STUDY001,LB,STUDY001-SUBJ0010,84,L00084,PLT,Platelet Count,HEMATOLOGY,268.96,10^9/L,150.0,450.0,268.96,268.96,10^9/L,150.0,450.0,NORMAL,,END OF TREATMENT,9,2025-09-17,140
STUDY001,LB,STUDY001-SUBJ0010,85,L00085,GLUC,Glucose,CHEMISTRY,81.67,mg/dL,70.0,100.0,81.67,81.67,mg/dL,70.0,100.0,NORMAL,,END OF TREATMENT,9,2025-09-17,140
STUDY001,LB,STUDY001-SUBJ0010,86,L00086,BUN,Blood Urea Nitrogen,CHEMISTRY,13.08,mg/dL,7.0,20.0,13.08,13.08,mg/dL,7.0,20.0,NORMAL,,END OF TREATMENT,9,2025-09-17,140
STUDY001,LB,STUDY001-SUBJ0010,87,L00087,CREAT,Creatinine,CHEMISTRY,0.75,mg/dL,0.6,1.2,0.75,0.75,mg/dL,0.6,1.2,NORMAL,,END OF TREATMENT,9,2025-09-17,140
STUDY001,LB,STUDY001-SUBJ0010,88,L00088,BILI,Total Bilirubin,CHEMISTRY,0.59,mg/dL,0.1,1.2,0.59,0.59,mg/dL,0.1,1.2,NORMAL,,END OF TREATMENT,9,2025-09-17,140
STUDY001,LB,STUDY001-SUBJ0010,89,L00089,ALP,Alkaline Phosphatase,CHEMISTRY,101.78,U/L,44.0,147.0,101.78,101.78,U/L,44.0,147.0,NORMAL,,END OF TREATMENT,9,2025-09-17,140
STUDY001,LB,STUDY001-SUBJ0010,90,L00090,ALT,Alanine Aminotransferase,CHEMISTRY,27.57,U/L,7.0,56.0,27.57,27.57,U/L,7.0,56.0,NORMAL,,END OF TREATMENT,9,2025-09-17,140
