STUDYID,DOMAIN,USUBJID,SUBJID,RFSTDTC,RFENDTC,RFXSTDTC,RFXENDTC,RFICDTC,RFPENDTC,DTHDTC,DTHFL,SITEID,AGE,AGEU,SEX,RACE,ETHNIC,ARMCD,ARM,ACTARMCD,ACTARM,COUNTRY,DMDTC,DMDY
STUDY001,DM,STUDY001-SUBJ0001,SUBJ0001,2024-11-11,2025-07-27,2025-07-11,2025-08-01,2025-01-22,2025-07-27,,,22,37,YEARS,F,WHITE,HISPANIC OR LATINO,ARM1,Treatment 3,ARM1,Treatment 3,KI,2025-05-05,3
STUDY001,DM,STUDY001-SUBJ0002,SUBJ0002,2025-06-04,2025-08-01,2024-09-10,2025-07-25,2024-12-28,2025-08-01,,,6,58,YEARS,M,AMERICAN INDIAN OR ALASKA NATIVE,HISPANIC OR LATINO,ARM2,Treatment 2,ARM2,Treatment 2,MZ,2024-09-03,2
STUDY001,DM,STUDY001-SUBJ0003,SUBJ0003,2025-07-21,2025-07-29,2025-03-25,2025-07-25,2025-05-05,2025-07-29,,,39,44,YEARS,M,AMERICAN INDIAN OR ALASKA NATIVE,NOT HISPANIC OR LATINO,ARM3,Treatment 1,ARM3,Treatment 1,GT,2025-06-12,22
STUDY001,DM,STUDY001-SUBJ0004,SUBJ0004,2025-01-22,2025-08-02,2024-11-22,2025-08-15,2025-07-19,2025-08-02,,,39,48,YEARS,M,ASIAN,HISPANIC OR LATINO,ARM1,Treatment 3,ARM1,Treatment 3,TG,2025-04-29,12
STUDY001,DM,STUDY001-SUBJ0005,SUBJ0005,2025-03-27,2025-08-05,2025-03-11,2025-07-25,2025-03-28,2025-08-05,,,21,24,YEARS,M,WHITE,NOT HISPANIC OR LATINO,ARM2,Treatment 1,ARM2,Treatment 1,BI,2025-05-21,21
STUDY001,DM,STUDY001-SUBJ0006,SUBJ0006,2024-10-23,2025-08-20,2025-01-22,2025-08-07,2024-10-05,2025-08-20,,,13,18,YEARS,M,BLACK OR AFRICAN AMERICAN,HISPANIC OR LATINO,ARM3,Treatment 2,ARM3,Treatment 2,AF,2025-07-06,3
STUDY001,DM,STUDY001-SUBJ0007,SUBJ0007,2024-12-07,2025-08-15,2024-11-29,2025-08-13,2025-06-08,2025-08-15,,,2,59,YEARS,M,WHITE,HISPANIC OR LATINO,ARM1,Treatment 2,ARM1,Treatment 2,BW,2025-01-30,7
STUDY001,DM,STUDY001-SUBJ0008,SUBJ0008,2024-09-11,2025-08-04,2025-05-18,2025-07-26,2024-12-22,2025-08-04,,,29,45,YEARS,F,OTHER,NOT HISPANIC OR LATINO,ARM2,Treatment 2,ARM2,Treatment 2,BZ,2025-07-01,8
STUDY001,DM,STUDY001-SUBJ0009,SUBJ0009,2025-03-26,2025-08-17,2024-12-04,2025-07-25,2024-10-26,2025-08-17,,,15,60,YEARS,M,WHITE,NOT HISPANIC OR LATINO,ARM3,Treatment 1,ARM3,Treatment 1,MZ,2025-03-29,2
STUDY001,DM,STUDY001-SUBJ0010,SUBJ0010,2025-03-24,2025-08-14,2024-11-22,2025-08-12,2025-02-01,2025-08-14,,,28,64,YEARS,M,AMERICAN INDIAN OR ALASKA NATIVE,NOT HISPANIC OR LATINO,ARM1,Treatment 3,ARM1,Treatment 3,SM,2025-02-11,17
