STUDYID,DOMAIN,USUBJID,VSSEQ,VSTESTCD,VSTEST,VSORRES,VSORRESU,VSSTRESC,VSSTRESN,VSSTRESU,VSBLFL,VISIT,VISITNUM,VSDTC,VSDY
STUDY001,VS,STUDY001-SUBJ0001,1,HEIGHT,Height,168.6,cm,168.6,168.6,cm,,SCREENING,1,2024-11-27,-14
STUDY001,VS,STUDY001-SUBJ0001,2,WEIGHT,Weight,62.5,kg,62.5,62.5,kg,,SCREENING,1,2024-11-27,-14
STUDY001,VS,STUDY001-SUBJ0001,3,TEMP,Temperature,36.8,C,36.8,36.8,C,,SCREENING,1,2024-11-27,-14
STUDY001,VS,STUDY001-SUBJ0001,4,BP,Blood Pressure,106/77,mmHg,106/77,,mmHg,,SCREENING,1,2024-11-27,-14
STUDY001,VS,STUDY001-SUBJ0001,5,HR,Heart Rate,66,beats/min,66,66.0,beats/min,,SCREENING,1,2024-11-27,-14
STUDY001,VS,STUDY001-SUBJ0001,6,HEIGHT,Height,168.5,cm,168.5,168.5,cm,Y,BASELINE,2,2024-12-11,1
STUDY001,VS,STUDY001-SUBJ0001,7,WEIGHT,Weight,61.8,kg,61.8,61.8,kg,Y,BASELINE,2,2024-12-11,1
STUDY001,VS,STUDY001-SUBJ0001,8,TEMP,Temperature,36.5,C,36.5,36.5,C,Y,BASELINE,2,2024-12-11,1
STUDY001,VS,STUDY001-SUBJ0001,9,BP,Blood Pressure,113/72,mmHg,113/72,,mmHg,Y,BASELINE,2,2024-12-11,1
STUDY001,VS,STUDY001-SUBJ0001,10,HR,Heart Rate,70,beats/min,70,70.0,beats/min,Y,BASELINE,2,2024-12-11,1
STUDY001,VS,STUDY001-SUBJ0001,11,HEIGHT,Height,168.5,cm,168.5,168.5,cm,,WEEK 1,3,2024-12-17,7
STUDY001,VS,STUDY001-SUBJ0001,12,WEIGHT,Weight,62.1,kg,62.1,62.1,kg,,WEEK 1,3,2024-12-17,7
STUDY001,VS,STUDY001-SUBJ0001,13,TEMP,Temperature,36.9,C,36.9,36.9,C,,WEEK 1,3,2024-12-17,7
STUDY001,VS,STUDY001-SUBJ0001,14,BP,Blood Pressure,114/72,mmHg,114/72,,mmHg,,WEEK 1,3,2024-12-17,7
STUDY001,VS,STUDY001-SUBJ0001,15,HR,Heart Rate,73,beats/min,73,73.0,beats/min,,WEEK 1,3,2024-12-17,7
STUDY001,VS,STUDY001-SUBJ0001,16,HEIGHT,Height,168.7,cm,168.7,168.7,cm,,WEEK 2,4,2024-12-24,14
STUDY001,VS,STUDY001-SUBJ0001,17,WEIGHT,Weight,61.0,kg,61.0,61.0,kg,,WEEK 2,4,2024-12-24,14
STUDY001,VS,STUDY001-SUBJ0001,18,TEMP,Temperature,36.9,C,36.9,36.9,C,,WEEK 2,4,2024-12-24,14
STUDY001,VS,STUDY001-SUBJ0001,19,BP,Blood Pressure,106/72,mmHg,106/72,,mmHg,,WEEK 2,4,2024-12-24,14
STUDY001,VS,STUDY001-SUBJ0001,20,HR,Heart Rate,66,beats/min,66,66.0,beats/min,,WEEK 2,4,2024-12-24,14
STUDY001,VS,STUDY001-SUBJ0001,21,HEIGHT,Height,168.7,cm,168.7,168.7,cm,,WEEK 4,5,2025-01-07,28
STUDY001,VS,STUDY001-SUBJ0001,22,WEIGHT,Weight,62.3,kg,62.3,62.3,kg,,WEEK 4,5,2025-01-07,28
STUDY001,VS,STUDY001-SUBJ0001,23,TEMP,Temperature,36.8,C,36.8,36.8,C,,WEEK 4,5,2025-01-07,28
STUDY001,VS,STUDY001-SUBJ0001,24,BP,Blood Pressure,105/72,mmHg,105/72,,mmHg,,WEEK 4,5,2025-01-07,28
STUDY001,VS,STUDY001-SUBJ0001,25,HR,Heart Rate,70,beats/min,70,70.0,beats/min,,WEEK 4,5,2025-01-07,28
STUDY001,VS,STUDY001-SUBJ0001,26,HEIGHT,Height,168.8,cm,168.8,168.8,cm,,WEEK 8,6,2025-02-04,56
STUDY001,VS,STUDY001-SUBJ0001,27,WEIGHT,Weight,61.5,kg,61.5,61.5,kg,,WEEK 8,6,2025-02-04,56
STUDY001,VS,STUDY001-SUBJ0001,28,TEMP,Temperature,36.6,C,36.6,36.6,C,,WEEK 8,6,2025-02-04,56
STUDY001,VS,STUDY001-SUBJ0001,29,BP,Blood Pressure,108/77,mmHg,108/77,,mmHg,,WEEK 8,6,2025-02-04,56
STUDY001,VS,STUDY001-SUBJ0001,30,HR,Heart Rate,70,beats/min,70,70.0,beats/min,,WEEK 8,6,2025-02-04,56
STUDY001,VS,STUDY001-SUBJ0001,31,HEIGHT,Height,168.5,cm,168.5,168.5,cm,,WEEK 12,7,2025-03-04,84
STUDY001,VS,STUDY001-SUBJ0001,32,WEIGHT,Weight,62.1,kg,62.1,62.1,kg,,WEEK 12,7,2025-03-04,84
STUDY001,VS,STUDY001-SUBJ0001,33,TEMP,Temperature,36.7,C,36.7,36.7,C,,WEEK 12,7,2025-03-04,84
STUDY001,VS,STUDY001-SUBJ0001,34,BP,Blood Pressure,112/72,mmHg,112/72,,mmHg,,WEEK 12,7,2025-03-04,84
STUDY001,VS,STUDY001-SUBJ0001,35,HR,Heart Rate,66,beats/min,66,66.0,beats/min,,WEEK 12,7,2025-03-04,84
STUDY001,VS,STUDY001-SUBJ0001,36,HEIGHT,Height,168.7,cm,168.7,168.7,cm,,WEEK 16,8,2025-04-01,112
STUDY001,VS,STUDY001-SUBJ0001,37,WEIGHT,Weight,62.0,kg,62.0,62.0,kg,,WEEK 16,8,2025-04-01,112
STUDY001,VS,STUDY001-SUBJ0001,38,TEMP,Temperature,36.5,C,36.5,36.5,C,,WEEK 16,8,2025-04-01,112
STUDY001,VS,STUDY001-SUBJ0001,39,BP,Blood Pressure,113/74,mmHg,113/74,,mmHg,,WEEK 16,8,2025-04-01,112
STUDY001,VS,STUDY001-SUBJ0001,40,HR,Heart Rate,67,beats/min,67,67.0,beats/min,,WEEK 16,8,2025-04-01,112
STUDY001,VS,STUDY001-SUBJ0001,41,HEIGHT,Height,168.7,cm,168.7,168.7,cm,,END OF TREATMENT,9,2025-04-29,140
STUDY001,VS,STUDY001-SUBJ0001,42,WEIGHT,Weight,61.8,kg,61.8,61.8,kg,,END OF TREATMENT,9,2025-04-29,140
STUDY001,VS,STUDY001-SUBJ0001,43,TEMP,Temperature,36.7,C,36.7,36.7,C,,END OF TREATMENT,9,2025-04-29,140
STUDY001,VS,STUDY001-SUBJ0001,44,BP,Blood Pressure,109/74,mmHg,109/74,,mmHg,,END OF TREATMENT,9,2025-04-29,140
STUDY001,VS,STUDY001-SUBJ0001,45,HR,Heart Rate,71,beats/min,71,71.0,beats/min,,END OF TREATMENT,9,2025-04-29,140
STUDY001,VS,STUDY001-SUBJ0002,1,HEIGHT,Height,169.2,cm,169.2,169.2,cm,,SCREENING,1,2024-09-30,-14
STUDY001,VS,STUDY001-SUBJ0002,2,WEIGHT,Weight,89.8,kg,89.8,89.8,kg,,SCREENING,1,2024-09-30,-14
STUDY001,VS,STUDY001-SUBJ0002,3,TEMP,Temperature,36.7,C,36.7,36.7,C,,SCREENING,1,2024-09-30,-14
STUDY001,VS,STUDY001-SUBJ0002,4,BP,Blood Pressure,124/99,mmHg,124/99,,mmHg,,SCREENING,1,2024-09-30,-14
STUDY001,VS,STUDY001-SUBJ0002,5,HR,Heart Rate,66,beats/min,66,66.0,beats/min,,SCREENING,1,2024-09-30,-14
STUDY001,VS,STUDY001-SUBJ0002,6,HEIGHT,Height,169.1,cm,169.1,169.1,cm,Y,BASELINE,2,2024-10-14,1
STUDY001,VS,STUDY001-SUBJ0002,7,WEIGHT,Weight,88.0,kg,88.0,88.0,kg,Y,BASELINE,2,2024-10-14,1
STUDY001,VS,STUDY001-SUBJ0002,8,TEMP,Temperature,36.5,C,36.5,36.5,C,Y,BASELINE,2,2024-10-14,1
STUDY001,VS,STUDY001-SUBJ0002,9,BP,Blood Pressure,126/93,mmHg,126/93,,mmHg,Y,BASELINE,2,2024-10-14,1
STUDY001,VS,STUDY001-SUBJ0002,10,HR,Heart Rate,60,beats/min,60,60.0,beats/min,Y,BASELINE,2,2024-10-14,1
STUDY001,VS,STUDY001-SUBJ0002,11,HEIGHT,Height,169.1,cm,169.1,169.1,cm,,WEEK 1,3,2024-10-20,7
STUDY001,VS,STUDY001-SUBJ0002,12,WEIGHT,Weight,87.9,kg,87.9,87.9,kg,,WEEK 1,3,2024-10-20,7
STUDY001,VS,STUDY001-SUBJ0002,13,TEMP,Temperature,36.7,C,36.7,36.7,C,,WEEK 1,3,2024-10-20,7
STUDY001,VS,STUDY001-SUBJ0002,14,BP,Blood Pressure,120/91,mmHg,120/91,,mmHg,,WEEK 1,3,2024-10-20,7
STUDY001,VS,STUDY001-SUBJ0002,15,HR,Heart Rate,60,beats/min,60,60.0,beats/min,,WEEK 1,3,2024-10-20,7
STUDY001,VS,STUDY001-SUBJ0002,16,HEIGHT,Height,169.4,cm,169.4,169.4,cm,,WEEK 2,4,2024-10-27,14
STUDY001,VS,STUDY001-SUBJ0002,17,WEIGHT,Weight,88.3,kg,88.3,88.3,kg,,WEEK 2,4,2024-10-27,14
STUDY001,VS,STUDY001-SUBJ0002,18,TEMP,Temperature,36.4,C,36.4,36.4,C,,WEEK 2,4,2024-10-27,14
STUDY001,VS,STUDY001-SUBJ0002,19,BP,Blood Pressure,119/100,mmHg,119/100,,mmHg,,WEEK 2,4,2024-10-27,14
STUDY001,VS,STUDY001-SUBJ0002,20,HR,Heart Rate,66,beats/min,66,66.0,beats/min,,WEEK 2,4,2024-10-27,14
STUDY001,VS,STUDY001-SUBJ0002,21,HEIGHT,Height,169.2,cm,169.2,169.2,cm,,WEEK 4,5,2024-11-10,28
STUDY001,VS,STUDY001-SUBJ0002,22,WEIGHT,Weight,87.8,kg,87.8,87.8,kg,,WEEK 4,5,2024-11-10,28
STUDY001,VS,STUDY001-SUBJ0002,23,TEMP,Temperature,36.3,C,36.3,36.3,C,,WEEK 4,5,2024-11-10,28
STUDY001,VS,STUDY001-SUBJ0002,24,BP,Blood Pressure,119/92,mmHg,119/92,,mmHg,,WEEK 4,5,2024-11-10,28
STUDY001,VS,STUDY001-SUBJ0002,25,HR,Heart Rate,63,beats/min,63,63.0,beats/min,,WEEK 4,5,2024-11-10,28
STUDY001,VS,STUDY001-SUBJ0002,26,HEIGHT,Height,169.2,cm,169.2,169.2,cm,,WEEK 8,6,2024-12-08,56
STUDY001,VS,STUDY001-SUBJ0002,27,WEIGHT,Weight,88.9,kg,88.9,88.9,kg,,WEEK 8,6,2024-12-08,56
STUDY001,VS,STUDY001-SUBJ0002,28,TEMP,Temperature,36.4,C,36.4,36.4,C,,WEEK 8,6,2024-12-08,56
STUDY001,VS,STUDY001-SUBJ0002,29,BP,Blood Pressure,117/91,mmHg,117/91,,mmHg,,WEEK 8,6,2024-12-08,56
STUDY001,VS,STUDY001-SUBJ0002,30,HR,Heart Rate,67,beats/min,67,67.0,beats/min,,WEEK 8,6,2024-12-08,56
STUDY001,VS,STUDY001-SUBJ0002,31,HEIGHT,Height,169.0,cm,169.0,169.0,cm,,WEEK 12,7,2025-01-05,84
STUDY001,VS,STUDY001-SUBJ0002,32,WEIGHT,Weight,88.9,kg,88.9,88.9,kg,,WEEK 12,7,2025-01-05,84
STUDY001,VS,STUDY001-SUBJ0002,33,TEMP,Temperature,36.4,C,36.4,36.4,C,,WEEK 12,7,2025-01-05,84
STUDY001,VS,STUDY001-SUBJ0002,34,BP,Blood Pressure,120/98,mmHg,120/98,,mmHg,,WEEK 12,7,2025-01-05,84
STUDY001,VS,STUDY001-SUBJ0002,35,HR,Heart Rate,62,beats/min,62,62.0,beats/min,,WEEK 12,7,2025-01-05,84
STUDY001,VS,STUDY001-SUBJ0002,36,HEIGHT,Height,169.1,cm,169.1,169.1,cm,,WEEK 16,8,2025-02-02,112
STUDY001,VS,STUDY001-SUBJ0002,37,WEIGHT,Weight,89.0,kg,89.0,89.0,kg,,WEEK 16,8,2025-02-02,112
STUDY001,VS,STUDY001-SUBJ0002,38,TEMP,Temperature,36.2,C,36.2,36.2,C,,WEEK 16,8,2025-02-02,112
STUDY001,VS,STUDY001-SUBJ0002,39,BP,Blood Pressure,119/98,mmHg,119/98,,mmHg,,WEEK 16,8,2025-02-02,112
STUDY001,VS,STUDY001-SUBJ0002,40,HR,Heart Rate,60,beats/min,60,60.0,beats/min,,WEEK 16,8,2025-02-02,112
STUDY001,VS,STUDY001-SUBJ0002,41,HEIGHT,Height,169.2,cm,169.2,169.2,cm,,END OF TREATMENT,9,2025-03-02,140
STUDY001,VS,STUDY001-SUBJ0002,42,WEIGHT,Weight,88.8,kg,88.8,88.8,kg,,END OF TREATMENT,9,2025-03-02,140
STUDY001,VS,STUDY001-SUBJ0002,43,TEMP,Temperature,36.4,C,36.4,36.4,C,,END OF TREATMENT,9,2025-03-02,140
STUDY001,VS,STUDY001-SUBJ0002,44,BP,Blood Pressure,121/94,mmHg,121/94,,mmHg,,END OF TREATMENT,9,2025-03-02,140
STUDY001,VS,STUDY001-SUBJ0002,45,HR,Heart Rate,60,beats/min,60,60.0,beats/min,,END OF TREATMENT,9,2025-03-02,140
STUDY001,VS,STUDY001-SUBJ0003,1,HEIGHT,Height,173.0,cm,173.0,173.0,cm,,SCREENING,1,2025-05-28,-14
STUDY001,VS,STUDY001-SUBJ0003,2,WEIGHT,Weight,105.1,kg,105.1,105.1,kg,,SCREENING,1,2025-05-28,-14
STUDY001,VS,STUDY001-SUBJ0003,3,TEMP,Temperature,36.5,C,36.5,36.5,C,,SCREENING,1,2025-05-28,-14
STUDY001,VS,STUDY001-SUBJ0003,4,BP,Blood Pressure,125/84,mmHg,125/84,,mmHg,,SCREENING,1,2025-05-28,-14
STUDY001,VS,STUDY001-SUBJ0003,5,HR,Heart Rate,75,beats/min,75,75.0,beats/min,,SCREENING,1,2025-05-28,-14
STUDY001,VS,STUDY001-SUBJ0003,6,HEIGHT,Height,173.0,cm,173.0,173.0,cm,Y,BASELINE,2,2025-06-11,1
STUDY001,VS,STUDY001-SUBJ0003,7,WEIGHT,Weight,106.1,kg,106.1,106.1,kg,Y,BASELINE,2,2025-06-11,1
STUDY001,VS,STUDY001-SUBJ0003,8,TEMP,Temperature,36.4,C,36.4,36.4,C,Y,BASELINE,2,2025-06-11,1
STUDY001,VS,STUDY001-SUBJ0003,9,BP,Blood Pressure,130/90,mmHg,130/90,,mmHg,Y,BASELINE,2,2025-06-11,1
STUDY001,VS,STUDY001-SUBJ0003,10,HR,Heart Rate,83,beats/min,83,83.0,beats/min,Y,BASELINE,2,2025-06-11,1
STUDY001,VS,STUDY001-SUBJ0003,11,HEIGHT,Height,173.1,cm,173.1,173.1,cm,,WEEK 1,3,2025-06-17,7
STUDY001,VS,STUDY001-SUBJ0003,12,WEIGHT,Weight,105.4,kg,105.4,105.4,kg,,WEEK 1,3,2025-06-17,7
STUDY001,VS,STUDY001-SUBJ0003,13,TEMP,Temperature,36.5,C,36.5,36.5,C,,WEEK 1,3,2025-06-17,7
STUDY001,VS,STUDY001-SUBJ0003,14,BP,Blood Pressure,128/85,mmHg,128/85,,mmHg,,WEEK 1,3,2025-06-17,7
STUDY001,VS,STUDY001-SUBJ0003,15,HR,Heart Rate,83,beats/min,83,83.0,beats/min,,WEEK 1,3,2025-06-17,7
STUDY001,VS,STUDY001-SUBJ0003,16,HEIGHT,Height,173.0,cm,173.0,173.0,cm,,WEEK 2,4,2025-06-24,14
STUDY001,VS,STUDY001-SUBJ0003,17,WEIGHT,Weight,106.3,kg,106.3,106.3,kg,,WEEK 2,4,2025-06-24,14
STUDY001,VS,STUDY001-SUBJ0003,18,TEMP,Temperature,36.4,C,36.4,36.4,C,,WEEK 2,4,2025-06-24,14
STUDY001,VS,STUDY001-SUBJ0003,19,BP,Blood Pressure,129/84,mmHg,129/84,,mmHg,,WEEK 2,4,2025-06-24,14
STUDY001,VS,STUDY001-SUBJ0003,20,HR,Heart Rate,81,beats/min,81,81.0,beats/min,,WEEK 2,4,2025-06-24,14
STUDY001,VS,STUDY001-SUBJ0003,21,HEIGHT,Height,173.1,cm,173.1,173.1,cm,,WEEK 4,5,2025-07-08,28
STUDY001,VS,STUDY001-SUBJ0003,22,WEIGHT,Weight,105.6,kg,105.6,105.6,kg,,WEEK 4,5,2025-07-08,28
STUDY001,VS,STUDY001-SUBJ0003,23,TEMP,Temperature,36.0,C,36.0,36.0,C,,WEEK 4,5,2025-07-08,28
STUDY001,VS,STUDY001-SUBJ0003,24,BP,Blood Pressure,122/83,mmHg,122/83,,mmHg,,WEEK 4,5,2025-07-08,28
STUDY001,VS,STUDY001-SUBJ0003,25,HR,Heart Rate,78,beats/min,78,78.0,beats/min,,WEEK 4,5,2025-07-08,28
STUDY001,VS,STUDY001-SUBJ0003,26,HEIGHT,Height,172.9,cm,172.9,172.9,cm,,WEEK 8,6,2025-08-05,56
STUDY001,VS,STUDY001-SUBJ0003,27,WEIGHT,Weight,106.3,kg,106.3,106.3,kg,,WEEK 8,6,2025-08-05,56
STUDY001,VS,STUDY001-SUBJ0003,28,TEMP,Temperature,36.3,C,36.3,36.3,C,,WEEK 8,6,2025-08-05,56
STUDY001,VS,STUDY001-SUBJ0003,29,BP,Blood Pressure,123/82,mmHg,123/82,,mmHg,,WEEK 8,6,2025-08-05,56
STUDY001,VS,STUDY001-SUBJ0003,30,HR,Heart Rate,81,beats/min,81,81.0,beats/min,,WEEK 8,6,2025-08-05,56
STUDY001,VS,STUDY001-SUBJ0003,31,HEIGHT,Height,172.9,cm,172.9,172.9,cm,,WEEK 12,7,2025-09-02,84
STUDY001,VS,STUDY001-SUBJ0003,32,WEIGHT,Weight,105.3,kg,105.3,105.3,kg,,WEEK 12,7,2025-09-02,84
STUDY001,VS,STUDY001-SUBJ0003,33,TEMP,Temperature,36.2,C,36.2,36.2,C,,WEEK 12,7,2025-09-02,84
STUDY001,VS,STUDY001-SUBJ0003,34,BP,Blood Pressure,129/83,mmHg,129/83,,mmHg,,WEEK 12,7,2025-09-02,84
STUDY001,VS,STUDY001-SUBJ0003,35,HR,Heart Rate,77,beats/min,77,77.0,beats/min,,WEEK 12,7,2025-09-02,84
STUDY001,VS,STUDY001-SUBJ0003,36,HEIGHT,Height,172.8,cm,172.8,172.8,cm,,WEEK 16,8,2025-09-30,112
STUDY001,VS,STUDY001-SUBJ0003,37,WEIGHT,Weight,106.6,kg,106.6,106.6,kg,,WEEK 16,8,2025-09-30,112
STUDY001,VS,STUDY001-SUBJ0003,38,TEMP,Temperature,36.3,C,36.3,36.3,C,,WEEK 16,8,2025-09-30,112
STUDY001,VS,STUDY001-SUBJ0003,39,BP,Blood Pressure,127/84,mmHg,127/84,,mmHg,,WEEK 16,8,2025-09-30,112
STUDY001,VS,STUDY001-SUBJ0003,40,HR,Heart Rate,80,beats/min,80,80.0,beats/min,,WEEK 16,8,2025-09-30,112
STUDY001,VS,STUDY001-SUBJ0003,41,HEIGHT,Height,173.1,cm,173.1,173.1,cm,,END OF TREATMENT,9,2025-10-28,140
STUDY001,VS,STUDY001-SUBJ0003,42,WEIGHT,Weight,104.8,kg,104.8,104.8,kg,,END OF TREATMENT,9,2025-10-28,140
STUDY001,VS,STUDY001-SUBJ0003,43,TEMP,Temperature,36.0,C,36.0,36.0,C,,END OF TREATMENT,9,2025-10-28,140
STUDY001,VS,STUDY001-SUBJ0003,44,BP,Blood Pressure,124/83,mmHg,124/83,,mmHg,,END OF TREATMENT,9,2025-10-28,140
STUDY001,VS,STUDY001-SUBJ0003,45,HR,Heart Rate,80,beats/min,80,80.0,beats/min,,END OF TREATMENT,9,2025-10-28,140
STUDY001,VS,STUDY001-SUBJ0004,1,HEIGHT,Height,151.6,cm,151.6,151.6,cm,,SCREENING,1,2024-09-02,-14
STUDY001,VS,STUDY001-SUBJ0004,2,WEIGHT,Weight,118.4,kg,118.4,118.4,kg,,SCREENING,1,2024-09-02,-14
STUDY001,VS,STUDY001-SUBJ0004,3,TEMP,Temperature,36.7,C,36.7,36.7,C,,SCREENING,1,2024-09-02,-14
STUDY001,VS,STUDY001-SUBJ0004,4,BP,Blood Pressure,122/76,mmHg,122/76,,mmHg,,SCREENING,1,2024-09-02,-14
STUDY001,VS,STUDY001-SUBJ0004,5,HR,Heart Rate,83,beats/min,83,83.0,beats/min,,SCREENING,1,2024-09-02,-14
STUDY001,VS,STUDY001-SUBJ0004,6,HEIGHT,Height,151.4,cm,151.4,151.4,cm,Y,BASELINE,2,2024-09-16,1
STUDY001,VS,STUDY001-SUBJ0004,7,WEIGHT,Weight,117.3,kg,117.3,117.3,kg,Y,BASELINE,2,2024-09-16,1
STUDY001,VS,STUDY001-SUBJ0004,8,TEMP,Temperature,36.8,C,36.8,36.8,C,Y,BASELINE,2,2024-09-16,1
STUDY001,VS,STUDY001-SUBJ0004,9,BP,Blood Pressure,116/80,mmHg,116/80,,mmHg,Y,BASELINE,2,2024-09-16,1
STUDY001,VS,STUDY001-SUBJ0004,10,HR,Heart Rate,86,beats/min,86,86.0,beats/min,Y,BASELINE,2,2024-09-16,1
STUDY001,VS,STUDY001-SUBJ0004,11,HEIGHT,Height,151.7,cm,151.7,151.7,cm,,WEEK 1,3,2024-09-22,7
STUDY001,VS,STUDY001-SUBJ0004,12,WEIGHT,Weight,118.3,kg,118.3,118.3,kg,,WEEK 1,3,2024-09-22,7
STUDY001,VS,STUDY001-SUBJ0004,13,TEMP,Temperature,37.1,C,37.1,37.1,C,,WEEK 1,3,2024-09-22,7
STUDY001,VS,STUDY001-SUBJ0004,14,BP,Blood Pressure,123/76,mmHg,123/76,,mmHg,,WEEK 1,3,2024-09-22,7
STUDY001,VS,STUDY001-SUBJ0004,15,HR,Heart Rate,80,beats/min,80,80.0,beats/min,,WEEK 1,3,2024-09-22,7
STUDY001,VS,STUDY001-SUBJ0004,16,HEIGHT,Height,151.7,cm,151.7,151.7,cm,,WEEK 2,4,2024-09-29,14
STUDY001,VS,STUDY001-SUBJ0004,17,WEIGHT,Weight,118.8,kg,118.8,118.8,kg,,WEEK 2,4,2024-09-29,14
STUDY001,VS,STUDY001-SUBJ0004,18,TEMP,Temperature,36.6,C,36.6,36.6,C,,WEEK 2,4,2024-09-29,14
STUDY001,VS,STUDY001-SUBJ0004,19,BP,Blood Pressure,116/78,mmHg,116/78,,mmHg,,WEEK 2,4,2024-09-29,14
STUDY001,VS,STUDY001-SUBJ0004,20,HR,Heart Rate,85,beats/min,85,85.0,beats/min,,WEEK 2,4,2024-09-29,14
STUDY001,VS,STUDY001-SUBJ0004,21,HEIGHT,Height,151.6,cm,151.6,151.6,cm,,WEEK 4,5,2024-10-13,28
STUDY001,VS,STUDY001-SUBJ0004,22,WEIGHT,Weight,118.1,kg,118.1,118.1,kg,,WEEK 4,5,2024-10-13,28
STUDY001,VS,STUDY001-SUBJ0004,23,TEMP,Temperature,36.6,C,36.6,36.6,C,,WEEK 4,5,2024-10-13,28
STUDY001,VS,STUDY001-SUBJ0004,24,BP,Blood Pressure,115/75,mmHg,115/75,,mmHg,,WEEK 4,5,2024-10-13,28
STUDY001,VS,STUDY001-SUBJ0004,25,HR,Heart Rate,81,beats/min,81,81.0,beats/min,,WEEK 4,5,2024-10-13,28
STUDY001,VS,STUDY001-SUBJ0004,26,HEIGHT,Height,151.6,cm,151.6,151.6,cm,,WEEK 8,6,2024-11-10,56
STUDY001,VS,STUDY001-SUBJ0004,27,WEIGHT,Weight,118.2,kg,118.2,118.2,kg,,WEEK 8,6,2024-11-10,56
STUDY001,VS,STUDY001-SUBJ0004,28,TEMP,Temperature,36.6,C,36.6,36.6,C,,WEEK 8,6,2024-11-10,56
STUDY001,VS,STUDY001-SUBJ0004,29,BP,Blood Pressure,117/80,mmHg,117/80,,mmHg,,WEEK 8,6,2024-11-10,56
STUDY001,VS,STUDY001-SUBJ0004,30,HR,Heart Rate,85,beats/min,85,85.0,beats/min,,WEEK 8,6,2024-11-10,56
STUDY001,VS,STUDY001-SUBJ0004,31,HEIGHT,Height,151.8,cm,151.8,151.8,cm,,WEEK 12,7,2024-12-08,84
STUDY001,VS,STUDY001-SUBJ0004,32,WEIGHT,Weight,119.1,kg,119.1,119.1,kg,,WEEK 12,7,2024-12-08,84
STUDY001,VS,STUDY001-SUBJ0004,33,TEMP,Temperature,36.7,C,36.7,36.7,C,,WEEK 12,7,2024-12-08,84
STUDY001,VS,STUDY001-SUBJ0004,34,BP,Blood Pressure,121/79,mmHg,121/79,,mmHg,,WEEK 12,7,2024-12-08,84
STUDY001,VS,STUDY001-SUBJ0004,35,HR,Heart Rate,85,beats/min,85,85.0,beats/min,,WEEK 12,7,2024-12-08,84
STUDY001,VS,STUDY001-SUBJ0004,36,HEIGHT,Height,151.4,cm,151.4,151.4,cm,,WEEK 16,8,2025-01-05,112
STUDY001,VS,STUDY001-SUBJ0004,37,WEIGHT,Weight,118.5,kg,118.5,118.5,kg,,WEEK 16,8,2025-01-05,112
STUDY001,VS,STUDY001-SUBJ0004,38,TEMP,Temperature,36.8,C,36.8,36.8,C,,WEEK 16,8,2025-01-05,112
STUDY001,VS,STUDY001-SUBJ0004,39,BP,Blood Pressure,119/77,mmHg,119/77,,mmHg,,WEEK 16,8,2025-01-05,112
STUDY001,VS,STUDY001-SUBJ0004,40,HR,Heart Rate,80,beats/min,80,80.0,beats/min,,WEEK 16,8,2025-01-05,112
STUDY001,VS,STUDY001-SUBJ0004,41,HEIGHT,Height,151.6,cm,151.6,151.6,cm,,END OF TREATMENT,9,2025-02-02,140
STUDY001,VS,STUDY001-SUBJ0004,42,WEIGHT,Weight,119.2,kg,119.2,119.2,kg,,END OF TREATMENT,9,2025-02-02,140
STUDY001,VS,STUDY001-SUBJ0004,43,TEMP,Temperature,36.9,C,36.9,36.9,C,,END OF TREATMENT,9,2025-02-02,140
STUDY001,VS,STUDY001-SUBJ0004,44,BP,Blood Pressure,117/72,mmHg,117/72,,mmHg,,END OF TREATMENT,9,2025-02-02,140
STUDY001,VS,STUDY001-SUBJ0004,45,HR,Heart Rate,82,beats/min,82,82.0,beats/min,,END OF TREATMENT,9,2025-02-02,140
STUDY001,VS,STUDY001-SUBJ0005,1,HEIGHT,Height,165.6,cm,165.6,165.6,cm,,SCREENING,1,2025-03-22,-14
STUDY001,VS,STUDY001-SUBJ0005,2,WEIGHT,Weight,86.6,kg,86.6,86.6,kg,,SCREENING,1,2025-03-22,-14
STUDY001,VS,STUDY001-SUBJ0005,3,TEMP,Temperature,36.7,C,36.7,36.7,C,,SCREENING,1,2025-03-22,-14
STUDY001,VS,STUDY001-SUBJ0005,4,BP,Blood Pressure,123/80,mmHg,123/80,,mmHg,,SCREENING,1,2025-03-22,-14
STUDY001,VS,STUDY001-SUBJ0005,5,HR,Heart Rate,85,beats/min,85,85.0,beats/min,,SCREENING,1,2025-03-22,-14
STUDY001,VS,STUDY001-SUBJ0005,6,HEIGHT,Height,165.6,cm,165.6,165.6,cm,Y,BASELINE,2,2025-04-05,1
STUDY001,VS,STUDY001-SUBJ0005,7,WEIGHT,Weight,87.0,kg,87.0,87.0,kg,Y,BASELINE,2,2025-04-05,1
STUDY001,VS,STUDY001-SUBJ0005,8,TEMP,Temperature,36.9,C,36.9,36.9,C,Y,BASELINE,2,2025-04-05,1
STUDY001,VS,STUDY001-SUBJ0005,9,BP,Blood Pressure,114/73,mmHg,114/73,,mmHg,Y,BASELINE,2,2025-04-05,1
STUDY001,VS,STUDY001-SUBJ0005,10,HR,Heart Rate,87,beats/min,87,87.0,beats/min,Y,BASELINE,2,2025-04-05,1
STUDY001,VS,STUDY001-SUBJ0005,11,HEIGHT,Height,165.5,cm,165.5,165.5,cm,,WEEK 1,3,2025-04-11,7
STUDY001,VS,STUDY001-SUBJ0005,12,WEIGHT,Weight,87.1,kg,87.1,87.1,kg,,WEEK 1,3,2025-04-11,7
STUDY001,VS,STUDY001-SUBJ0005,13,TEMP,Temperature,36.9,C,36.9,36.9,C,,WEEK 1,3,2025-04-11,7
STUDY001,VS,STUDY001-SUBJ0005,14,BP,Blood Pressure,121/82,mmHg,121/82,,mmHg,,WEEK 1,3,2025-04-11,7
STUDY001,VS,STUDY001-SUBJ0005,15,HR,Heart Rate,90,beats/min,90,90.0,beats/min,,WEEK 1,3,2025-04-11,7
STUDY001,VS,STUDY001-SUBJ0005,16,HEIGHT,Height,165.5,cm,165.5,165.5,cm,,WEEK 2,4,2025-04-18,14
STUDY001,VS,STUDY001-SUBJ0005,17,WEIGHT,Weight,86.2,kg,86.2,86.2,kg,,WEEK 2,4,2025-04-18,14
STUDY001,VS,STUDY001-SUBJ0005,18,TEMP,Temperature,36.9,C,36.9,36.9,C,,WEEK 2,4,2025-04-18,14
STUDY001,VS,STUDY001-SUBJ0005,19,BP,Blood Pressure,114/78,mmHg,114/78,,mmHg,,WEEK 2,4,2025-04-18,14
STUDY001,VS,STUDY001-SUBJ0005,20,HR,Heart Rate,87,beats/min,87,87.0,beats/min,,WEEK 2,4,2025-04-18,14
STUDY001,VS,STUDY001-SUBJ0005,21,HEIGHT,Height,165.4,cm,165.4,165.4,cm,,WEEK 4,5,2025-05-02,28
STUDY001,VS,STUDY001-SUBJ0005,22,WEIGHT,Weight,86.5,kg,86.5,86.5,kg,,WEEK 4,5,2025-05-02,28
STUDY001,VS,STUDY001-SUBJ0005,23,TEMP,Temperature,36.8,C,36.8,36.8,C,,WEEK 4,5,2025-05-02,28
STUDY001,VS,STUDY001-SUBJ0005,24,BP,Blood Pressure,116/78,mmHg,116/78,,mmHg,,WEEK 4,5,2025-05-02,28
STUDY001,VS,STUDY001-SUBJ0005,25,HR,Heart Rate,86,beats/min,86,86.0,beats/min,,WEEK 4,5,2025-05-02,28
STUDY001,VS,STUDY001-SUBJ0005,26,HEIGHT,Height,165.6,cm,165.6,165.6,cm,,WEEK 8,6,2025-05-30,56
STUDY001,VS,STUDY001-SUBJ0005,27,WEIGHT,Weight,86.9,kg,86.9,86.9,kg,,WEEK 8,6,2025-05-30,56
STUDY001,VS,STUDY001-SUBJ0005,28,TEMP,Temperature,37.2,C,37.2,37.2,C,,WEEK 8,6,2025-05-30,56
STUDY001,VS,STUDY001-SUBJ0005,29,BP,Blood Pressure,122/74,mmHg,122/74,,mmHg,,WEEK 8,6,2025-05-30,56
STUDY001,VS,STUDY001-SUBJ0005,30,HR,Heart Rate,86,beats/min,86,86.0,beats/min,,WEEK 8,6,2025-05-30,56
STUDY001,VS,STUDY001-SUBJ0005,31,HEIGHT,Height,165.5,cm,165.5,165.5,cm,,WEEK 12,7,2025-06-27,84
STUDY001,VS,STUDY001-SUBJ0005,32,WEIGHT,Weight,86.8,kg,86.8,86.8,kg,,WEEK 12,7,2025-06-27,84
STUDY001,VS,STUDY001-SUBJ0005,33,TEMP,Temperature,37.0,C,37.0,37.0,C,,WEEK 12,7,2025-06-27,84
STUDY001,VS,STUDY001-SUBJ0005,34,BP,Blood Pressure,117/80,mmHg,117/80,,mmHg,,WEEK 12,7,2025-06-27,84
STUDY001,VS,STUDY001-SUBJ0005,35,HR,Heart Rate,92,beats/min,92,92.0,beats/min,,WEEK 12,7,2025-06-27,84
STUDY001,VS,STUDY001-SUBJ0005,36,HEIGHT,Height,165.7,cm,165.7,165.7,cm,,WEEK 16,8,2025-07-25,112
STUDY001,VS,STUDY001-SUBJ0005,37,WEIGHT,Weight,86.8,kg,86.8,86.8,kg,,WEEK 16,8,2025-07-25,112
STUDY001,VS,STUDY001-SUBJ0005,38,TEMP,Temperature,37.1,C,37.1,37.1,C,,WEEK 16,8,2025-07-25,112
STUDY001,VS,STUDY001-SUBJ0005,39,BP,Blood Pressure,116/81,mmHg,116/81,,mmHg,,WEEK 16,8,2025-07-25,112
STUDY001,VS,STUDY001-SUBJ0005,40,HR,Heart Rate,85,beats/min,85,85.0,beats/min,,WEEK 16,8,2025-07-25,112
STUDY001,VS,STUDY001-SUBJ0005,41,HEIGHT,Height,165.6,cm,165.6,165.6,cm,,END OF TREATMENT,9,2025-08-22,140
STUDY001,VS,STUDY001-SUBJ0005,42,WEIGHT,Weight,86.8,kg,86.8,86.8,kg,,END OF TREATMENT,9,2025-08-22,140
STUDY001,VS,STUDY001-SUBJ0005,43,TEMP,Temperature,37.1,C,37.1,37.1,C,,END OF TREATMENT,9,2025-08-22,140
STUDY001,VS,STUDY001-SUBJ0005,44,BP,Blood Pressure,118/78,mmHg,118/78,,mmHg,,END OF TREATMENT,9,2025-08-22,140
STUDY001,VS,STUDY001-SUBJ0005,45,HR,Heart Rate,90,beats/min,90,90.0,beats/min,,END OF TREATMENT,9,2025-08-22,140
STUDY001,VS,STUDY001-SUBJ0006,1,HEIGHT,Height,153.0,cm,153.0,153.0,cm,,SCREENING,1,2025-02-11,-14
STUDY001,VS,STUDY001-SUBJ0006,2,WEIGHT,Weight,74.6,kg,74.6,74.6,kg,,SCREENING,1,2025-02-11,-14
STUDY001,VS,STUDY001-SUBJ0006,3,TEMP,Temperature,36.9,C,36.9,36.9,C,,SCREENING,1,2025-02-11,-14
STUDY001,VS,STUDY001-SUBJ0006,4,BP,Blood Pressure,108/85,mmHg,108/85,,mmHg,,SCREENING,1,2025-02-11,-14
STUDY001,VS,STUDY001-SUBJ0006,5,HR,Heart Rate,80,beats/min,80,80.0,beats/min,,SCREENING,1,2025-02-11,-14
STUDY001,VS,STUDY001-SUBJ0006,6,HEIGHT,Height,152.9,cm,152.9,152.9,cm,Y,BASELINE,2,2025-02-25,1
STUDY001,VS,STUDY001-SUBJ0006,7,WEIGHT,Weight,76.4,kg,76.4,76.4,kg,Y,BASELINE,2,2025-02-25,1
STUDY001,VS,STUDY001-SUBJ0006,8,TEMP,Temperature,36.5,C,36.5,36.5,C,Y,BASELINE,2,2025-02-25,1
STUDY001,VS,STUDY001-SUBJ0006,9,BP,Blood Pressure,110/86,mmHg,110/86,,mmHg,Y,BASELINE,2,2025-02-25,1
STUDY001,VS,STUDY001-SUBJ0006,10,HR,Heart Rate,72,beats/min,72,72.0,beats/min,Y,BASELINE,2,2025-02-25,1
STUDY001,VS,STUDY001-SUBJ0006,11,HEIGHT,Height,153.1,cm,153.1,153.1,cm,,WEEK 1,3,2025-03-03,7
STUDY001,VS,STUDY001-SUBJ0006,12,WEIGHT,Weight,75.0,kg,75.0,75.0,kg,,WEEK 1,3,2025-03-03,7
STUDY001,VS,STUDY001-SUBJ0006,13,TEMP,Temperature,36.8,C,36.8,36.8,C,,WEEK 1,3,2025-03-03,7
STUDY001,VS,STUDY001-SUBJ0006,14,BP,Blood Pressure,111/87,mmHg,111/87,,mmHg,,WEEK 1,3,2025-03-03,7
STUDY001,VS,STUDY001-SUBJ0006,15,HR,Heart Rate,78,beats/min,78,78.0,beats/min,,WEEK 1,3,2025-03-03,7
STUDY001,VS,STUDY001-SUBJ0006,16,HEIGHT,Height,152.8,cm,152.8,152.8,cm,,WEEK 2,4,2025-03-10,14
STUDY001,VS,STUDY001-SUBJ0006,17,WEIGHT,Weight,75.5,kg,75.5,75.5,kg,,WEEK 2,4,2025-03-10,14
STUDY001,VS,STUDY001-SUBJ0006,18,TEMP,Temperature,37.0,C,37.0,37.0,C,,WEEK 2,4,2025-03-10,14
STUDY001,VS,STUDY001-SUBJ0006,19,BP,Blood Pressure,105/92,mmHg,105/92,,mmHg,,WEEK 2,4,2025-03-10,14
STUDY001,VS,STUDY001-SUBJ0006,20,HR,Heart Rate,71,beats/min,71,71.0,beats/min,,WEEK 2,4,2025-03-10,14
STUDY001,VS,STUDY001-SUBJ0006,21,HEIGHT,Height,153.1,cm,153.1,153.1,cm,,WEEK 4,5,2025-03-24,28
STUDY001,VS,STUDY001-SUBJ0006,22,WEIGHT,Weight,76.2,kg,76.2,76.2,kg,,WEEK 4,5,2025-03-24,28
STUDY001,VS,STUDY001-SUBJ0006,23,TEMP,Temperature,36.7,C,36.7,36.7,C,,WEEK 4,5,2025-03-24,28
STUDY001,VS,STUDY001-SUBJ0006,24,BP,Blood Pressure,114/89,mmHg,114/89,,mmHg,,WEEK 4,5,2025-03-24,28
STUDY001,VS,STUDY001-SUBJ0006,25,HR,Heart Rate,73,beats/min,73,73.0,beats/min,,WEEK 4,5,2025-03-24,28
STUDY001,VS,STUDY001-SUBJ0006,26,HEIGHT,Height,153.0,cm,153.0,153.0,cm,,WEEK 8,6,2025-04-21,56
STUDY001,VS,STUDY001-SUBJ0006,27,WEIGHT,Weight,74.6,kg,74.6,74.6,kg,,WEEK 8,6,2025-04-21,56
STUDY001,VS,STUDY001-SUBJ0006,28,TEMP,Temperature,36.9,C,36.9,36.9,C,,WEEK 8,6,2025-04-21,56
STUDY001,VS,STUDY001-SUBJ0006,29,BP,Blood Pressure,112/89,mmHg,112/89,,mmHg,,WEEK 8,6,2025-04-21,56
STUDY001,VS,STUDY001-SUBJ0006,30,HR,Heart Rate,73,beats/min,73,73.0,beats/min,,WEEK 8,6,2025-04-21,56
STUDY001,VS,STUDY001-SUBJ0006,31,HEIGHT,Height,152.9,cm,152.9,152.9,cm,,WEEK 12,7,2025-05-19,84
STUDY001,VS,STUDY001-SUBJ0006,32,WEIGHT,Weight,76.3,kg,76.3,76.3,kg,,WEEK 12,7,2025-05-19,84
STUDY001,VS,STUDY001-SUBJ0006,33,TEMP,Temperature,36.7,C,36.7,36.7,C,,WEEK 12,7,2025-05-19,84
STUDY001,VS,STUDY001-SUBJ0006,34,BP,Blood Pressure,111/83,mmHg,111/83,,mmHg,,WEEK 12,7,2025-05-19,84
STUDY001,VS,STUDY001-SUBJ0006,35,HR,Heart Rate,78,beats/min,78,78.0,beats/min,,WEEK 12,7,2025-05-19,84
STUDY001,VS,STUDY001-SUBJ0006,36,HEIGHT,Height,153.0,cm,153.0,153.0,cm,,WEEK 16,8,2025-06-16,112
STUDY001,VS,STUDY001-SUBJ0006,37,WEIGHT,Weight,75.3,kg,75.3,75.3,kg,,WEEK 16,8,2025-06-16,112
STUDY001,VS,STUDY001-SUBJ0006,38,TEMP,Temperature,37.0,C,37.0,37.0,C,,WEEK 16,8,2025-06-16,112
STUDY001,VS,STUDY001-SUBJ0006,39,BP,Blood Pressure,106/91,mmHg,106/91,,mmHg,,WEEK 16,8,2025-06-16,112
STUDY001,VS,STUDY001-SUBJ0006,40,HR,Heart Rate,76,beats/min,76,76.0,beats/min,,WEEK 16,8,2025-06-16,112
STUDY001,VS,STUDY001-SUBJ0006,41,HEIGHT,Height,153.0,cm,153.0,153.0,cm,,END OF TREATMENT,9,2025-07-14,140
STUDY001,VS,STUDY001-SUBJ0006,42,WEIGHT,Weight,75.0,kg,75.0,75.0,kg,,END OF TREATMENT,9,2025-07-14,140
STUDY001,VS,STUDY001-SUBJ0006,43,TEMP,Temperature,36.5,C,36.5,36.5,C,,END OF TREATMENT,9,2025-07-14,140
STUDY001,VS,STUDY001-SUBJ0006,44,BP,Blood Pressure,108/91,mmHg,108/91,,mmHg,,END OF TREATMENT,9,2025-07-14,140
STUDY001,VS,STUDY001-SUBJ0006,45,HR,Heart Rate,74,beats/min,74,74.0,beats/min,,END OF TREATMENT,9,2025-07-14,140
STUDY001,VS,STUDY001-SUBJ0007,1,HEIGHT,Height,177.3,cm,177.3,177.3,cm,,SCREENING,1,2024-09-19,-14
STUDY001,VS,STUDY001-SUBJ0007,2,WEIGHT,Weight,58.9,kg,58.9,58.9,kg,,SCREENING,1,2024-09-19,-14
STUDY001,VS,STUDY001-SUBJ0007,3,TEMP,Temperature,36.2,C,36.2,36.2,C,,SCREENING,1,2024-09-19,-14
STUDY001,VS,STUDY001-SUBJ0007,4,BP,Blood Pressure,104/77,mmHg,104/77,,mmHg,,SCREENING,1,2024-09-19,-14
STUDY001,VS,STUDY001-SUBJ0007,5,HR,Heart Rate,72,beats/min,72,72.0,beats/min,,SCREENING,1,2024-09-19,-14
STUDY001,VS,STUDY001-SUBJ0007,6,HEIGHT,Height,177.1,cm,177.1,177.1,cm,Y,BASELINE,2,2024-10-03,1
STUDY001,VS,STUDY001-SUBJ0007,7,WEIGHT,Weight,58.8,kg,58.8,58.8,kg,Y,BASELINE,2,2024-10-03,1
STUDY001,VS,STUDY001-SUBJ0007,8,TEMP,Temperature,36.1,C,36.1,36.1,C,Y,BASELINE,2,2024-10-03,1
STUDY001,VS,STUDY001-SUBJ0007,9,BP,Blood Pressure,96/76,mmHg,96/76,,mmHg,Y,BASELINE,2,2024-10-03,1
STUDY001,VS,STUDY001-SUBJ0007,10,HR,Heart Rate,76,beats/min,76,76.0,beats/min,Y,BASELINE,2,2024-10-03,1
STUDY001,VS,STUDY001-SUBJ0007,11,HEIGHT,Height,177.5,cm,177.5,177.5,cm,,WEEK 1,3,2024-10-09,7
STUDY001,VS,STUDY001-SUBJ0007,12,WEIGHT,Weight,58.8,kg,58.8,58.8,kg,,WEEK 1,3,2024-10-09,7
STUDY001,VS,STUDY001-SUBJ0007,13,TEMP,Temperature,35.8,C,35.8,35.8,C,,WEEK 1,3,2024-10-09,7
STUDY001,VS,STUDY001-SUBJ0007,14,BP,Blood Pressure,97/74,mmHg,97/74,,mmHg,,WEEK 1,3,2024-10-09,7
STUDY001,VS,STUDY001-SUBJ0007,15,HR,Heart Rate,75,beats/min,75,75.0,beats/min,,WEEK 1,3,2024-10-09,7
STUDY001,VS,STUDY001-SUBJ0007,16,HEIGHT,Height,177.1,cm,177.1,177.1,cm,,WEEK 2,4,2024-10-16,14
STUDY001,VS,STUDY001-SUBJ0007,17,WEIGHT,Weight,59.1,kg,59.1,59.1,kg,,WEEK 2,4,2024-10-16,14
STUDY001,VS,STUDY001-SUBJ0007,18,TEMP,Temperature,35.9,C,35.9,35.9,C,,WEEK 2,4,2024-10-16,14
STUDY001,VS,STUDY001-SUBJ0007,19,BP,Blood Pressure,95/74,mmHg,95/74,,mmHg,,WEEK 2,4,2024-10-16,14
STUDY001,VS,STUDY001-SUBJ0007,20,HR,Heart Rate,73,beats/min,73,73.0,beats/min,,WEEK 2,4,2024-10-16,14
STUDY001,VS,STUDY001-SUBJ0007,21,HEIGHT,Height,177.1,cm,177.1,177.1,cm,,WEEK 4,5,2024-10-30,28
STUDY001,VS,STUDY001-SUBJ0007,22,WEIGHT,Weight,59.8,kg,59.8,59.8,kg,,WEEK 4,5,2024-10-30,28
STUDY001,VS,STUDY001-SUBJ0007,23,TEMP,Temperature,36.1,C,36.1,36.1,C,,WEEK 4,5,2024-10-30,28
STUDY001,VS,STUDY001-SUBJ0007,24,BP,Blood Pressure,101/78,mmHg,101/78,,mmHg,,WEEK 4,5,2024-10-30,28
STUDY001,VS,STUDY001-SUBJ0007,25,HR,Heart Rate,71,beats/min,71,71.0,beats/min,,WEEK 4,5,2024-10-30,28
STUDY001,VS,STUDY001-SUBJ0007,26,HEIGHT,Height,177.3,cm,177.3,177.3,cm,,WEEK 8,6,2024-11-27,56
STUDY001,VS,STUDY001-SUBJ0007,27,WEIGHT,Weight,60.5,kg,60.5,60.5,kg,,WEEK 8,6,2024-11-27,56
STUDY001,VS,STUDY001-SUBJ0007,28,TEMP,Temperature,35.9,C,35.9,35.9,C,,WEEK 8,6,2024-11-27,56
STUDY001,VS,STUDY001-SUBJ0007,29,BP,Blood Pressure,100/82,mmHg,100/82,,mmHg,,WEEK 8,6,2024-11-27,56
STUDY001,VS,STUDY001-SUBJ0007,30,HR,Heart Rate,76,beats/min,76,76.0,beats/min,,WEEK 8,6,2024-11-27,56
STUDY001,VS,STUDY001-SUBJ0007,31,HEIGHT,Height,177.2,cm,177.2,177.2,cm,,WEEK 12,7,2024-12-25,84
STUDY001,VS,STUDY001-SUBJ0007,32,WEIGHT,Weight,60.4,kg,60.4,60.4,kg,,WEEK 12,7,2024-12-25,84
STUDY001,VS,STUDY001-SUBJ0007,33,TEMP,Temperature,36.0,C,36.0,36.0,C,,WEEK 12,7,2024-12-25,84
STUDY001,VS,STUDY001-SUBJ0007,34,BP,Blood Pressure,96/81,mmHg,96/81,,mmHg,,WEEK 12,7,2024-12-25,84
STUDY001,VS,STUDY001-SUBJ0007,35,HR,Heart Rate,75,beats/min,75,75.0,beats/min,,WEEK 12,7,2024-12-25,84
STUDY001,VS,STUDY001-SUBJ0007,36,HEIGHT,Height,177.5,cm,177.5,177.5,cm,,WEEK 16,8,2025-01-22,112
STUDY001,VS,STUDY001-SUBJ0007,37,WEIGHT,Weight,60.5,kg,60.5,60.5,kg,,WEEK 16,8,2025-01-22,112
STUDY001,VS,STUDY001-SUBJ0007,38,TEMP,Temperature,35.7,C,35.7,35.7,C,,WEEK 16,8,2025-01-22,112
STUDY001,VS,STUDY001-SUBJ0007,39,BP,Blood Pressure,103/75,mmHg,103/75,,mmHg,,WEEK 16,8,2025-01-22,112
STUDY001,VS,STUDY001-SUBJ0007,40,HR,Heart Rate,71,beats/min,71,71.0,beats/min,,WEEK 16,8,2025-01-22,112
STUDY001,VS,STUDY001-SUBJ0007,41,HEIGHT,Height,177.3,cm,177.3,177.3,cm,,END OF TREATMENT,9,2025-02-19,140
STUDY001,VS,STUDY001-SUBJ0007,42,WEIGHT,Weight,58.9,kg,58.9,58.9,kg,,END OF TREATMENT,9,2025-02-19,140
STUDY001,VS,STUDY001-SUBJ0007,43,TEMP,Temperature,35.9,C,35.9,35.9,C,,END OF TREATMENT,9,2025-02-19,140
STUDY001,VS,STUDY001-SUBJ0007,44,BP,Blood Pressure,97/76,mmHg,97/76,,mmHg,,END OF TREATMENT,9,2025-02-19,140
STUDY001,VS,STUDY001-SUBJ0007,45,HR,Heart Rate,69,beats/min,69,69.0,beats/min,,END OF TREATMENT,9,2025-02-19,140
STUDY001,VS,STUDY001-SUBJ0008,1,HEIGHT,Height,185.5,cm,185.5,185.5,cm,,SCREENING,1,2024-10-17,-14
STUDY001,VS,STUDY001-SUBJ0008,2,WEIGHT,Weight,112.6,kg,112.6,112.6,kg,,SCREENING,1,2024-10-17,-14
STUDY001,VS,STUDY001-SUBJ0008,3,TEMP,Temperature,36.7,C,36.7,36.7,C,,SCREENING,1,2024-10-17,-14
STUDY001,VS,STUDY001-SUBJ0008,4,BP,Blood Pressure,122/85,mmHg,122/85,,mmHg,,SCREENING,1,2024-10-17,-14
STUDY001,VS,STUDY001-SUBJ0008,5,HR,Heart Rate,77,beats/min,77,77.0,beats/min,,SCREENING,1,2024-10-17,-14
STUDY001,VS,STUDY001-SUBJ0008,6,HEIGHT,Height,185.3,cm,185.3,185.3,cm,Y,BASELINE,2,2024-10-31,1
STUDY001,VS,STUDY001-SUBJ0008,7,WEIGHT,Weight,111.8,kg,111.8,111.8,kg,Y,BASELINE,2,2024-10-31,1
STUDY001,VS,STUDY001-SUBJ0008,8,TEMP,Temperature,36.3,C,36.3,36.3,C,Y,BASELINE,2,2024-10-31,1
STUDY001,VS,STUDY001-SUBJ0008,9,BP,Blood Pressure,120/84,mmHg,120/84,,mmHg,Y,BASELINE,2,2024-10-31,1
STUDY001,VS,STUDY001-SUBJ0008,10,HR,Heart Rate,74,beats/min,74,74.0,beats/min,Y,BASELINE,2,2024-10-31,1
STUDY001,VS,STUDY001-SUBJ0008,11,HEIGHT,Height,185.5,cm,185.5,185.5,cm,,WEEK 1,3,2024-11-06,7
STUDY001,VS,STUDY001-SUBJ0008,12,WEIGHT,Weight,112.1,kg,112.1,112.1,kg,,WEEK 1,3,2024-11-06,7
STUDY001,VS,STUDY001-SUBJ0008,13,TEMP,Temperature,36.6,C,36.6,36.6,C,,WEEK 1,3,2024-11-06,7
STUDY001,VS,STUDY001-SUBJ0008,14,BP,Blood Pressure,126/89,mmHg,126/89,,mmHg,,WEEK 1,3,2024-11-06,7
STUDY001,VS,STUDY001-SUBJ0008,15,HR,Heart Rate,69,beats/min,69,69.0,beats/min,,WEEK 1,3,2024-11-06,7
STUDY001,VS,STUDY001-SUBJ0008,16,HEIGHT,Height,185.6,cm,185.6,185.6,cm,,WEEK 2,4,2024-11-13,14
STUDY001,VS,STUDY001-SUBJ0008,17,WEIGHT,Weight,112.1,kg,112.1,112.1,kg,,WEEK 2,4,2024-11-13,14
STUDY001,VS,STUDY001-SUBJ0008,18,TEMP,Temperature,36.3,C,36.3,36.3,C,,WEEK 2,4,2024-11-13,14
STUDY001,VS,STUDY001-SUBJ0008,19,BP,Blood Pressure,127/84,mmHg,127/84,,mmHg,,WEEK 2,4,2024-11-13,14
STUDY001,VS,STUDY001-SUBJ0008,20,HR,Heart Rate,72,beats/min,72,72.0,beats/min,,WEEK 2,4,2024-11-13,14
STUDY001,VS,STUDY001-SUBJ0008,21,HEIGHT,Height,185.3,cm,185.3,185.3,cm,,WEEK 4,5,2024-11-27,28
STUDY001,VS,STUDY001-SUBJ0008,22,WEIGHT,Weight,111.9,kg,111.9,111.9,kg,,WEEK 4,5,2024-11-27,28
STUDY001,VS,STUDY001-SUBJ0008,23,TEMP,Temperature,36.7,C,36.7,36.7,C,,WEEK 4,5,2024-11-27,28
STUDY001,VS,STUDY001-SUBJ0008,24,BP,Blood Pressure,126/88,mmHg,126/88,,mmHg,,WEEK 4,5,2024-11-27,28
STUDY001,VS,STUDY001-SUBJ0008,25,HR,Heart Rate,78,beats/min,78,78.0,beats/min,,WEEK 4,5,2024-11-27,28
STUDY001,VS,STUDY001-SUBJ0008,26,HEIGHT,Height,185.5,cm,185.5,185.5,cm,,WEEK 8,6,2024-12-25,56
STUDY001,VS,STUDY001-SUBJ0008,27,WEIGHT,Weight,113.1,kg,113.1,113.1,kg,,WEEK 8,6,2024-12-25,56
STUDY001,VS,STUDY001-SUBJ0008,28,TEMP,Temperature,36.3,C,36.3,36.3,C,,WEEK 8,6,2024-12-25,56
STUDY001,VS,STUDY001-SUBJ0008,29,BP,Blood Pressure,129/89,mmHg,129/89,,mmHg,,WEEK 8,6,2024-12-25,56
STUDY001,VS,STUDY001-SUBJ0008,30,HR,Heart Rate,74,beats/min,74,74.0,beats/min,,WEEK 8,6,2024-12-25,56
STUDY001,VS,STUDY001-SUBJ0008,31,HEIGHT,Height,185.5,cm,185.5,185.5,cm,,WEEK 12,7,2025-01-22,84
STUDY001,VS,STUDY001-SUBJ0008,32,WEIGHT,Weight,112.1,kg,112.1,112.1,kg,,WEEK 12,7,2025-01-22,84
STUDY001,VS,STUDY001-SUBJ0008,33,TEMP,Temperature,36.2,C,36.2,36.2,C,,WEEK 12,7,2025-01-22,84
STUDY001,VS,STUDY001-SUBJ0008,34,BP,Blood Pressure,121/86,mmHg,121/86,,mmHg,,WEEK 12,7,2025-01-22,84
STUDY001,VS,STUDY001-SUBJ0008,35,HR,Heart Rate,77,beats/min,77,77.0,beats/min,,WEEK 12,7,2025-01-22,84
STUDY001,VS,STUDY001-SUBJ0008,36,HEIGHT,Height,185.5,cm,185.5,185.5,cm,,WEEK 16,8,2025-02-19,112
STUDY001,VS,STUDY001-SUBJ0008,37,WEIGHT,Weight,111.9,kg,111.9,111.9,kg,,WEEK 16,8,2025-02-19,112
STUDY001,VS,STUDY001-SUBJ0008,38,TEMP,Temperature,36.5,C,36.5,36.5,C,,WEEK 16,8,2025-02-19,112
STUDY001,VS,STUDY001-SUBJ0008,39,BP,Blood Pressure,128/90,mmHg,128/90,,mmHg,,WEEK 16,8,2025-02-19,112
STUDY001,VS,STUDY001-SUBJ0008,40,HR,Heart Rate,75,beats/min,75,75.0,beats/min,,WEEK 16,8,2025-02-19,112
STUDY001,VS,STUDY001-SUBJ0008,41,HEIGHT,Height,185.5,cm,185.5,185.5,cm,,END OF TREATMENT,9,2025-03-19,140
STUDY001,VS,STUDY001-SUBJ0008,42,WEIGHT,Weight,112.6,kg,112.6,112.6,kg,,END OF TREATMENT,9,2025-03-19,140
STUDY001,VS,STUDY001-SUBJ0008,43,TEMP,Temperature,36.5,C,36.5,36.5,C,,END OF TREATMENT,9,2025-03-19,140
STUDY001,VS,STUDY001-SUBJ0008,44,BP,Blood Pressure,125/82,mmHg,125/82,,mmHg,,END OF TREATMENT,9,2025-03-19,140
STUDY001,VS,STUDY001-SUBJ0008,45,HR,Heart Rate,72,beats/min,72,72.0,beats/min,,END OF TREATMENT,9,2025-03-19,140
STUDY001,VS,STUDY001-SUBJ0009,1,HEIGHT,Height,165.0,cm,165.0,165.0,cm,,SCREENING,1,2025-05-04,-14
STUDY001,VS,STUDY001-SUBJ0009,2,WEIGHT,Weight,54.9,kg,54.9,54.9,kg,,SCREENING,1,2025-05-04,-14
STUDY001,VS,STUDY001-SUBJ0009,3,TEMP,Temperature,36.4,C,36.4,36.4,C,,SCREENING,1,2025-05-04,-14
STUDY001,VS,STUDY001-SUBJ0009,4,BP,Blood Pressure,135/78,mmHg,135/78,,mmHg,,SCREENING,1,2025-05-04,-14
STUDY001,VS,STUDY001-SUBJ0009,5,HR,Heart Rate,64,beats/min,64,64.0,beats/min,,SCREENING,1,2025-05-04,-14
STUDY001,VS,STUDY001-SUBJ0009,6,HEIGHT,Height,165.0,cm,165.0,165.0,cm,Y,BASELINE,2,2025-05-18,1
STUDY001,VS,STUDY001-SUBJ0009,7,WEIGHT,Weight,53.4,kg,53.4,53.4,kg,Y,BASELINE,2,2025-05-18,1
STUDY001,VS,STUDY001-SUBJ0009,8,TEMP,Temperature,36.1,C,36.1,36.1,C,Y,BASELINE,2,2025-05-18,1
STUDY001,VS,STUDY001-SUBJ0009,9,BP,Blood Pressure,135/81,mmHg,135/81,,mmHg,Y,BASELINE,2,2025-05-18,1
STUDY001,VS,STUDY001-SUBJ0009,10,HR,Heart Rate,64,beats/min,64,64.0,beats/min,Y,BASELINE,2,2025-05-18,1
STUDY001,VS,STUDY001-SUBJ0009,11,HEIGHT,Height,164.8,cm,164.8,164.8,cm,,WEEK 1,3,2025-05-24,7
STUDY001,VS,STUDY001-SUBJ0009,12,WEIGHT,Weight,53.8,kg,53.8,53.8,kg,,WEEK 1,3,2025-05-24,7
STUDY001,VS,STUDY001-SUBJ0009,13,TEMP,Temperature,35.9,C,35.9,35.9,C,,WEEK 1,3,2025-05-24,7
STUDY001,VS,STUDY001-SUBJ0009,14,BP,Blood Pressure,132/79,mmHg,132/79,,mmHg,,WEEK 1,3,2025-05-24,7
STUDY001,VS,STUDY001-SUBJ0009,15,HR,Heart Rate,63,beats/min,63,63.0,beats/min,,WEEK 1,3,2025-05-24,7
STUDY001,VS,STUDY001-SUBJ0009,16,HEIGHT,Height,165.0,cm,165.0,165.0,cm,,WEEK 2,4,2025-05-31,14
STUDY001,VS,STUDY001-SUBJ0009,17,WEIGHT,Weight,53.8,kg,53.8,53.8,kg,,WEEK 2,4,2025-05-31,14
STUDY001,VS,STUDY001-SUBJ0009,18,TEMP,Temperature,35.8,C,35.8,35.8,C,,WEEK 2,4,2025-05-31,14
STUDY001,VS,STUDY001-SUBJ0009,19,BP,Blood Pressure,136/84,mmHg,136/84,,mmHg,,WEEK 2,4,2025-05-31,14
STUDY001,VS,STUDY001-SUBJ0009,20,HR,Heart Rate,64,beats/min,64,64.0,beats/min,,WEEK 2,4,2025-05-31,14
STUDY001,VS,STUDY001-SUBJ0009,21,HEIGHT,Height,164.9,cm,164.9,164.9,cm,,WEEK 4,5,2025-06-14,28
STUDY001,VS,STUDY001-SUBJ0009,22,WEIGHT,Weight,53.2,kg,53.2,53.2,kg,,WEEK 4,5,2025-06-14,28
STUDY001,VS,STUDY001-SUBJ0009,23,TEMP,Temperature,36.3,C,36.3,36.3,C,,WEEK 4,5,2025-06-14,28
STUDY001,VS,STUDY001-SUBJ0009,24,BP,Blood Pressure,136/84,mmHg,136/84,,mmHg,,WEEK 4,5,2025-06-14,28
STUDY001,VS,STUDY001-SUBJ0009,25,HR,Heart Rate,63,beats/min,63,63.0,beats/min,,WEEK 4,5,2025-06-14,28
STUDY001,VS,STUDY001-SUBJ0009,26,HEIGHT,Height,164.9,cm,164.9,164.9,cm,,WEEK 8,6,2025-07-12,56
STUDY001,VS,STUDY001-SUBJ0009,27,WEIGHT,Weight,54.1,kg,54.1,54.1,kg,,WEEK 8,6,2025-07-12,56
STUDY001,VS,STUDY001-SUBJ0009,28,TEMP,Temperature,36.0,C,36.0,36.0,C,,WEEK 8,6,2025-07-12,56
STUDY001,VS,STUDY001-SUBJ0009,29,BP,Blood Pressure,139/75,mmHg,139/75,,mmHg,,WEEK 8,6,2025-07-12,56
STUDY001,VS,STUDY001-SUBJ0009,30,HR,Heart Rate,64,beats/min,64,64.0,beats/min,,WEEK 8,6,2025-07-12,56
STUDY001,VS,STUDY001-SUBJ0009,31,HEIGHT,Height,165.1,cm,165.1,165.1,cm,,WEEK 12,7,2025-08-09,84
STUDY001,VS,STUDY001-SUBJ0009,32,WEIGHT,Weight,54.5,kg,54.5,54.5,kg,,WEEK 12,7,2025-08-09,84
STUDY001,VS,STUDY001-SUBJ0009,33,TEMP,Temperature,36.2,C,36.2,36.2,C,,WEEK 12,7,2025-08-09,84
STUDY001,VS,STUDY001-SUBJ0009,34,BP,Blood Pressure,133/82,mmHg,133/82,,mmHg,,WEEK 12,7,2025-08-09,84
STUDY001,VS,STUDY001-SUBJ0009,35,HR,Heart Rate,59,beats/min,59,59.0,beats/min,,WEEK 12,7,2025-08-09,84
STUDY001,VS,STUDY001-SUBJ0009,36,HEIGHT,Height,165.0,cm,165.0,165.0,cm,,WEEK 16,8,2025-09-06,112
STUDY001,VS,STUDY001-SUBJ0009,37,WEIGHT,Weight,53.9,kg,53.9,53.9,kg,,WEEK 16,8,2025-09-06,112
STUDY001,VS,STUDY001-SUBJ0009,38,TEMP,Temperature,36.3,C,36.3,36.3,C,,WEEK 16,8,2025-09-06,112
STUDY001,VS,STUDY001-SUBJ0009,39,BP,Blood Pressure,137/80,mmHg,137/80,,mmHg,,WEEK 16,8,2025-09-06,112
STUDY001,VS,STUDY001-SUBJ0009,40,HR,Heart Rate,65,beats/min,65,65.0,beats/min,,WEEK 16,8,2025-09-06,112
STUDY001,VS,STUDY001-SUBJ0009,41,HEIGHT,Height,164.9,cm,164.9,164.9,cm,,END OF TREATMENT,9,2025-10-04,140
STUDY001,VS,STUDY001-SUBJ0009,42,WEIGHT,Weight,54.5,kg,54.5,54.5,kg,,END OF TREATMENT,9,2025-10-04,140
STUDY001,VS,STUDY001-SUBJ0009,43,TEMP,Temperature,36.2,C,36.2,36.2,C,,END OF TREATMENT,9,2025-10-04,140
STUDY001,VS,STUDY001-SUBJ0009,44,BP,Blood Pressure,133/77,mmHg,133/77,,mmHg,,END OF TREATMENT,9,2025-10-04,140
STUDY001,VS,STUDY001-SUBJ0009,45,HR,Heart Rate,62,beats/min,62,62.0,beats/min,,END OF TREATMENT,9,2025-10-04,140
STUDY001,VS,STUDY001-SUBJ0010,1,HEIGHT,Height,159.3,cm,159.3,159.3,cm,,SCREENING,1,2024-10-05,-14
STUDY001,VS,STUDY001-SUBJ0010,2,WEIGHT,Weight,100.8,kg,100.8,100.8,kg,,SCREENING,1,2024-10-05,-14
STUDY001,VS,STUDY001-SUBJ0010,3,TEMP,Temperature,35.8,C,35.8,35.8,C,,SCREENING,1,2024-10-05,-14
STUDY001,VS,STUDY001-SUBJ0010,4,BP,Blood Pressure,115/91,mmHg,115/91,,mmHg,,SCREENING,1,2024-10-05,-14
STUDY001,VS,STUDY001-SUBJ0010,5,HR,Heart Rate,69,beats/min,69,69.0,beats/min,,SCREENING,1,2024-10-05,-14
STUDY001,VS,STUDY001-SUBJ0010,6,HEIGHT,Height,159.5,cm,159.5,159.5,cm,Y,BASELINE,2,2024-10-19,1
STUDY001,VS,STUDY001-SUBJ0010,7,WEIGHT,Weight,101.1,kg,101.1,101.1,kg,Y,BASELINE,2,2024-10-19,1
STUDY001,VS,STUDY001-SUBJ0010,8,TEMP,Temperature,35.9,C,35.9,35.9,C,Y,BASELINE,2,2024-10-19,1
STUDY001,VS,STUDY001-SUBJ0010,9,BP,Blood Pressure,115/93,mmHg,115/93,,mmHg,Y,BASELINE,2,2024-10-19,1
STUDY001,VS,STUDY001-SUBJ0010,10,HR,Heart Rate,66,beats/min,66,66.0,beats/min,Y,BASELINE,2,2024-10-19,1
STUDY001,VS,STUDY001-SUBJ0010,11,HEIGHT,Height,159.4,cm,159.4,159.4,cm,,WEEK 1,3,2024-10-25,7
STUDY001,VS,STUDY001-SUBJ0010,12,WEIGHT,Weight,101.2,kg,101.2,101.2,kg,,WEEK 1,3,2024-10-25,7
STUDY001,VS,STUDY001-SUBJ0010,13,TEMP,Temperature,35.9,C,35.9,35.9,C,,WEEK 1,3,2024-10-25,7
STUDY001,VS,STUDY001-SUBJ0010,14,BP,Blood Pressure,123/94,mmHg,123/94,,mmHg,,WEEK 1,3,2024-10-25,7
STUDY001,VS,STUDY001-SUBJ0010,15,HR,Heart Rate,64,beats/min,64,64.0,beats/min,,WEEK 1,3,2024-10-25,7
STUDY001,VS,STUDY001-SUBJ0010,16,HEIGHT,Height,159.2,cm,159.2,159.2,cm,,WEEK 2,4,2024-11-01,14
STUDY001,VS,STUDY001-SUBJ0010,17,WEIGHT,Weight,102.1,kg,102.1,102.1,kg,,WEEK 2,4,2024-11-01,14
STUDY001,VS,STUDY001-SUBJ0010,18,TEMP,Temperature,36.1,C,36.1,36.1,C,,WEEK 2,4,2024-11-01,14
STUDY001,VS,STUDY001-SUBJ0010,19,BP,Blood Pressure,118/91,mmHg,118/91,,mmHg,,WEEK 2,4,2024-11-01,14
STUDY001,VS,STUDY001-SUBJ0010,20,HR,Heart Rate,69,beats/min,69,69.0,beats/min,,WEEK 2,4,2024-11-01,14
STUDY001,VS,STUDY001-SUBJ0010,21,HEIGHT,Height,159.2,cm,159.2,159.2,cm,,WEEK 4,5,2024-11-15,28
STUDY001,VS,STUDY001-SUBJ0010,22,WEIGHT,Weight,100.7,kg,100.7,100.7,kg,,WEEK 4,5,2024-11-15,28
STUDY001,VS,STUDY001-SUBJ0010,23,TEMP,Temperature,36.1,C,36.1,36.1,C,,WEEK 4,5,2024-11-15,28
STUDY001,VS,STUDY001-SUBJ0010,24,BP,Blood Pressure,114/95,mmHg,114/95,,mmHg,,WEEK 4,5,2024-11-15,28
STUDY001,VS,STUDY001-SUBJ0010,25,HR,Heart Rate,63,beats/min,63,63.0,beats/min,,WEEK 4,5,2024-11-15,28
STUDY001,VS,STUDY001-SUBJ0010,26,HEIGHT,Height,159.4,cm,159.4,159.4,cm,,WEEK 8,6,2024-12-13,56
STUDY001,VS,STUDY001-SUBJ0010,27,WEIGHT,Weight,100.7,kg,100.7,100.7,kg,,WEEK 8,6,2024-12-13,56
STUDY001,VS,STUDY001-SUBJ0010,28,TEMP,Temperature,35.9,C,35.9,35.9,C,,WEEK 8,6,2024-12-13,56
STUDY001,VS,STUDY001-SUBJ0010,29,BP,Blood Pressure,118/96,mmHg,118/96,,mmHg,,WEEK 8,6,2024-12-13,56
STUDY001,VS,STUDY001-SUBJ0010,30,HR,Heart Rate,67,beats/min,67,67.0,beats/min,,WEEK 8,6,2024-12-13,56
STUDY001,VS,STUDY001-SUBJ0010,31,HEIGHT,Height,159.4,cm,159.4,159.4,cm,,WEEK 12,7,2025-01-10,84
STUDY001,VS,STUDY001-SUBJ0010,32,WEIGHT,Weight,101.8,kg,101.8,101.8,kg,,WEEK 12,7,2025-01-10,84
STUDY001,VS,STUDY001-SUBJ0010,33,TEMP,Temperature,35.8,C,35.8,35.8,C,,WEEK 12,7,2025-01-10,84
STUDY001,VS,STUDY001-SUBJ0010,34,BP,Blood Pressure,118/88,mmHg,118/88,,mmHg,,WEEK 12,7,2025-01-10,84
STUDY001,VS,STUDY001-SUBJ0010,35,HR,Heart Rate,68,beats/min,68,68.0,beats/min,,WEEK 12,7,2025-01-10,84
STUDY001,VS,STUDY001-SUBJ0010,36,HEIGHT,Height,159.4,cm,159.4,159.4,cm,,WEEK 16,8,2025-02-07,112
STUDY001,VS,STUDY001-SUBJ0010,37,WEIGHT,Weight,101.9,kg,101.9,101.9,kg,,WEEK 16,8,2025-02-07,112
STUDY001,VS,STUDY001-SUBJ0010,38,TEMP,Temperature,36.2,C,36.2,36.2,C,,WEEK 16,8,2025-02-07,112
STUDY001,VS,STUDY001-SUBJ0010,39,BP,Blood Pressure,120/92,mmHg,120/92,,mmHg,,WEEK 16,8,2025-02-07,112
STUDY001,VS,STUDY001-SUBJ0010,40,HR,Heart Rate,69,beats/min,69,69.0,beats/min,,WEEK 16,8,2025-02-07,112
STUDY001,VS,STUDY001-SUBJ0010,41,HEIGHT,Height,159.4,cm,159.4,159.4,cm,,END OF TREATMENT,9,2025-03-07,140
STUDY001,VS,STUDY001-SUBJ0010,42,WEIGHT,Weight,102.2,kg,102.2,102.2,kg,,END OF TREATMENT,9,2025-03-07,140
STUDY001,VS,STUDY001-SUBJ0010,43,TEMP,Temperature,35.9,C,35.9,35.9,C,,END OF TREATMENT,9,2025-03-07,140
STUDY001,VS,STUDY001-SUBJ0010,44,BP,Blood Pressure,122/92,mmHg,122/92,,mmHg,,END OF TREATMENT,9,2025-03-07,140
STUDY001,VS,STUDY001-SUBJ0010,45,HR,Heart Rate,63,beats/min,63,63.0,beats/min,,END OF TREATMENT,9,2025-03-07,140
