STUDYID,DOMAIN,USUBJID,LBSEQ,LBREFID,LBTESTCD,LBTEST,LBCAT,LBORRES,LBORRESU,LBORNRLO,LBORNRHI,LBSTRESC,LBSTRESN,LBSTRESU,LBSTNRLO,LBSTNRHI,LBNRIND,LBBLFL,VISIT,VISITNUM,LBDTC,LBDY
STUDY001,LB,STUDY001-SUBJ0001,1,L00001,HGB,Hemoglobin,HEMATOLOGY,13.64,g/dL,13.5,17.5,13.64,13.64,g/dL,13.5,17.5,NORMAL,,SCREENING,1,2025-06-27,-14
STUDY001,LB,STUDY001-SUBJ0001,2,L00002,HCT,Hematocrit,HEMATOLOGY,46.3,%,41.0,51.0,46.3,46.3,%,41.0,51.0,NORMAL,,SCREENING,1,2025-06-27,-14
STUDY001,LB,STUDY001-SUBJ0001,3,L00003,WBC,White Blood Cell Count,HEMATOLOGY,8.01,10^9/L,4.5,11.0,8.01,8.01,10^9/L,4.5,11.0,NORMAL,,SCREENING,1,2025-06-27,-14
STUDY001,LB,STUDY001-SUBJ0001,4,L00004,PLT,Platelet Count,HEMATOLOGY,308.42,10^9/L,150.0,450.0,308.42,308.42,10^9/L,150.0,450.0,NORMAL,,SCREENING,1,2025-06-27,-14
STUDY001,LB,STUDY001-SUBJ0001,5,L00005,GLUC,Glucose,CHEMISTRY,84.78,mg/dL,70.0,100.0,84.78,84.78,mg/dL,70.0,100.0,NORMAL,,SCREENING,1,2025-06-27,-14
STUDY001,LB,STUDY001-SUBJ0001,6,L00006,BUN,Blood Urea Nitrogen,CHEMISTRY,13.06,mg/dL,7.0,20.0,13.06,13.06,mg/dL,7.0,20.0,NORMAL,,SCREENING,1,2025-06-27,-14
STUDY001,LB,STUDY001-SUBJ0001,7,L00007,CREAT,Creatinine,CHEMISTRY,0.9,mg/dL,0.6,1.2,0.9,0.9,mg/dL,0.6,1.2,NORMAL,,SCREENING,1,2025-06-27,-14
STUDY001,LB,STUDY001-SUBJ0001,8,L00008,BILI,Total Bilirubin,CHEMISTRY,0.51,mg/dL,0.1,1.2,0.51,0.51,mg/dL,0.1,1.2,NORMAL,,SCREENING,1,2025-06-27,-14
STUDY001,LB,STUDY001-SUBJ0001,9,L00009,ALP,Alkaline Phosphatase,CHEMISTRY,114.96,U/L,44.0,147.0,114.96,114.96,U/L,44.0,147.0,NORMAL,,SCREENING,1,2025-06-27,-14
STUDY001,LB,STUDY001-SUBJ0001,10,L00010,ALT,Alanine Aminotransferase,CHEMISTRY,29.88,U/L,7.0,56.0,29.88,29.88,U/L,7.0,56.0,NORMAL,,SCREENING,1,2025-06-27,-14
STUDY001,LB,STUDY001-SUBJ0001,11,L00011,HGB,Hemoglobin,HEMATOLOGY,13.79,g/dL,13.5,17.5,13.79,13.79,g/dL,13.5,17.5,NORMAL,Y,BASELINE,2,2025-07-11,1
STUDY001,LB,STUDY001-SUBJ0001,12,L00012,HCT,Hematocrit,HEMATOLOGY,46.1,%,41.0,51.0,46.1,46.1,%,41.0,51.0,NORMAL,Y,BASELINE,2,2025-07-11,1
STUDY001,LB,STUDY001-SUBJ0001,13,L00013,WBC,White Blood Cell Count,HEMATOLOGY,7.94,10^9/L,4.5,11.0,7.94,7.94,10^9/L,4.5,11.0,NORMAL,Y,BASELINE,2,2025-07-11,1
STUDY001,LB,STUDY001-SUBJ0001,14,L00014,PLT,Platelet Count,HEMATOLOGY,300.85,10^9/L,150.0,450.0,300.85,300.85,10^9/L,150.0,450.0,NORMAL,Y,BASELINE,2,2025-07-11,1
STUDY001,LB,STUDY001-SUBJ0001,15,L00015,GLUC,Glucose,CHEMISTRY,85.6,mg/dL,70.0,100.0,85.6,85.6,mg/dL,70.0,100.0,NORMAL,Y,BASELINE,2,2025-07-11,1
STUDY001,LB,STUDY001-SUBJ0001,16,L00016,BUN,Blood Urea Nitrogen,CHEMISTRY,12.89,mg/dL,7.0,20.0,12.89,12.89,mg/dL,7.0,20.0,NORMAL,Y,BASELINE,2,2025-07-11,1
STUDY001,LB,STUDY001-SUBJ0001,17,L00017,CREAT,Creatinine,CHEMISTRY,0.9,mg/dL,0.6,1.2,0.9,0.9,mg/dL,0.6,1.2,NORMAL,Y,BASELINE,2,2025-07-11,1
STUDY001,LB,STUDY001-SUBJ0001,18,L00018,BILI,Total Bilirubin,CHEMISTRY,0.46,mg/dL,0.1,1.2,0.46,0.46,mg/dL,0.1,1.2,NORMAL,Y,BASELINE,2,2025-07-11,1
STUDY001,LB,STUDY001-SUBJ0001,19,L00019,ALP,Alkaline Phosphatase,CHEMISTRY,113.37,U/L,44.0,147.0,113.37,113.37,U/L,44.0,147.0,NORMAL,Y,BASELINE,2,2025-07-11,1
STUDY001,LB,STUDY001-SUBJ0001,20,L00020,ALT,Alanine Aminotransferase,CHEMISTRY,31.82,U/L,7.0,56.0,31.82,31.82,U/L,7.0,56.0,NORMAL,Y,BASELINE,2,2025-07-11,1
STUDY001,LB,STUDY001-SUBJ0001,21,L00021,HGB,Hemoglobin,HEMATOLOGY,13.75,g/dL,13.5,17.5,13.75,13.75,g/dL,13.5,17.5,NORMAL,,WEEK 1,3,2025-07-17,7
STUDY001,LB,STUDY001-SUBJ0001,22,L00022,HCT,Hematocrit,HEMATOLOGY,45.83,%,41.0,51.0,45.83,45.83,%,41.0,51.0,NORMAL,,WEEK 1,3,2025-07-17,7
STUDY001,LB,STUDY001-SUBJ0001,23,L00023,WBC,White Blood Cell Count,HEMATOLOGY,8.04,10^9/L,4.5,11.0,8.04,8.04,10^9/L,4.5,11.0,NORMAL,,WEEK 1,3,2025-07-17,7
STUDY001,LB,STUDY001-SUBJ0001,24,L00024,PLT,Platelet Count,HEMATOLOGY,306.81,10^9/L,150.0,450.0,306.81,306.81,10^9/L,150.0,450.0,NORMAL,,WEEK 1,3,2025-07-17,7
STUDY001,LB,STUDY001-SUBJ0001,25,L00025,GLUC,Glucose,CHEMISTRY,84.42,mg/dL,70.0,100.0,84.42,84.42,mg/dL,70.0,100.0,NORMAL,,WEEK 1,3,2025-07-17,7
STUDY001,LB,STUDY001-SUBJ0001,26,L00026,BUN,Blood Urea Nitrogen,CHEMISTRY,13.45,mg/dL,7.0,20.0,13.45,13.45,mg/dL,7.0,20.0,NORMAL,,WEEK 1,3,2025-07-17,7
STUDY001,LB,STUDY001-SUBJ0001,27,L00027,CREAT,Creatinine,CHEMISTRY,0.91,mg/dL,0.6,1.2,0.91,0.91,mg/dL,0.6,1.2,NORMAL,,WEEK 1,3,2025-07-17,7
STUDY001,LB,STUDY001-SUBJ0001,28,L00028,BILI,Total Bilirubin,CHEMISTRY,0.52,mg/dL,0.1,1.2,0.52,0.52,mg/dL,0.1,1.2,NORMAL,,WEEK 1,3,2025-07-17,7
STUDY001,LB,STUDY001-SUBJ0001,29,L00029,ALP,Alkaline Phosphatase,CHEMISTRY,115.1,U/L,44.0,147.0,115.1,115.1,U/L,44.0,147.0,NORMAL,,WEEK 1,3,2025-07-17,7
STUDY001,LB,STUDY001-SUBJ0001,30,L00030,ALT,Alanine Aminotransferase,CHEMISTRY,30.31,U/L,7.0,56.0,30.31,30.31,U/L,7.0,56.0,NORMAL,,WEEK 1,3,2025-07-17,7
STUDY001,LB,STUDY001-SUBJ0001,31,L00031,HGB,Hemoglobin,HEMATOLOGY,13.87,g/dL,13.5,17.5,13.87,13.87,g/dL,13.5,17.5,NORMAL,,WEEK 2,4,2025-07-24,14
STUDY001,LB,STUDY001-SUBJ0001,32,L00032,HCT,Hematocrit,HEMATOLOGY,45.96,%,41.0,51.0,45.96,45.96,%,41.0,51.0,NORMAL,,WEEK 2,4,2025-07-24,14
STUDY001,LB,STUDY001-SUBJ0001,33,L00033,WBC,White Blood Cell Count,HEMATOLOGY,7.83,10^9/L,4.5,11.0,7.83,7.83,10^9/L,4.5,11.0,NORMAL,,WEEK 2,4,2025-07-24,14
STUDY001,LB,STUDY001-SUBJ0001,34,L00034,PLT,Platelet Count,HEMATOLOGY,302.69,10^9/L,150.0,450.0,302.69,302.69,10^9/L,150.0,450.0,NORMAL,,WEEK 2,4,2025-07-24,14
STUDY001,LB,STUDY001-SUBJ0001,35,L00035,GLUC,Glucose,CHEMISTRY,83.09,mg/dL,70.0,100.0,83.09,83.09,mg/dL,70.0,100.0,NORMAL,,WEEK 2,4,2025-07-24,14
STUDY001,LB,STUDY001-SUBJ0001,36,L00036,BUN,Blood Urea Nitrogen,CHEMISTRY,13.28,mg/dL,7.0,20.0,13.28,13.28,mg/dL,7.0,20.0,NORMAL,,WEEK 2,4,2025-07-24,14
STUDY001,LB,STUDY001-SUBJ0001,37,L00037,CREAT,Creatinine,CHEMISTRY,0.89,mg/dL,0.6,1.2,0.89,0.89,mg/dL,0.6,1.2,NORMAL,,WEEK 2,4,2025-07-24,14
STUDY001,LB,STUDY001-SUBJ0001,38,L00038,BILI,Total Bilirubin,CHEMISTRY,0.55,mg/dL,0.1,1.2,0.55,0.55,mg/dL,0.1,1.2,NORMAL,,WEEK 2,4,2025-07-24,14
STUDY001,LB,STUDY001-SUBJ0001,39,L00039,ALP,Alkaline Phosphatase,CHEMISTRY,116.79,U/L,44.0,147.0,116.79,116.79,U/L,44.0,147.0,NORMAL,,WEEK 2,4,2025-07-24,14
STUDY001,LB,STUDY001-SUBJ0001,40,L00040,ALT,Alanine Aminotransferase,CHEMISTRY,30.07,U/L,7.0,56.0,30.07,30.07,U/L,7.0,56.0,NORMAL,,WEEK 2,4,2025-07-24,14
STUDY001,LB,STUDY001-SUBJ0001,41,L00041,HGB,Hemoglobin,HEMATOLOGY,13.87,g/dL,13.5,17.5,13.87,13.87,g/dL,13.5,17.5,NORMAL,,WEEK 4,5,2025-08-07,28
STUDY001,LB,STUDY001-SUBJ0001,42,L00042,HCT,Hematocrit,HEMATOLOGY,46.0,%,41.0,51.0,46.0,46.0,%,41.0,51.0,NORMAL,,WEEK 4,5,2025-08-07,28
STUDY001,LB,STUDY001-SUBJ0001,43,L00043,WBC,White Blood Cell Count,HEMATOLOGY,7.81,10^9/L,4.5,11.0,7.81,7.81,10^9/L,4.5,11.0,NORMAL,,WEEK 4,5,2025-08-07,28
STUDY001,LB,STUDY001-SUBJ0001,44,L00044,PLT,Platelet Count,HEMATOLOGY,296.41,10^9/L,150.0,450.0,296.41,296.41,10^9/L,150.0,450.0,NORMAL,,WEEK 4,5,2025-08-07,28
STUDY001,LB,STUDY001-SUBJ0001,45,L00045,GLUC,Glucose,CHEMISTRY,85.05,mg/dL,70.0,100.0,85.05,85.05,mg/dL,70.0,100.0,NORMAL,,WEEK 4,5,2025-08-07,28
STUDY001,LB,STUDY001-SUBJ0001,46,L00046,BUN,Blood Urea Nitrogen,CHEMISTRY,13.01,mg/dL,7.0,20.0,13.01,13.01,mg/dL,7.0,20.0,NORMAL,,WEEK 4,5,2025-08-07,28
STUDY001,LB,STUDY001-SUBJ0001,47,L00047,CREAT,Creatinine,CHEMISTRY,0.89,mg/dL,0.6,1.2,0.89,0.89,mg/dL,0.6,1.2,NORMAL,,WEEK 4,5,2025-08-07,28
STUDY001,LB,STUDY001-SUBJ0001,48,L00048,BILI,Total Bilirubin,CHEMISTRY,0.51,mg/dL,0.1,1.2,0.51,0.51,mg/dL,0.1,1.2,NORMAL,,WEEK 4,5,2025-08-07,28
STUDY001,LB,STUDY001-SUBJ0001,49,L00049,ALP,Alkaline Phosphatase,CHEMISTRY,112.85,U/L,44.0,147.0,112.85,112.85,U/L,44.0,147.0,NORMAL,,WEEK 4,5,2025-08-07,28
STUDY001,LB,STUDY001-SUBJ0001,50,L00050,ALT,Alanine Aminotransferase,CHEMISTRY,30.71,U/L,7.0,56.0,30.71,30.71,U/L,7.0,56.0,NORMAL,,WEEK 4,5,2025-08-07,28
STUDY001,LB,STUDY001-SUBJ0001,51,L00051,HGB,Hemoglobin,HEMATOLOGY,13.68,g/dL,13.5,17.5,13.68,13.68,g/dL,13.5,17.5,NORMAL,,WEEK 8,6,2025-09-04,56
STUDY001,LB,STUDY001-SUBJ0001,52,L00052,HCT,Hematocrit,HEMATOLOGY,45.91,%,41.0,51.0,45.91,45.91,%,41.0,51.0,NORMAL,,WEEK 8,6,2025-09-04,56
STUDY001,LB,STUDY001-SUBJ0001,53,L00053,WBC,White Blood Cell Count,HEMATOLOGY,8.19,10^9/L,4.5,11.0,8.19,8.19,10^9/L,4.5,11.0,NORMAL,,WEEK 8,6,2025-09-04,56
STUDY001,LB,STUDY001-SUBJ0001,54,L00054,PLT,Platelet Count,HEMATOLOGY,294.32,10^9/L,150.0,450.0,294.32,294.32,10^9/L,150.0,450.0,NORMAL,,WEEK 8,6,2025-09-04,56
STUDY001,LB,STUDY001-SUBJ0001,55,L00055,GLUC,Glucose,CHEMISTRY,84.91,mg/dL,70.0,100.0,84.91,84.91,mg/dL,70.0,100.0,NORMAL,,WEEK 8,6,2025-09-04,56
STUDY001,LB,STUDY001-SUBJ0001,56,L00056,BUN,Blood Urea Nitrogen,CHEMISTRY,13.29,mg/dL,7.0,20.0,13.29,13.29,mg/dL,7.0,20.0,NORMAL,,WEEK 8,6,2025-09-04,56
STUDY001,LB,STUDY001-SUBJ0001,57,L00057,CREAT,Creatinine,CHEMISTRY,0.88,mg/dL,0.6,1.2,0.88,0.88,mg/dL,0.6,1.2,NORMAL,,WEEK 8,6,2025-09-04,56
STUDY001,LB,STUDY001-SUBJ0001,58,L00058,BILI,Total Bilirubin,CHEMISTRY,0.5,mg/dL,0.1,1.2,0.5,0.5,mg/dL,0.1,1.2,NORMAL,,WEEK 8,6,2025-09-04,56
STUDY001,LB,STUDY001-SUBJ0001,59,L00059,ALP,Alkaline Phosphatase,CHEMISTRY,112.53,U/L,44.0,147.0,112.53,112.53,U/L,44.0,147.0,NORMAL,,WEEK 8,6,2025-09-04,56
STUDY001,LB,STUDY001-SUBJ0001,60,L00060,ALT,Alanine Aminotransferase,CHEMISTRY,29.67,U/L,7.0,56.0,29.67,29.67,U/L,7.0,56.0,NORMAL,,WEEK 8,6,2025-09-04,56
STUDY001,LB,STUDY001-SUBJ0001,61,L00061,HGB,Hemoglobin,HEMATOLOGY,13.6,g/dL,13.5,17.5,13.6,13.6,g/dL,13.5,17.5,NORMAL,,WEEK 12,7,2025-10-02,84
STUDY001,LB,STUDY001-SUBJ0001,62,L00062,HCT,Hematocrit,HEMATOLOGY,45.95,%,41.0,51.0,45.95,45.95,%,41.0,51.0,NORMAL,,WEEK 12,7,2025-10-02,84
STUDY001,LB,STUDY001-SUBJ0001,63,L00063,WBC,White Blood Cell Count,HEMATOLOGY,7.88,10^9/L,4.5,11.0,7.88,7.88,10^9/L,4.5,11.0,NORMAL,,WEEK 12,7,2025-10-02,84
STUDY001,LB,STUDY001-SUBJ0001,64,L00064,PLT,Platelet Count,HEMATOLOGY,298.04,10^9/L,150.0,450.0,298.04,298.04,10^9/L,150.0,450.0,NORMAL,,WEEK 12,7,2025-10-02,84
STUDY001,LB,STUDY001-SUBJ0001,65,L00065,GLUC,Glucose,CHEMISTRY,84.24,mg/dL,70.0,100.0,84.24,84.24,mg/dL,70.0,100.0,NORMAL,,WEEK 12,7,2025-10-02,84
STUDY001,LB,STUDY001-SUBJ0001,66,L00066,BUN,Blood Urea Nitrogen,CHEMISTRY,12.65,mg/dL,7.0,20.0,12.65,12.65,mg/dL,7.0,20.0,NORMAL,,WEEK 12,7,2025-10-02,84
STUDY001,LB,STUDY001-SUBJ0001,67,L00067,CREAT,Creatinine,CHEMISTRY,0.89,mg/dL,0.6,1.2,0.89,0.89,mg/dL,0.6,1.2,NORMAL,,WEEK 12,7,2025-10-02,84
STUDY001,LB,STUDY001-SUBJ0001,68,L00068,BILI,Total Bilirubin,CHEMISTRY,0.52,mg/dL,0.1,1.2,0.52,0.52,mg/dL,0.1,1.2,NORMAL,,WEEK 12,7,2025-10-02,84
STUDY001,LB,STUDY001-SUBJ0001,69,L00069,ALP,Alkaline Phosphatase,CHEMISTRY,116.26,U/L,44.0,147.0,116.26,116.26,U/L,44.0,147.0,NORMAL,,WEEK 12,7,2025-10-02,84
STUDY001,LB,STUDY001-SUBJ0001,70,L00070,ALT,Alanine Aminotransferase,CHEMISTRY,30.34,U/L,7.0,56.0,30.34,30.34,U/L,7.0,56.0,NORMAL,,WEEK 12,7,2025-10-02,84
STUDY001,LB,STUDY001-SUBJ0001,71,L00071,HGB,Hemoglobin,HEMATOLOGY,13.79,g/dL,13.5,17.5,13.79,13.79,g/dL,13.5,17.5,NORMAL,,WEEK 16,8,2025-10-30,112
STUDY001,LB,STUDY001-SUBJ0001,72,L00072,HCT,Hematocrit,HEMATOLOGY,45.75,%,41.0,51.0,45.75,45.75,%,41.0,51.0,NORMAL,,WEEK 16,8,2025-10-30,112
STUDY001,LB,STUDY001-SUBJ0001,73,L00073,WBC,White Blood Cell Count,HEMATOLOGY,7.89,10^9/L,4.5,11.0,7.89,7.89,10^9/L,4.5,11.0,NORMAL,,WEEK 16,8,2025-10-30,112
STUDY001,LB,STUDY001-SUBJ0001,74,L00074,PLT,Platelet Count,HEMATOLOGY,308.11,10^9/L,150.0,450.0,308.11,308.11,10^9/L,150.0,450.0,NORMAL,,WEEK 16,8,2025-10-30,112
STUDY001,LB,STUDY001-SUBJ0001,75,L00075,GLUC,Glucose,CHEMISTRY,88.41,mg/dL,70.0,100.0,88.41,88.41,mg/dL,70.0,100.0,NORMAL,,WEEK 16,8,2025-10-30,112
STUDY001,LB,STUDY001-SUBJ0001,76,L00076,BUN,Blood Urea Nitrogen,CHEMISTRY,13.41,mg/dL,7.0,20.0,13.41,13.41,mg/dL,7.0,20.0,NORMAL,,WEEK 16,8,2025-10-30,112
STUDY001,LB,STUDY001-SUBJ0001,77,L00077,CREAT,Creatinine,CHEMISTRY,0.91,mg/dL,0.6,1.2,0.91,0.91,mg/dL,0.6,1.2,NORMAL,,WEEK 16,8,2025-10-30,112
STUDY001,LB,STUDY001-SUBJ0001,78,L00078,BILI,Total Bilirubin,CHEMISTRY,0.5,mg/dL,0.1,1.2,0.5,0.5,mg/dL,0.1,1.2,NORMAL,,WEEK 16,8,2025-10-30,112
STUDY001,LB,STUDY001-SUBJ0001,79,L00079,ALP,Alkaline Phosphatase,CHEMISTRY,113.4,U/L,44.0,147.0,113.4,113.4,U/L,44.0,147.0,NORMAL,,WEEK 16,8,2025-10-30,112
STUDY001,LB,STUDY001-SUBJ0001,80,L00080,ALT,Alanine Aminotransferase,CHEMISTRY,29.98,U/L,7.0,56.0,29.98,29.98,U/L,7.0,56.0,NORMAL,,WEEK 16,8,2025-10-30,112
STUDY001,LB,STUDY001-SUBJ0001,81,L00081,HGB,Hemoglobin,HEMATOLOGY,13.56,g/dL,13.5,17.5,13.56,13.56,g/dL,13.5,17.5,NORMAL,,END OF TREATMENT,9,2025-11-27,140
STUDY001,LB,STUDY001-SUBJ0001,82,L00082,HCT,Hematocrit,HEMATOLOGY,46.36,%,41.0,51.0,46.36,46.36,%,41.0,51.0,NORMAL,,END OF TREATMENT,9,2025-11-27,140
STUDY001,LB,STUDY001-SUBJ0001,83,L00083,WBC,White Blood Cell Count,HEMATOLOGY,7.81,10^9/L,4.5,11.0,7.81,7.81,10^9/L,4.5,11.0,NORMAL,,END OF TREATMENT,9,2025-11-27,140
STUDY001,LB,STUDY001-SUBJ0001,84,L00084,PLT,Platelet Count,HEMATOLOGY,300.14,10^9/L,150.0,450.0,300.14,300.14,10^9/L,150.0,450.0,NORMAL,,END OF TREATMENT,9,2025-11-27,140
STUDY001,LB,STUDY001-SUBJ0001,85,L00085,GLUC,Glucose,CHEMISTRY,86.26,mg/dL,70.0,100.0,86.26,86.26,mg/dL,70.0,100.0,NORMAL,,END OF TREATMENT,9,2025-11-27,140
STUDY001,LB,STUDY001-SUBJ0001,86,L00086,BUN,Blood Urea Nitrogen,CHEMISTRY,13.3,mg/dL,7.0,20.0,13.3,13.3,mg/dL,7.0,20.0,NORMAL,,END OF TREATMENT,9,2025-11-27,140
STUDY001,LB,STUDY001-SUBJ0001,87,L00087,CREAT,Creatinine,CHEMISTRY,0.89,mg/dL,0.6,1.2,0.89,0.89,mg/dL,0.6,1.2,NORMAL,,END OF TREATMENT,9,2025-11-27,140
STUDY001,LB,STUDY001-SUBJ0001,88,L00088,BILI,Total Bilirubin,CHEMISTRY,0.48,mg/dL,0.1,1.2,0.48,0.48,mg/dL,0.1,1.2,NORMAL,,END OF TREATMENT,9,2025-11-27,140
STUDY001,LB,STUDY001-SUBJ0001,89,L00089,ALP,Alkaline Phosphatase,CHEMISTRY,114.99,U/L,44.0,147.0,114.99,114.99,U/L,44.0,147.0,NORMAL,,END OF TREATMENT,9,2025-11-27,140
STUDY001,LB,STUDY001-SUBJ0001,90,L00090,ALT,Alanine Aminotransferase,CHEMISTRY,30.49,U/L,7.0,56.0,30.49,30.49,U/L,7.0,56.0,NORMAL,,END OF TREATMENT,9,2025-11-27,140
STUDY001,LB,STUDY001-SUBJ0002,1,L00001,HGB,Hemoglobin,HEMATOLOGY,13.59,g/dL,13.5,17.5,13.59,13.59,g/dL,13.5,17.5,NORMAL,,SCREENING,1,2025-01-10,-14
STUDY001,LB,STUDY001-SUBJ0002,2,L00002,HCT,Hematocrit,HEMATOLOGY,43.06,%,41.0,51.0,43.06,43.06,%,41.0,51.0,NORMAL,,SCREENING,1,2025-01-10,-14
STUDY001,LB,STUDY001-SUBJ0002,3,L00003,WBC,White Blood Cell Count,HEMATOLOGY,7.88,10^9/L,4.5,11.0,7.88,7.88,10^9/L,4.5,11.0,NORMAL,,SCREENING,1,2025-01-10,-14
STUDY001,LB,STUDY001-SUBJ0002,4,L00004,PLT,Platelet Count,HEMATOLOGY,240.24,10^9/L,150.0,450.0,240.24,240.24,10^9/L,150.0,450.0,NORMAL,,SCREENING,1,2025-01-10,-14
STUDY001,LB,STUDY001-SUBJ0002,5,L00005,GLUC,Glucose,CHEMISTRY,81.77,mg/dL,70.0,100.0,81.77,81.77,mg/dL,70.0,100.0,NORMAL,,SCREENING,1,2025-01-10,-14
STUDY001,LB,STUDY001-SUBJ0002,6,L00006,BUN,Blood Urea Nitrogen,CHEMISTRY,14.02,mg/dL,7.0,20.0,14.02,14.02,mg/dL,7.0,20.0,NORMAL,,SCREENING,1,2025-01-10,-14
STUDY001,LB,STUDY001-SUBJ0002,7,L00007,CREAT,Creatinine,CHEMISTRY,1.26,mg/dL,0.6,1.2,1.26,1.26,mg/dL,0.6,1.2,HIGH,,SCREENING,1,2025-01-10,-14
STUDY001,LB,STUDY001-SUBJ0002,8,L00008,BILI,Total Bilirubin,CHEMISTRY,0.84,mg/dL,0.1,1.2,0.84,0.84,mg/dL,0.1,1.2,NORMAL,,SCREENING,1,2025-01-10,-14
STUDY001,LB,STUDY001-SUBJ0002,9,L00009,ALP,Alkaline Phosphatase,CHEMISTRY,98.99,U/L,44.0,147.0,98.99,98.99,U/L,44.0,147.0,NORMAL,,SCREENING,1,2025-01-10,-14
STUDY001,LB,STUDY001-SUBJ0002,10,L00010,ALT,Alanine Aminotransferase,CHEMISTRY,13.84,U/L,7.0,56.0,13.84,13.84,U/L,7.0,56.0,NORMAL,,SCREENING,1,2025-01-10,-14
STUDY001,LB,STUDY001-SUBJ0002,11,L00011,HGB,Hemoglobin,HEMATOLOGY,13.6,g/dL,13.5,17.5,13.6,13.6,g/dL,13.5,17.5,NORMAL,Y,BASELINE,2,2025-01-24,1
STUDY001,LB,STUDY001-SUBJ0002,12,L00012,HCT,Hematocrit,HEMATOLOGY,43.24,%,41.0,51.0,43.24,43.24,%,41.0,51.0,NORMAL,Y,BASELINE,2,2025-01-24,1
STUDY001,LB,STUDY001-SUBJ0002,13,L00013,WBC,White Blood Cell Count,HEMATOLOGY,7.81,10^9/L,4.5,11.0,7.81,7.81,10^9/L,4.5,11.0,NORMAL,Y,BASELINE,2,2025-01-24,1
STUDY001,LB,STUDY001-SUBJ0002,14,L00014,PLT,Platelet Count,HEMATOLOGY,243.12,10^9/L,150.0,450.0,243.12,243.12,10^9/L,150.0,450.0,NORMAL,Y,BASELINE,2,2025-01-24,1
STUDY001,LB,STUDY001-SUBJ0002,15,L00015,GLUC,Glucose,CHEMISTRY,80.54,mg/dL,70.0,100.0,80.54,80.54,mg/dL,70.0,100.0,NORMAL,Y,BASELINE,2,2025-01-24,1
STUDY001,LB,STUDY001-SUBJ0002,16,L00016,BUN,Blood Urea Nitrogen,CHEMISTRY,13.43,mg/dL,7.0,20.0,13.43,13.43,mg/dL,7.0,20.0,NORMAL,Y,BASELINE,2,2025-01-24,1
STUDY001,LB,STUDY001-SUBJ0002,17,L00017,CREAT,Creatinine,CHEMISTRY,1.3,mg/dL,0.6,1.2,1.3,1.3,mg/dL,0.6,1.2,HIGH,Y,BASELINE,2,2025-01-24,1
STUDY001,LB,STUDY001-SUBJ0002,18,L00018,BILI,Total Bilirubin,CHEMISTRY,0.84,mg/dL,0.1,1.2,0.84,0.84,mg/dL,0.1,1.2,NORMAL,Y,BASELINE,2,2025-01-24,1
STUDY001,LB,STUDY001-SUBJ0002,19,L00019,ALP,Alkaline Phosphatase,CHEMISTRY,98.19,U/L,44.0,147.0,98.19,98.19,U/L,44.0,147.0,NORMAL,Y,BASELINE,2,2025-01-24,1
STUDY001,LB,STUDY001-SUBJ0002,20,L00020,ALT,Alanine Aminotransferase,CHEMISTRY,13.97,U/L,7.0,56.0,13.97,13.97,U/L,7.0,56.0,NORMAL,Y,BASELINE,2,2025-01-24,1
STUDY001,LB,STUDY001-SUBJ0002,21,L00021,HGB,Hemoglobin,HEMATOLOGY,13.61,g/dL,13.5,17.5,13.61,13.61,g/dL,13.5,17.5,NORMAL,,WEEK 1,3,2025-01-30,7
STUDY001,LB,STUDY001-SUBJ0002,22,L00022,HCT,Hematocrit,HEMATOLOGY,43.0,%,41.0,51.0,43.0,43.0,%,41.0,51.0,NORMAL,,WEEK 1,3,2025-01-30,7
STUDY001,LB,STUDY001-SUBJ0002,23,L00023,WBC,White Blood Cell Count,HEMATOLOGY,7.98,10^9/L,4.5,11.0,7.98,7.98,10^9/L,4.5,11.0,NORMAL,,WEEK 1,3,2025-01-30,7
STUDY001,LB,STUDY001-SUBJ0002,24,L00024,PLT,Platelet Count,HEMATOLOGY,241.61,10^9/L,150.0,450.0,241.61,241.61,10^9/L,150.0,450.0,NORMAL,,WEEK 1,3,2025-01-30,7
STUDY001,LB,STUDY001-SUBJ0002,25,L00025,GLUC,Glucose,CHEMISTRY,80.86,mg/dL,70.0,100.0,80.86,80.86,mg/dL,70.0,100.0,NORMAL,,WEEK 1,3,2025-01-30,7
STUDY001,LB,STUDY001-SUBJ0002,26,L00026,BUN,Blood Urea Nitrogen,CHEMISTRY,13.89,mg/dL,7.0,20.0,13.89,13.89,mg/dL,7.0,20.0,NORMAL,,WEEK 1,3,2025-01-30,7
STUDY001,LB,STUDY001-SUBJ0002,27,L00027,CREAT,Creatinine,CHEMISTRY,1.3,mg/dL,0.6,1.2,1.3,1.3,mg/dL,0.6,1.2,HIGH,,WEEK 1,3,2025-01-30,7
STUDY001,LB,STUDY001-SUBJ0002,28,L00028,BILI,Total Bilirubin,CHEMISTRY,0.82,mg/dL,0.1,1.2,0.82,0.82,mg/dL,0.1,1.2,NORMAL,,WEEK 1,3,2025-01-30,7
STUDY001,LB,STUDY001-SUBJ0002,29,L00029,ALP,Alkaline Phosphatase,CHEMISTRY,95.82,U/L,44.0,147.0,95.82,95.82,U/L,44.0,147.0,NORMAL,,WEEK 1,3,2025-01-30,7
STUDY001,LB,STUDY001-SUBJ0002,30,L00030,ALT,Alanine Aminotransferase,CHEMISTRY,14.5,U/L,7.0,56.0,14.5,14.5,U/L,7.0,56.0,NORMAL,,WEEK 1,3,2025-01-30,7
STUDY001,LB,STUDY001-SUBJ0002,31,L00031,HGB,Hemoglobin,HEMATOLOGY,13.61,g/dL,13.5,17.5,13.61,13.61,g/dL,13.5,17.5,NORMAL,,WEEK 2,4,2025-02-06,14
STUDY001,LB,STUDY001-SUBJ0002,32,L00032,HCT,Hematocrit,HEMATOLOGY,43.27,%,41.0,51.0,43.27,43.27,%,41.0,51.0,NORMAL,,WEEK 2,4,2025-02-06,14
STUDY001,LB,STUDY001-SUBJ0002,33,L00033,WBC,White Blood Cell Count,HEMATOLOGY,7.86,10^9/L,4.5,11.0,7.86,7.86,10^9/L,4.5,11.0,NORMAL,,WEEK 2,4,2025-02-06,14
STUDY001,LB,STUDY001-SUBJ0002,34,L00034,PLT,Platelet Count,HEMATOLOGY,236.08,10^9/L,150.0,450.0,236.08,236.08,10^9/L,150.0,450.0,NORMAL,,WEEK 2,4,2025-02-06,14
STUDY001,LB,STUDY001-SUBJ0002,35,L00035,GLUC,Glucose,CHEMISTRY,80.32,mg/dL,70.0,100.0,80.32,80.32,mg/dL,70.0,100.0,NORMAL,,WEEK 2,4,2025-02-06,14
STUDY001,LB,STUDY001-SUBJ0002,36,L00036,BUN,Blood Urea Nitrogen,CHEMISTRY,14.28,mg/dL,7.0,20.0,14.28,14.28,mg/dL,7.0,20.0,NORMAL,,WEEK 2,4,2025-02-06,14
STUDY001,LB,STUDY001-SUBJ0002,37,L00037,CREAT,Creatinine,CHEMISTRY,1.27,mg/dL,0.6,1.2,1.27,1.27,mg/dL,0.6,1.2,HIGH,,WEEK 2,4,2025-02-06,14
STUDY001,LB,STUDY001-SUBJ0002,38,L00038,BILI,Total Bilirubin,CHEMISTRY,0.81,mg/dL,0.1,1.2,0.81,0.81,mg/dL,0.1,1.2,NORMAL,,WEEK 2,4,2025-02-06,14
STUDY001,LB,STUDY001-SUBJ0002,39,L00039,ALP,Alkaline Phosphatase,CHEMISTRY,94.54,U/L,44.0,147.0,94.54,94.54,U/L,44.0,147.0,NORMAL,,WEEK 2,4,2025-02-06,14
STUDY001,LB,STUDY001-SUBJ0002,40,L00040,ALT,Alanine Aminotransferase,CHEMISTRY,11.51,U/L,7.0,56.0,11.51,11.51,U/L,7.0,56.0,NORMAL,,WEEK 2,4,2025-02-06,14
STUDY001,LB,STUDY001-SUBJ0002,41,L00041,HGB,Hemoglobin,HEMATOLOGY,13.68,g/dL,13.5,17.5,13.68,13.68,g/dL,13.5,17.5,NORMAL,,WEEK 4,5,2025-02-20,28
STUDY001,LB,STUDY001-SUBJ0002,42,L00042,HCT,Hematocrit,HEMATOLOGY,42.96,%,41.0,51.0,42.96,42.96,%,41.0,51.0,NORMAL,,WEEK 4,5,2025-02-20,28
STUDY001,LB,STUDY001-SUBJ0002,43,L00043,WBC,White Blood Cell Count,HEMATOLOGY,7.93,10^9/L,4.5,11.0,7.93,7.93,10^9/L,4.5,11.0,NORMAL,,WEEK 4,5,2025-02-20,28
STUDY001,LB,STUDY001-SUBJ0002,44,L00044,PLT,Platelet Count,HEMATOLOGY,245.41,10^9/L,150.0,450.0,245.41,245.41,10^9/L,150.0,450.0,NORMAL,,WEEK 4,5,2025-02-20,28
STUDY001,LB,STUDY001-SUBJ0002,45,L00045,GLUC,Glucose,CHEMISTRY,79.59,mg/dL,70.0,100.0,79.59,79.59,mg/dL,70.0,100.0,NORMAL,,WEEK 4,5,2025-02-20,28
STUDY001,LB,STUDY001-SUBJ0002,46,L00046,BUN,Blood Urea Nitrogen,CHEMISTRY,13.93,mg/dL,7.0,20.0,13.93,13.93,mg/dL,7.0,20.0,NORMAL,,WEEK 4,5,2025-02-20,28
STUDY001,LB,STUDY001-SUBJ0002,47,L00047,CREAT,Creatinine,CHEMISTRY,1.26,mg/dL,0.6,1.2,1.26,1.26,mg/dL,0.6,1.2,HIGH,,WEEK 4,5,2025-02-20,28
STUDY001,LB,STUDY001-SUBJ0002,48,L00048,BILI,Total Bilirubin,CHEMISTRY,0.83,mg/dL,0.1,1.2,0.83,0.83,mg/dL,0.1,1.2,NORMAL,,WEEK 4,5,2025-02-20,28
STUDY001,LB,STUDY001-SUBJ0002,49,L00049,ALP,Alkaline Phosphatase,CHEMISTRY,96.35,U/L,44.0,147.0,96.35,96.35,U/L,44.0,147.0,NORMAL,,WEEK 4,5,2025-02-20,28
STUDY001,LB,STUDY001-SUBJ0002,50,L00050,ALT,Alanine Aminotransferase,CHEMISTRY,13.94,U/L,7.0,56.0,13.94,13.94,U/L,7.0,56.0,NORMAL,,WEEK 4,5,2025-02-20,28
STUDY001,LB,STUDY001-SUBJ0002,51,L00051,HGB,Hemoglobin,HEMATOLOGY,13.41,g/dL,13.5,17.5,13.41,13.41,g/dL,13.5,17.5,LOW,,WEEK 8,6,2025-03-20,56
STUDY001,LB,STUDY001-SUBJ0002,52,L00052,HCT,Hematocrit,HEMATOLOGY,43.08,%,41.0,51.0,43.08,43.08,%,41.0,51.0,NORMAL,,WEEK 8,6,2025-03-20,56
STUDY001,LB,STUDY001-SUBJ0002,53,L00053,WBC,White Blood Cell Count,HEMATOLOGY,7.98,10^9/L,4.5,11.0,7.98,7.98,10^9/L,4.5,11.0,NORMAL,,WEEK 8,6,2025-03-20,56
STUDY001,LB,STUDY001-SUBJ0002,54,L00054,PLT,Platelet Count,HEMATOLOGY,235.69,10^9/L,150.0,450.0,235.69,235.69,10^9/L,150.0,450.0,NORMAL,,WEEK 8,6,2025-03-20,56
STUDY001,LB,STUDY001-SUBJ0002,55,L00055,GLUC,Glucose,CHEMISTRY,82.35,mg/dL,70.0,100.0,82.35,82.35,mg/dL,70.0,100.0,NORMAL,,WEEK 8,6,2025-03-20,56
STUDY001,LB,STUDY001-SUBJ0002,56,L00056,BUN,Blood Urea Nitrogen,CHEMISTRY,14.19,mg/dL,7.0,20.0,14.19,14.19,mg/dL,7.0,20.0,NORMAL,,WEEK 8,6,2025-03-20,56
STUDY001,LB,STUDY001-SUBJ0002,57,L00057,CREAT,Creatinine,CHEMISTRY,1.29,mg/dL,0.6,1.2,1.29,1.29,mg/dL,0.6,1.2,HIGH,,WEEK 8,6,2025-03-20,56
STUDY001,LB,STUDY001-SUBJ0002,58,L00058,BILI,Total Bilirubin,CHEMISTRY,0.82,mg/dL,0.1,1.2,0.82,0.82,mg/dL,0.1,1.2,NORMAL,,WEEK 8,6,2025-03-20,56
STUDY001,LB,STUDY001-SUBJ0002,59,L00059,ALP,Alkaline Phosphatase,CHEMISTRY,96.05,U/L,44.0,147.0,96.05,96.05,U/L,44.0,147.0,NORMAL,,WEEK 8,6,2025-03-20,56
STUDY001,LB,STUDY001-SUBJ0002,60,L00060,ALT,Alanine Aminotransferase,CHEMISTRY,14.19,U/L,7.0,56.0,14.19,14.19,U/L,7.0,56.0,NORMAL,,WEEK 8,6,2025-03-20,56
STUDY001,LB,STUDY001-SUBJ0002,61,L00061,HGB,Hemoglobin,HEMATOLOGY,13.6,g/dL,13.5,17.5,13.6,13.6,g/dL,13.5,17.5,NORMAL,,WEEK 12,7,2025-04-17,84
STUDY001,LB,STUDY001-SUBJ0002,62,L00062,HCT,Hematocrit,HEMATOLOGY,43.0,%,41.0,51.0,43.0,43.0,%,41.0,51.0,NORMAL,,WEEK 12,7,2025-04-17,84
STUDY001,LB,STUDY001-SUBJ0002,63,L00063,WBC,White Blood Cell Count,HEMATOLOGY,7.7,10^9/L,4.5,11.0,7.7,7.7,10^9/L,4.5,11.0,NORMAL,,WEEK 12,7,2025-04-17,84
STUDY001,LB,STUDY001-SUBJ0002,64,L00064,PLT,Platelet Count,HEMATOLOGY,247.84,10^9/L,150.0,450.0,247.84,247.84,10^9/L,150.0,450.0,NORMAL,,WEEK 12,7,2025-04-17,84
STUDY001,LB,STUDY001-SUBJ0002,65,L00065,GLUC,Glucose,CHEMISTRY,81.05,mg/dL,70.0,100.0,81.05,81.05,mg/dL,70.0,100.0,NORMAL,,WEEK 12,7,2025-04-17,84
STUDY001,LB,STUDY001-SUBJ0002,66,L00066,BUN,Blood Urea Nitrogen,CHEMISTRY,13.63,mg/dL,7.0,20.0,13.63,13.63,mg/dL,7.0,20.0,NORMAL,,WEEK 12,7,2025-04-17,84
STUDY001,LB,STUDY001-SUBJ0002,67,L00067,CREAT,Creatinine,CHEMISTRY,1.27,mg/dL,0.6,1.2,1.27,1.27,mg/dL,0.6,1.2,HIGH,,WEEK 12,7,2025-04-17,84
STUDY001,LB,STUDY001-SUBJ0002,68,L00068,BILI,Total Bilirubin,CHEMISTRY,0.83,mg/dL,0.1,1.2,0.83,0.83,mg/dL,0.1,1.2,NORMAL,,WEEK 12,7,2025-04-17,84
STUDY001,LB,STUDY001-SUBJ0002,69,L00069,ALP,Alkaline Phosphatase,CHEMISTRY,97.73,U/L,44.0,147.0,97.73,97.73,U/L,44.0,147.0,NORMAL,,WEEK 12,7,2025-04-17,84
STUDY001,LB,STUDY001-SUBJ0002,70,L00070,ALT,Alanine Aminotransferase,CHEMISTRY,14.61,U/L,7.0,56.0,14.61,14.61,U/L,7.0,56.0,NORMAL,,WEEK 12,7,2025-04-17,84
STUDY001,LB,STUDY001-SUBJ0002,71,L00071,HGB,Hemoglobin,HEMATOLOGY,13.57,g/dL,13.5,17.5,13.57,13.57,g/dL,13.5,17.5,NORMAL,,WEEK 16,8,2025-05-15,112
STUDY001,LB,STUDY001-SUBJ0002,72,L00072,HCT,Hematocrit,HEMATOLOGY,42.66,%,41.0,51.0,42.66,42.66,%,41.0,51.0,NORMAL,,WEEK 16,8,2025-05-15,112
STUDY001,LB,STUDY001-SUBJ0002,73,L00073,WBC,White Blood Cell Count,HEMATOLOGY,8.1,10^9/L,4.5,11.0,8.1,8.1,10^9/L,4.5,11.0,NORMAL,,WEEK 16,8,2025-05-15,112
STUDY001,LB,STUDY001-SUBJ0002,74,L00074,PLT,Platelet Count,HEMATOLOGY,240.86,10^9/L,150.0,450.0,240.86,240.86,10^9/L,150.0,450.0,NORMAL,,WEEK 16,8,2025-05-15,112
STUDY001,LB,STUDY001-SUBJ0002,75,L00075,GLUC,Glucose,CHEMISTRY,80.59,mg/dL,70.0,100.0,80.59,80.59,mg/dL,70.0,100.0,NORMAL,,WEEK 16,8,2025-05-15,112
STUDY001,LB,STUDY001-SUBJ0002,76,L00076,BUN,Blood Urea Nitrogen,CHEMISTRY,13.33,mg/dL,7.0,20.0,13.33,13.33,mg/dL,7.0,20.0,NORMAL,,WEEK 16,8,2025-05-15,112
STUDY001,LB,STUDY001-SUBJ0002,77,L00077,CREAT,Creatinine,CHEMISTRY,1.29,mg/dL,0.6,1.2,1.29,1.29,mg/dL,0.6,1.2,HIGH,,WEEK 16,8,2025-05-15,112
STUDY001,LB,STUDY001-SUBJ0002,78,L00078,BILI,Total Bilirubin,CHEMISTRY,0.85,mg/dL,0.1,1.2,0.85,0.85,mg/dL,0.1,1.2,NORMAL,,WEEK 16,8,2025-05-15,112
STUDY001,LB,STUDY001-SUBJ0002,79,L00079,ALP,Alkaline Phosphatase,CHEMISTRY,98.09,U/L,44.0,147.0,98.09,98.09,U/L,44.0,147.0,NORMAL,,WEEK 16,8,2025-05-15,112
STUDY001,LB,STUDY001-SUBJ0002,80,L00080,ALT,Alanine Aminotransferase,CHEMISTRY,13.96,U/L,7.0,56.0,13.96,13.96,U/L,7.0,56.0,NORMAL,,WEEK 16,8,2025-05-15,112
STUDY001,LB,STUDY001-SUBJ0002,81,L00081,HGB,Hemoglobin,HEMATOLOGY,13.42,g/dL,13.5,17.5,13.42,13.42,g/dL,13.5,17.5,LOW,,END OF TREATMENT,9,2025-06-12,140
STUDY001,LB,STUDY001-SUBJ0002,82,L00082,HCT,Hematocrit,HEMATOLOGY,43.1,%,41.0,51.0,43.1,43.1,%,41.0,51.0,NORMAL,,END OF TREATMENT,9,2025-06-12,140
STUDY001,LB,STUDY001-SUBJ0002,83,L00083,WBC,White Blood Cell Count,HEMATOLOGY,7.96,10^9/L,4.5,11.0,7.96,7.96,10^9/L,4.5,11.0,NORMAL,,END OF TREATMENT,9,2025-06-12,140
STUDY001,LB,STUDY001-SUBJ0002,84,L00084,PLT,Platelet Count,HEMATOLOGY,243.45,10^9/L,150.0,450.0,243.45,243.45,10^9/L,150.0,450.0,NORMAL,,END OF TREATMENT,9,2025-06-12,140
STUDY001,LB,STUDY001-SUBJ0002,85,L00085,GLUC,Glucose,CHEMISTRY,80.28,mg/dL,70.0,100.0,80.28,80.28,mg/dL,70.0,100.0,NORMAL,,END OF TREATMENT,9,2025-06-12,140
STUDY001,LB,STUDY001-SUBJ0002,86,L00086,BUN,Blood Urea Nitrogen,CHEMISTRY,13.97,mg/dL,7.0,20.0,13.97,13.97,mg/dL,7.0,20.0,NORMAL,,END OF TREATMENT,9,2025-06-12,140
STUDY001,LB,STUDY001-SUBJ0002,87,L00087,CREAT,Creatinine,CHEMISTRY,1.31,mg/dL,0.6,1.2,1.31,1.31,mg/dL,0.6,1.2,HIGH,,END OF TREATMENT,9,2025-06-12,140
STUDY001,LB,STUDY001-SUBJ0002,88,L00088,BILI,Total Bilirubin,CHEMISTRY,0.84,mg/dL,0.1,1.2,0.84,0.84,mg/dL,0.1,1.2,NORMAL,,END OF TREATMENT,9,2025-06-12,140
STUDY001,LB,STUDY001-SUBJ0002,89,L00089,ALP,Alkaline Phosphatase,CHEMISTRY,95.78,U/L,44.0,147.0,95.78,95.78,U/L,44.0,147.0,NORMAL,,END OF TREATMENT,9,2025-06-12,140
STUDY001,LB,STUDY001-SUBJ0002,90,L00090,ALT,Alanine Aminotransferase,CHEMISTRY,13.67,U/L,7.0,56.0,13.67,13.67,U/L,7.0,56.0,NORMAL,,END OF TREATMENT,9,2025-06-12,140
STUDY001,LB,STUDY001-SUBJ0003,1,L00001,HGB,Hemoglobin,HEMATOLOGY,16.1,g/dL,13.5,17.5,16.1,16.1,g/dL,13.5,17.5,NORMAL,,SCREENING,1,2024-12-19,-14
STUDY001,LB,STUDY001-SUBJ0003,2,L00002,HCT,Hematocrit,HEMATOLOGY,48.04,%,41.0,51.0,48.04,48.04,%,41.0,51.0,NORMAL,,SCREENING,1,2024-12-19,-14
STUDY001,LB,STUDY001-SUBJ0003,3,L00003,WBC,White Blood Cell Count,HEMATOLOGY,6.73,10^9/L,4.5,11.0,6.73,6.73,10^9/L,4.5,11.0,NORMAL,,SCREENING,1,2024-12-19,-14
STUDY001,LB,STUDY001-SUBJ0003,4,L00004,PLT,Platelet Count,HEMATOLOGY,328.83,10^9/L,150.0,450.0,328.83,328.83,10^9/L,150.0,450.0,NORMAL,,SCREENING,1,2024-12-19,-14
STUDY001,LB,STUDY001-SUBJ0003,5,L00005,GLUC,Glucose,CHEMISTRY,80.2,mg/dL,70.0,100.0,80.2,80.2,mg/dL,70.0,100.0,NORMAL,,SCREENING,1,2024-12-19,-14
STUDY001,LB,STUDY001-SUBJ0003,6,L00006,BUN,Blood Urea Nitrogen,CHEMISTRY,18.4,mg/dL,7.0,20.0,18.4,18.4,mg/dL,7.0,20.0,NORMAL,,SCREENING,1,2024-12-19,-14
STUDY001,LB,STUDY001-SUBJ0003,7,L00007,CREAT,Creatinine,CHEMISTRY,1.01,mg/dL,0.6,1.2,1.01,1.01,mg/dL,0.6,1.2,NORMAL,,SCREENING,1,2024-12-19,-14
STUDY001,LB,STUDY001-SUBJ0003,8,L00008,BILI,Total Bilirubin,CHEMISTRY,0.74,mg/dL,0.1,1.2,0.74,0.74,mg/dL,0.1,1.2,NORMAL,,SCREENING,1,2024-12-19,-14
STUDY001,LB,STUDY001-SUBJ0003,9,L00009,ALP,Alkaline Phosphatase,CHEMISTRY,89.18,U/L,44.0,147.0,89.18,89.18,U/L,44.0,147.0,NORMAL,,SCREENING,1,2024-12-19,-14
STUDY001,LB,STUDY001-SUBJ0003,10,L00010,ALT,Alanine Aminotransferase,CHEMISTRY,24.47,U/L,7.0,56.0,24.47,24.47,U/L,7.0,56.0,NORMAL,,SCREENING,1,2024-12-19,-14
STUDY001,LB,STUDY001-SUBJ0003,11,L00011,HGB,Hemoglobin,HEMATOLOGY,16.04,g/dL,13.5,17.5,16.04,16.04,g/dL,13.5,17.5,NORMAL,Y,BASELINE,2,2025-01-02,1
STUDY001,LB,STUDY001-SUBJ0003,12,L00012,HCT,Hematocrit,HEMATOLOGY,47.74,%,41.0,51.0,47.74,47.74,%,41.0,51.0,NORMAL,Y,BASELINE,2,2025-01-02,1
STUDY001,LB,STUDY001-SUBJ0003,13,L00013,WBC,White Blood Cell Count,HEMATOLOGY,6.91,10^9/L,4.5,11.0,6.91,6.91,10^9/L,4.5,11.0,NORMAL,Y,BASELINE,2,2025-01-02,1
STUDY001,LB,STUDY001-SUBJ0003,14,L00014,PLT,Platelet Count,HEMATOLOGY,334.27,10^9/L,150.0,450.0,334.27,334.27,10^9/L,150.0,450.0,NORMAL,Y,BASELINE,2,2025-01-02,1
STUDY001,LB,STUDY001-SUBJ0003,15,L00015,GLUC,Glucose,CHEMISTRY,78.3,mg/dL,70.0,100.0,78.3,78.3,mg/dL,70.0,100.0,NORMAL,Y,BASELINE,2,2025-01-02,1
STUDY001,LB,STUDY001-SUBJ0003,16,L00016,BUN,Blood Urea Nitrogen,CHEMISTRY,18.78,mg/dL,7.0,20.0,18.78,18.78,mg/dL,7.0,20.0,NORMAL,Y,BASELINE,2,2025-01-02,1
STUDY001,LB,STUDY001-SUBJ0003,17,L00017,CREAT,Creatinine,CHEMISTRY,0.99,mg/dL,0.6,1.2,0.99,0.99,mg/dL,0.6,1.2,NORMAL,Y,BASELINE,2,2025-01-02,1
STUDY001,LB,STUDY001-SUBJ0003,18,L00018,BILI,Total Bilirubin,CHEMISTRY,0.72,mg/dL,0.1,1.2,0.72,0.72,mg/dL,0.1,1.2,NORMAL,Y,BASELINE,2,2025-01-02,1
STUDY001,LB,STUDY001-SUBJ0003,19,L00019,ALP,Alkaline Phosphatase,CHEMISTRY,87.23,U/L,44.0,147.0,87.23,87.23,U/L,44.0,147.0,NORMAL,Y,BASELINE,2,2025-01-02,1
STUDY001,LB,STUDY001-SUBJ0003,20,L00020,ALT,Alanine Aminotransferase,CHEMISTRY,24.06,U/L,7.0,56.0,24.06,24.06,U/L,7.0,56.0,NORMAL,Y,BASELINE,2,2025-01-02,1
STUDY001,LB,STUDY001-SUBJ0003,21,L00021,HGB,Hemoglobin,HEMATOLOGY,16.23,g/dL,13.5,17.5,16.23,16.23,g/dL,13.5,17.5,NORMAL,,WEEK 1,3,2025-01-08,7
STUDY001,LB,STUDY001-SUBJ0003,22,L00022,HCT,Hematocrit,HEMATOLOGY,48.34,%,41.0,51.0,48.34,48.34,%,41.0,51.0,NORMAL,,WEEK 1,3,2025-01-08,7
STUDY001,LB,STUDY001-SUBJ0003,23,L00023,WBC,White Blood Cell Count,HEMATOLOGY,6.87,10^9/L,4.5,11.0,6.87,6.87,10^9/L,4.5,11.0,NORMAL,,WEEK 1,3,2025-01-08,7
STUDY001,LB,STUDY001-SUBJ0003,24,L00024,PLT,Platelet Count,HEMATOLOGY,330.84,10^9/L,150.0,450.0,330.84,330.84,10^9/L,150.0,450.0,NORMAL,,WEEK 1,3,2025-01-08,7
STUDY001,LB,STUDY001-SUBJ0003,25,L00025,GLUC,Glucose,CHEMISTRY,76.66,mg/dL,70.0,100.0,76.66,76.66,mg/dL,70.0,100.0,NORMAL,,WEEK 1,3,2025-01-08,7
STUDY001,LB,STUDY001-SUBJ0003,26,L00026,BUN,Blood Urea Nitrogen,CHEMISTRY,18.64,mg/dL,7.0,20.0,18.64,18.64,mg/dL,7.0,20.0,NORMAL,,WEEK 1,3,2025-01-08,7
STUDY001,LB,STUDY001-SUBJ0003,27,L00027,CREAT,Creatinine,CHEMISTRY,0.98,mg/dL,0.6,1.2,0.98,0.98,mg/dL,0.6,1.2,NORMAL,,WEEK 1,3,2025-01-08,7
STUDY001,LB,STUDY001-SUBJ0003,28,L00028,BILI,Total Bilirubin,CHEMISTRY,0.7,mg/dL,0.1,1.2,0.7,0.7,mg/dL,0.1,1.2,NORMAL,,WEEK 1,3,2025-01-08,7
STUDY001,LB,STUDY001-SUBJ0003,29,L00029,ALP,Alkaline Phosphatase,CHEMISTRY,87.0,U/L,44.0,147.0,87.0,87.0,U/L,44.0,147.0,NORMAL,,WEEK 1,3,2025-01-08,7
STUDY001,LB,STUDY001-SUBJ0003,30,L00030,ALT,Alanine Aminotransferase,CHEMISTRY,25.83,U/L,7.0,56.0,25.83,25.83,U/L,7.0,56.0,NORMAL,,WEEK 1,3,2025-01-08,7
STUDY001,LB,STUDY001-SUBJ0003,31,L00031,HGB,Hemoglobin,HEMATOLOGY,16.05,g/dL,13.5,17.5,16.05,16.05,g/dL,13.5,17.5,NORMAL,,WEEK 2,4,2025-01-15,14
STUDY001,LB,STUDY001-SUBJ0003,32,L00032,HCT,Hematocrit,HEMATOLOGY,48.24,%,41.0,51.0,48.24,48.24,%,41.0,51.0,NORMAL,,WEEK 2,4,2025-01-15,14
STUDY001,LB,STUDY001-SUBJ0003,33,L00033,WBC,White Blood Cell Count,HEMATOLOGY,6.79,10^9/L,4.5,11.0,6.79,6.79,10^9/L,4.5,11.0,NORMAL,,WEEK 2,4,2025-01-15,14
STUDY001,LB,STUDY001-SUBJ0003,34,L00034,PLT,Platelet Count,HEMATOLOGY,335.91,10^9/L,150.0,450.0,335.91,335.91,10^9/L,150.0,450.0,NORMAL,,WEEK 2,4,2025-01-15,14
STUDY001,LB,STUDY001-SUBJ0003,35,L00035,GLUC,Glucose,CHEMISTRY,77.82,mg/dL,70.0,100.0,77.82,77.82,mg/dL,70.0,100.0,NORMAL,,WEEK 2,4,2025-01-15,14
STUDY001,LB,STUDY001-SUBJ0003,36,L00036,BUN,Blood Urea Nitrogen,CHEMISTRY,18.27,mg/dL,7.0,20.0,18.27,18.27,mg/dL,7.0,20.0,NORMAL,,WEEK 2,4,2025-01-15,14
STUDY001,LB,STUDY001-SUBJ0003,37,L00037,CREAT,Creatinine,CHEMISTRY,0.97,mg/dL,0.6,1.2,0.97,0.97,mg/dL,0.6,1.2,NORMAL,,WEEK 2,4,2025-01-15,14
STUDY001,LB,STUDY001-SUBJ0003,38,L00038,BILI,Total Bilirubin,CHEMISTRY,0.73,mg/dL,0.1,1.2,0.73,0.73,mg/dL,0.1,1.2,NORMAL,,WEEK 2,4,2025-01-15,14
STUDY001,LB,STUDY001-SUBJ0003,39,L00039,ALP,Alkaline Phosphatase,CHEMISTRY,88.24,U/L,44.0,147.0,88.24,88.24,U/L,44.0,147.0,NORMAL,,WEEK 2,4,2025-01-15,14
STUDY001,LB,STUDY001-SUBJ0003,40,L00040,ALT,Alanine Aminotransferase,CHEMISTRY,23.94,U/L,7.0,56.0,23.94,23.94,U/L,7.0,56.0,NORMAL,,WEEK 2,4,2025-01-15,14
STUDY001,LB,STUDY001-SUBJ0003,41,L00041,HGB,Hemoglobin,HEMATOLOGY,15.94,g/dL,13.5,17.5,15.94,15.94,g/dL,13.5,17.5,NORMAL,,WEEK 4,5,2025-01-29,28
STUDY001,LB,STUDY001-SUBJ0003,42,L00042,HCT,Hematocrit,HEMATOLOGY,48.31,%,41.0,51.0,48.31,48.31,%,41.0,51.0,NORMAL,,WEEK 4,5,2025-01-29,28
STUDY001,LB,STUDY001-SUBJ0003,43,L00043,WBC,White Blood Cell Count,HEMATOLOGY,6.7,10^9/L,4.5,11.0,6.7,6.7,10^9/L,4.5,11.0,NORMAL,,WEEK 4,5,2025-01-29,28
STUDY001,LB,STUDY001-SUBJ0003,44,L00044,PLT,Platelet Count,HEMATOLOGY,330.28,10^9/L,150.0,450.0,330.28,330.28,10^9/L,150.0,450.0,NORMAL,,WEEK 4,5,2025-01-29,28
STUDY001,LB,STUDY001-SUBJ0003,45,L00045,GLUC,Glucose,CHEMISTRY,76.36,mg/dL,70.0,100.0,76.36,76.36,mg/dL,70.0,100.0,NORMAL,,WEEK 4,5,2025-01-29,28
STUDY001,LB,STUDY001-SUBJ0003,46,L00046,BUN,Blood Urea Nitrogen,CHEMISTRY,18.75,mg/dL,7.0,20.0,18.75,18.75,mg/dL,7.0,20.0,NORMAL,,WEEK 4,5,2025-01-29,28
STUDY001,LB,STUDY001-SUBJ0003,47,L00047,CREAT,Creatinine,CHEMISTRY,0.98,mg/dL,0.6,1.2,0.98,0.98,mg/dL,0.6,1.2,NORMAL,,WEEK 4,5,2025-01-29,28
STUDY001,LB,STUDY001-SUBJ0003,48,L00048,BILI,Total Bilirubin,CHEMISTRY,0.69,mg/dL,0.1,1.2,0.69,0.69,mg/dL,0.1,1.2,NORMAL,,WEEK 4,5,2025-01-29,28
STUDY001,LB,STUDY001-SUBJ0003,49,L00049,ALP,Alkaline Phosphatase,CHEMISTRY,86.83,U/L,44.0,147.0,86.83,86.83,U/L,44.0,147.0,NORMAL,,WEEK 4,5,2025-01-29,28
STUDY001,LB,STUDY001-SUBJ0003,50,L00050,ALT,Alanine Aminotransferase,CHEMISTRY,22.41,U/L,7.0,56.0,22.41,22.41,U/L,7.0,56.0,NORMAL,,WEEK 4,5,2025-01-29,28
STUDY001,LB,STUDY001-SUBJ0003,51,L00051,HGB,Hemoglobin,HEMATOLOGY,16.08,g/dL,13.5,17.5,16.08,16.08,g/dL,13.5,17.5,NORMAL,,WEEK 8,6,2025-02-26,56
STUDY001,LB,STUDY001-SUBJ0003,52,L00052,HCT,Hematocrit,HEMATOLOGY,47.98,%,41.0,51.0,47.98,47.98,%,41.0,51.0,NORMAL,,WEEK 8,6,2025-02-26,56
STUDY001,LB,STUDY001-SUBJ0003,53,L00053,WBC,White Blood Cell Count,HEMATOLOGY,6.72,10^9/L,4.5,11.0,6.72,6.72,10^9/L,4.5,11.0,NORMAL,,WEEK 8,6,2025-02-26,56
STUDY001,LB,STUDY001-SUBJ0003,54,L00054,PLT,Platelet Count,HEMATOLOGY,333.89,10^9/L,150.0,450.0,333.89,333.89,10^9/L,150.0,450.0,NORMAL,,WEEK 8,6,2025-02-26,56
STUDY001,LB,STUDY001-SUBJ0003,55,L00055,GLUC,Glucose,CHEMISTRY,75.53,mg/dL,70.0,100.0,75.53,75.53,mg/dL,70.0,100.0,NORMAL,,WEEK 8,6,2025-02-26,56
STUDY001,LB,STUDY001-SUBJ0003,56,L00056,BUN,Blood Urea Nitrogen,CHEMISTRY,18.64,mg/dL,7.0,20.0,18.64,18.64,mg/dL,7.0,20.0,NORMAL,,WEEK 8,6,2025-02-26,56
STUDY001,LB,STUDY001-SUBJ0003,57,L00057,CREAT,Creatinine,CHEMISTRY,0.99,mg/dL,0.6,1.2,0.99,0.99,mg/dL,0.6,1.2,NORMAL,,WEEK 8,6,2025-02-26,56
STUDY001,LB,STUDY001-SUBJ0003,58,L00058,BILI,Total Bilirubin,CHEMISTRY,0.68,mg/dL,0.1,1.2,0.68,0.68,mg/dL,0.1,1.2,NORMAL,,WEEK 8,6,2025-02-26,56
STUDY001,LB,STUDY001-SUBJ0003,59,L00059,ALP,Alkaline Phosphatase,CHEMISTRY,84.3,U/L,44.0,147.0,84.3,84.3,U/L,44.0,147.0,NORMAL,,WEEK 8,6,2025-02-26,56
STUDY001,LB,STUDY001-SUBJ0003,60,L00060,ALT,Alanine Aminotransferase,CHEMISTRY,24.02,U/L,7.0,56.0,24.02,24.02,U/L,7.0,56.0,NORMAL,,WEEK 8,6,2025-02-26,56
STUDY001,LB,STUDY001-SUBJ0003,61,L00061,HGB,Hemoglobin,HEMATOLOGY,15.95,g/dL,13.5,17.5,15.95,15.95,g/dL,13.5,17.5,NORMAL,,WEEK 12,7,2025-03-26,84
STUDY001,LB,STUDY001-SUBJ0003,62,L00062,HCT,Hematocrit,HEMATOLOGY,47.73,%,41.0,51.0,47.73,47.73,%,41.0,51.0,NORMAL,,WEEK 12,7,2025-03-26,84
STUDY001,LB,STUDY001-SUBJ0003,63,L00063,WBC,White Blood Cell Count,HEMATOLOGY,6.66,10^9/L,4.5,11.0,6.66,6.66,10^9/L,4.5,11.0,NORMAL,,WEEK 12,7,2025-03-26,84
STUDY001,LB,STUDY001-SUBJ0003,64,L00064,PLT,Platelet Count,HEMATOLOGY,329.41,10^9/L,150.0,450.0,329.41,329.41,10^9/L,150.0,450.0,NORMAL,,WEEK 12,7,2025-03-26,84
STUDY001,LB,STUDY001-SUBJ0003,65,L00065,GLUC,Glucose,CHEMISTRY,77.12,mg/dL,70.0,100.0,77.12,77.12,mg/dL,70.0,100.0,NORMAL,,WEEK 12,7,2025-03-26,84
STUDY001,LB,STUDY001-SUBJ0003,66,L00066,BUN,Blood Urea Nitrogen,CHEMISTRY,18.58,mg/dL,7.0,20.0,18.58,18.58,mg/dL,7.0,20.0,NORMAL,,WEEK 12,7,2025-03-26,84
STUDY001,LB,STUDY001-SUBJ0003,67,L00067,CREAT,Creatinine,CHEMISTRY,0.99,mg/dL,0.6,1.2,0.99,0.99,mg/dL,0.6,1.2,NORMAL,,WEEK 12,7,2025-03-26,84
STUDY001,LB,STUDY001-SUBJ0003,68,L00068,BILI,Total Bilirubin,CHEMISTRY,0.71,mg/dL,0.1,1.2,0.71,0.71,mg/dL,0.1,1.2,NORMAL,,WEEK 12,7,2025-03-26,84
STUDY001,LB,STUDY001-SUBJ0003,69,L00069,ALP,Alkaline Phosphatase,CHEMISTRY,84.11,U/L,44.0,147.0,84.11,84.11,U/L,44.0,147.0,NORMAL,,WEEK 12,7,2025-03-26,84
STUDY001,LB,STUDY001-SUBJ0003,70,L00070,ALT,Alanine Aminotransferase,CHEMISTRY,23.41,U/L,7.0,56.0,23.41,23.41,U/L,7.0,56.0,NORMAL,,WEEK 12,7,2025-03-26,84
STUDY001,LB,STUDY001-SUBJ0003,71,L00071,HGB,Hemoglobin,HEMATOLOGY,16.03,g/dL,13.5,17.5,16.03,16.03,g/dL,13.5,17.5,NORMAL,,WEEK 16,8,2025-04-23,112
STUDY001,LB,STUDY001-SUBJ0003,72,L00072,HCT,Hematocrit,HEMATOLOGY,48.24,%,41.0,51.0,48.24,48.24,%,41.0,51.0,NORMAL,,WEEK 16,8,2025-04-23,112
STUDY001,LB,STUDY001-SUBJ0003,73,L00073,WBC,White Blood Cell Count,HEMATOLOGY,6.62,10^9/L,4.5,11.0,6.62,6.62,10^9/L,4.5,11.0,NORMAL,,WEEK 16,8,2025-04-23,112
STUDY001,LB,STUDY001-SUBJ0003,74,L00074,PLT,Platelet Count,HEMATOLOGY,329.37,10^9/L,150.0,450.0,329.37,329.37,10^9/L,150.0,450.0,NORMAL,,WEEK 16,8,2025-04-23,112
STUDY001,LB,STUDY001-SUBJ0003,75,L00075,GLUC,Glucose,CHEMISTRY,76.76,mg/dL,70.0,100.0,76.76,76.76,mg/dL,70.0,100.0,NORMAL,,WEEK 16,8,2025-04-23,112
STUDY001,LB,STUDY001-SUBJ0003,76,L00076,BUN,Blood Urea Nitrogen,CHEMISTRY,18.63,mg/dL,7.0,20.0,18.63,18.63,mg/dL,7.0,20.0,NORMAL,,WEEK 16,8,2025-04-23,112
STUDY001,LB,STUDY001-SUBJ0003,77,L00077,CREAT,Creatinine,CHEMISTRY,1.01,mg/dL,0.6,1.2,1.01,1.01,mg/dL,0.6,1.2,NORMAL,,WEEK 16,8,2025-04-23,112
STUDY001,LB,STUDY001-SUBJ0003,78,L00078,BILI,Total Bilirubin,CHEMISTRY,0.7,mg/dL,0.1,1.2,0.7,0.7,mg/dL,0.1,1.2,NORMAL,,WEEK 16,8,2025-04-23,112
STUDY001,LB,STUDY001-SUBJ0003,79,L00079,ALP,Alkaline Phosphatase,CHEMISTRY,85.86,U/L,44.0,147.0,85.86,85.86,U/L,44.0,147.0,NORMAL,,WEEK 16,8,2025-04-23,112
STUDY001,LB,STUDY001-SUBJ0003,80,L00080,ALT,Alanine Aminotransferase,CHEMISTRY,24.5,U/L,7.0,56.0,24.5,24.5,U/L,7.0,56.0,NORMAL,,WEEK 16,8,2025-04-23,112
STUDY001,LB,STUDY001-SUBJ0003,81,L00081,HGB,Hemoglobin,HEMATOLOGY,16.13,g/dL,13.5,17.5,16.13,16.13,g/dL,13.5,17.5,NORMAL,,END OF TREATMENT,9,2025-05-21,140
STUDY001,LB,STUDY001-SUBJ0003,82,L00082,HCT,Hematocrit,HEMATOLOGY,48.68,%,41.0,51.0,48.68,48.68,%,41.0,51.0,NORMAL,,END OF TREATMENT,9,2025-05-21,140
STUDY001,LB,STUDY001-SUBJ0003,83,L00083,WBC,White Blood Cell Count,HEMATOLOGY,6.61,10^9/L,4.5,11.0,6.61,6.61,10^9/L,4.5,11.0,NORMAL,,END OF TREATMENT,9,2025-05-21,140
STUDY001,LB,STUDY001-SUBJ0003,84,L00084,PLT,Platelet Count,HEMATOLOGY,329.87,10^9/L,150.0,450.0,329.87,329.87,10^9/L,150.0,450.0,NORMAL,,END OF TREATMENT,9,2025-05-21,140
STUDY001,LB,STUDY001-SUBJ0003,85,L00085,GLUC,Glucose,CHEMISTRY,78.47,mg/dL,70.0,100.0,78.47,78.47,mg/dL,70.0,100.0,NORMAL,,END OF TREATMENT,9,2025-05-21,140
STUDY001,LB,STUDY001-SUBJ0003,86,L00086,BUN,Blood Urea Nitrogen,CHEMISTRY,18.61,mg/dL,7.0,20.0,18.61,18.61,mg/dL,7.0,20.0,NORMAL,,END OF TREATMENT,9,2025-05-21,140
STUDY001,LB,STUDY001-SUBJ0003,87,L00087,CREAT,Creatinine,CHEMISTRY,0.96,mg/dL,0.6,1.2,0.96,0.96,mg/dL,0.6,1.2,NORMAL,,END OF TREATMENT,9,2025-05-21,140
STUDY001,LB,STUDY001-SUBJ0003,88,L00088,BILI,Total Bilirubin,CHEMISTRY,0.69,mg/dL,0.1,1.2,0.69,0.69,mg/dL,0.1,1.2,NORMAL,,END OF TREATMENT,9,2025-05-21,140
STUDY001,LB,STUDY001-SUBJ0003,89,L00089,ALP,Alkaline Phosphatase,CHEMISTRY,88.58,U/L,44.0,147.0,88.58,88.58,U/L,44.0,147.0,NORMAL,,END OF TREATMENT,9,2025-05-21,140
STUDY001,LB,STUDY001-SUBJ0003,90,L00090,ALT,Alanine Aminotransferase,CHEMISTRY,26.12,U/L,7.0,56.0,26.12,26.12,U/L,7.0,56.0,NORMAL,,END OF TREATMENT,9,2025-05-21,140
STUDY001,LB,STUDY001-SUBJ0004,1,L00001,HGB,Hemoglobin,HEMATOLOGY,14.67,g/dL,13.5,17.5,14.67,14.67,g/dL,13.5,17.5,NORMAL,,SCREENING,1,2024-09-26,-14
STUDY001,LB,STUDY001-SUBJ0004,2,L00002,HCT,Hematocrit,HEMATOLOGY,45.83,%,41.0,51.0,45.83,45.83,%,41.0,51.0,NORMAL,,SCREENING,1,2024-09-26,-14
STUDY001,LB,STUDY001-SUBJ0004,3,L00003,WBC,White Blood Cell Count,HEMATOLOGY,10.02,10^9/L,4.5,11.0,10.02,10.02,10^9/L,4.5,11.0,NORMAL,,SCREENING,1,2024-09-26,-14
STUDY001,LB,STUDY001-SUBJ0004,4,L00004,PLT,Platelet Count,HEMATOLOGY,430.61,10^9/L,150.0,450.0,430.61,430.61,10^9/L,150.0,450.0,NORMAL,,SCREENING,1,2024-09-26,-14
STUDY001,LB,STUDY001-SUBJ0004,5,L00005,GLUC,Glucose,CHEMISTRY,71.16,mg/dL,70.0,100.0,71.16,71.16,mg/dL,70.0,100.0,NORMAL,,SCREENING,1,2024-09-26,-14
STUDY001,LB,STUDY001-SUBJ0004,6,L00006,BUN,Blood Urea Nitrogen,CHEMISTRY,10.1,mg/dL,7.0,20.0,10.1,10.1,mg/dL,7.0,20.0,NORMAL,,SCREENING,1,2024-09-26,-14
STUDY001,LB,STUDY001-SUBJ0004,7,L00007,CREAT,Creatinine,CHEMISTRY,0.68,mg/dL,0.6,1.2,0.68,0.68,mg/dL,0.6,1.2,NORMAL,,SCREENING,1,2024-09-26,-14
STUDY001,LB,STUDY001-SUBJ0004,8,L00008,BILI,Total Bilirubin,CHEMISTRY,0.88,mg/dL,0.1,1.2,0.88,0.88,mg/dL,0.1,1.2,NORMAL,,SCREENING,1,2024-09-26,-14
STUDY001,LB,STUDY001-SUBJ0004,9,L00009,ALP,Alkaline Phosphatase,CHEMISTRY,76.64,U/L,44.0,147.0,76.64,76.64,U/L,44.0,147.0,NORMAL,,SCREENING,1,2024-09-26,-14
STUDY001,LB,STUDY001-SUBJ0004,10,L00010,ALT,Alanine Aminotransferase,CHEMISTRY,11.98,U/L,7.0,56.0,11.98,11.98,U/L,7.0,56.0,NORMAL,,SCREENING,1,2024-09-26,-14
STUDY001,LB,STUDY001-SUBJ0004,11,L00011,HGB,Hemoglobin,HEMATOLOGY,14.7,g/dL,13.5,17.5,14.7,14.7,g/dL,13.5,17.5,NORMAL,Y,BASELINE,2,2024-10-10,1
STUDY001,LB,STUDY001-SUBJ0004,12,L00012,HCT,Hematocrit,HEMATOLOGY,46.28,%,41.0,51.0,46.28,46.28,%,41.0,51.0,NORMAL,Y,BASELINE,2,2024-10-10,1
STUDY001,LB,STUDY001-SUBJ0004,13,L00013,WBC,White Blood Cell Count,HEMATOLOGY,9.81,10^9/L,4.5,11.0,9.81,9.81,10^9/L,4.5,11.0,NORMAL,Y,BASELINE,2,2024-10-10,1
STUDY001,LB,STUDY001-SUBJ0004,14,L00014,PLT,Platelet Count,HEMATOLOGY,434.17,10^9/L,150.0,450.0,434.17,434.17,10^9/L,150.0,450.0,NORMAL,Y,BASELINE,2,2024-10-10,1
STUDY001,LB,STUDY001-SUBJ0004,15,L00015,GLUC,Glucose,CHEMISTRY,69.01,mg/dL,70.0,100.0,69.01,69.01,mg/dL,70.0,100.0,LOW,Y,BASELINE,2,2024-10-10,1
STUDY001,LB,STUDY001-SUBJ0004,16,L00016,BUN,Blood Urea Nitrogen,CHEMISTRY,9.72,mg/dL,7.0,20.0,9.72,9.72,mg/dL,7.0,20.0,NORMAL,Y,BASELINE,2,2024-10-10,1
STUDY001,LB,STUDY001-SUBJ0004,17,L00017,CREAT,Creatinine,CHEMISTRY,0.68,mg/dL,0.6,1.2,0.68,0.68,mg/dL,0.6,1.2,NORMAL,Y,BASELINE,2,2024-10-10,1
STUDY001,LB,STUDY001-SUBJ0004,18,L00018,BILI,Total Bilirubin,CHEMISTRY,0.85,mg/dL,0.1,1.2,0.85,0.85,mg/dL,0.1,1.2,NORMAL,Y,BASELINE,2,2024-10-10,1
STUDY001,LB,STUDY001-SUBJ0004,19,L00019,ALP,Alkaline Phosphatase,CHEMISTRY,78.97,U/L,44.0,147.0,78.97,78.97,U/L,44.0,147.0,NORMAL,Y,BASELINE,2,2024-10-10,1
STUDY001,LB,STUDY001-SUBJ0004,20,L00020,ALT,Alanine Aminotransferase,CHEMISTRY,12.91,U/L,7.0,56.0,12.91,12.91,U/L,7.0,56.0,NORMAL,Y,BASELINE,2,2024-10-10,1
STUDY001,LB,STUDY001-SUBJ0004,21,L00021,HGB,Hemoglobin,HEMATOLOGY,14.87,g/dL,13.5,17.5,14.87,14.87,g/dL,13.5,17.5,NORMAL,,WEEK 1,3,2024-10-16,7
STUDY001,LB,STUDY001-SUBJ0004,22,L00022,HCT,Hematocrit,HEMATOLOGY,45.75,%,41.0,51.0,45.75,45.75,%,41.0,51.0,NORMAL,,WEEK 1,3,2024-10-16,7
STUDY001,LB,STUDY001-SUBJ0004,23,L00023,WBC,White Blood Cell Count,HEMATOLOGY,9.52,10^9/L,4.5,11.0,9.52,9.52,10^9/L,4.5,11.0,NORMAL,,WEEK 1,3,2024-10-16,7
STUDY001,LB,STUDY001-SUBJ0004,24,L00024,PLT,Platelet Count,HEMATOLOGY,433.17,10^9/L,150.0,450.0,433.17,433.17,10^9/L,150.0,450.0,NORMAL,,WEEK 1,3,2024-10-16,7
STUDY001,LB,STUDY001-SUBJ0004,25,L00025,GLUC,Glucose,CHEMISTRY,69.91,mg/dL,70.0,100.0,69.91,69.91,mg/dL,70.0,100.0,LOW,,WEEK 1,3,2024-10-16,7
STUDY001,LB,STUDY001-SUBJ0004,26,L00026,BUN,Blood Urea Nitrogen,CHEMISTRY,10.19,mg/dL,7.0,20.0,10.19,10.19,mg/dL,7.0,20.0,NORMAL,,WEEK 1,3,2024-10-16,7
STUDY001,LB,STUDY001-SUBJ0004,27,L00027,CREAT,Creatinine,CHEMISTRY,0.7,mg/dL,0.6,1.2,0.7,0.7,mg/dL,0.6,1.2,NORMAL,,WEEK 1,3,2024-10-16,7
STUDY001,LB,STUDY001-SUBJ0004,28,L00028,BILI,Total Bilirubin,CHEMISTRY,0.82,mg/dL,0.1,1.2,0.82,0.82,mg/dL,0.1,1.2,NORMAL,,WEEK 1,3,2024-10-16,7
STUDY001,LB,STUDY001-SUBJ0004,29,L00029,ALP,Alkaline Phosphatase,CHEMISTRY,76.07,U/L,44.0,147.0,76.07,76.07,U/L,44.0,147.0,NORMAL,,WEEK 1,3,2024-10-16,7
STUDY001,LB,STUDY001-SUBJ0004,30,L00030,ALT,Alanine Aminotransferase,CHEMISTRY,14.36,U/L,7.0,56.0,14.36,14.36,U/L,7.0,56.0,NORMAL,,WEEK 1,3,2024-10-16,7
STUDY001,LB,STUDY001-SUBJ0004,31,L00031,HGB,Hemoglobin,HEMATOLOGY,14.81,g/dL,13.5,17.5,14.81,14.81,g/dL,13.5,17.5,NORMAL,,WEEK 2,4,2024-10-23,14
STUDY001,LB,STUDY001-SUBJ0004,32,L00032,HCT,Hematocrit,HEMATOLOGY,45.39,%,41.0,51.0,45.39,45.39,%,41.0,51.0,NORMAL,,WEEK 2,4,2024-10-23,14
STUDY001,LB,STUDY001-SUBJ0004,33,L00033,WBC,White Blood Cell Count,HEMATOLOGY,9.85,10^9/L,4.5,11.0,9.85,9.85,10^9/L,4.5,11.0,NORMAL,,WEEK 2,4,2024-10-23,14
STUDY001,LB,STUDY001-SUBJ0004,34,L00034,PLT,Platelet Count,HEMATOLOGY,433.6,10^9/L,150.0,450.0,433.6,433.6,10^9/L,150.0,450.0,NORMAL,,WEEK 2,4,2024-10-23,14
STUDY001,LB,STUDY001-SUBJ0004,35,L00035,GLUC,Glucose,CHEMISTRY,70.74,mg/dL,70.0,100.0,70.74,70.74,mg/dL,70.0,100.0,NORMAL,,WEEK 2,4,2024-10-23,14
STUDY001,LB,STUDY001-SUBJ0004,36,L00036,BUN,Blood Urea Nitrogen,CHEMISTRY,9.36,mg/dL,7.0,20.0,9.36,9.36,mg/dL,7.0,20.0,NORMAL,,WEEK 2,4,2024-10-23,14
STUDY001,LB,STUDY001-SUBJ0004,37,L00037,CREAT,Creatinine,CHEMISTRY,0.65,mg/dL,0.6,1.2,0.65,0.65,mg/dL,0.6,1.2,NORMAL,,WEEK 2,4,2024-10-23,14
STUDY001,LB,STUDY001-SUBJ0004,38,L00038,BILI,Total Bilirubin,CHEMISTRY,0.87,mg/dL,0.1,1.2,0.87,0.87,mg/dL,0.1,1.2,NORMAL,,WEEK 2,4,2024-10-23,14
STUDY001,LB,STUDY001-SUBJ0004,39,L00039,ALP,Alkaline Phosphatase,CHEMISTRY,74.57,U/L,44.0,147.0,74.57,74.57,U/L,44.0,147.0,NORMAL,,WEEK 2,4,2024-10-23,14
STUDY001,LB,STUDY001-SUBJ0004,40,L00040,ALT,Alanine Aminotransferase,CHEMISTRY,12.25,U/L,7.0,56.0,12.25,12.25,U/L,7.0,56.0,NORMAL,,WEEK 2,4,2024-10-23,14
STUDY001,LB,STUDY001-SUBJ0004,41,L00041,HGB,Hemoglobin,HEMATOLOGY,14.88,g/dL,13.5,17.5,14.88,14.88,g/dL,13.5,17.5,NORMAL,,WEEK 4,5,2024-11-06,28
STUDY001,LB,STUDY001-SUBJ0004,42,L00042,HCT,Hematocrit,HEMATOLOGY,45.81,%,41.0,51.0,45.81,45.81,%,41.0,51.0,NORMAL,,WEEK 4,5,2024-11-06,28
STUDY001,LB,STUDY001-SUBJ0004,43,L00043,WBC,White Blood Cell Count,HEMATOLOGY,9.46,10^9/L,4.5,11.0,9.46,9.46,10^9/L,4.5,11.0,NORMAL,,WEEK 4,5,2024-11-06,28
STUDY001,LB,STUDY001-SUBJ0004,44,L00044,PLT,Platelet Count,HEMATOLOGY,436.71,10^9/L,150.0,450.0,436.71,436.71,10^9/L,150.0,450.0,NORMAL,,WEEK 4,5,2024-11-06,28
STUDY001,LB,STUDY001-SUBJ0004,45,L00045,GLUC,Glucose,CHEMISTRY,70.34,mg/dL,70.0,100.0,70.34,70.34,mg/dL,70.0,100.0,NORMAL,,WEEK 4,5,2024-11-06,28
STUDY001,LB,STUDY001-SUBJ0004,46,L00046,BUN,Blood Urea Nitrogen,CHEMISTRY,10.05,mg/dL,7.0,20.0,10.05,10.05,mg/dL,7.0,20.0,NORMAL,,WEEK 4,5,2024-11-06,28
STUDY001,LB,STUDY001-SUBJ0004,47,L00047,CREAT,Creatinine,CHEMISTRY,0.67,mg/dL,0.6,1.2,0.67,0.67,mg/dL,0.6,1.2,NORMAL,,WEEK 4,5,2024-11-06,28
STUDY001,LB,STUDY001-SUBJ0004,48,L00048,BILI,Total Bilirubin,CHEMISTRY,0.84,mg/dL,0.1,1.2,0.84,0.84,mg/dL,0.1,1.2,NORMAL,,WEEK 4,5,2024-11-06,28
STUDY001,LB,STUDY001-SUBJ0004,49,L00049,ALP,Alkaline Phosphatase,CHEMISTRY,74.94,U/L,44.0,147.0,74.94,74.94,U/L,44.0,147.0,NORMAL,,WEEK 4,5,2024-11-06,28
STUDY001,LB,STUDY001-SUBJ0004,50,L00050,ALT,Alanine Aminotransferase,CHEMISTRY,12.66,U/L,7.0,56.0,12.66,12.66,U/L,7.0,56.0,NORMAL,,WEEK 4,5,2024-11-06,28
STUDY001,LB,STUDY001-SUBJ0004,51,L00051,HGB,Hemoglobin,HEMATOLOGY,14.95,g/dL,13.5,17.5,14.95,14.95,g/dL,13.5,17.5,NORMAL,,WEEK 8,6,2024-12-04,56
STUDY001,LB,STUDY001-SUBJ0004,52,L00052,HCT,Hematocrit,HEMATOLOGY,46.07,%,41.0,51.0,46.07,46.07,%,41.0,51.0,NORMAL,,WEEK 8,6,2024-12-04,56
STUDY001,LB,STUDY001-SUBJ0004,53,L00053,WBC,White Blood Cell Count,HEMATOLOGY,9.71,10^9/L,4.5,11.0,9.71,9.71,10^9/L,4.5,11.0,NORMAL,,WEEK 8,6,2024-12-04,56
STUDY001,LB,STUDY001-SUBJ0004,54,L00054,PLT,Platelet Count,HEMATOLOGY,445.52,10^9/L,150.0,450.0,445.52,445.52,10^9/L,150.0,450.0,NORMAL,,WEEK 8,6,2024-12-04,56
STUDY001,LB,STUDY001-SUBJ0004,55,L00055,GLUC,Glucose,CHEMISTRY,70.43,mg/dL,70.0,100.0,70.43,70.43,mg/dL,70.0,100.0,NORMAL,,WEEK 8,6,2024-12-04,56
STUDY001,LB,STUDY001-SUBJ0004,56,L00056,BUN,Blood Urea Nitrogen,CHEMISTRY,9.82,mg/dL,7.0,20.0,9.82,9.82,mg/dL,7.0,20.0,NORMAL,,WEEK 8,6,2024-12-04,56
STUDY001,LB,STUDY001-SUBJ0004,57,L00057,CREAT,Creatinine,CHEMISTRY,0.68,mg/dL,0.6,1.2,0.68,0.68,mg/dL,0.6,1.2,NORMAL,,WEEK 8,6,2024-12-04,56
STUDY001,LB,STUDY001-SUBJ0004,58,L00058,BILI,Total Bilirubin,CHEMISTRY,0.86,mg/dL,0.1,1.2,0.86,0.86,mg/dL,0.1,1.2,NORMAL,,WEEK 8,6,2024-12-04,56
STUDY001,LB,STUDY001-SUBJ0004,59,L00059,ALP,Alkaline Phosphatase,CHEMISTRY,81.89,U/L,44.0,147.0,81.89,81.89,U/L,44.0,147.0,NORMAL,,WEEK 8,6,2024-12-04,56
STUDY001,LB,STUDY001-SUBJ0004,60,L00060,ALT,Alanine Aminotransferase,CHEMISTRY,12.03,U/L,7.0,56.0,12.03,12.03,U/L,7.0,56.0,NORMAL,,WEEK 8,6,2024-12-04,56
STUDY001,LB,STUDY001-SUBJ0004,61,L00061,HGB,Hemoglobin,HEMATOLOGY,14.9,g/dL,13.5,17.5,14.9,14.9,g/dL,13.5,17.5,NORMAL,,WEEK 12,7,2025-01-01,84
STUDY001,LB,STUDY001-SUBJ0004,62,L00062,HCT,Hematocrit,HEMATOLOGY,44.92,%,41.0,51.0,44.92,44.92,%,41.0,51.0,NORMAL,,WEEK 12,7,2025-01-01,84
STUDY001,LB,STUDY001-SUBJ0004,63,L00063,WBC,White Blood Cell Count,HEMATOLOGY,9.79,10^9/L,4.5,11.0,9.79,9.79,10^9/L,4.5,11.0,NORMAL,,WEEK 12,7,2025-01-01,84
STUDY001,LB,STUDY001-SUBJ0004,64,L00064,PLT,Platelet Count,HEMATOLOGY,436.35,10^9/L,150.0,450.0,436.35,436.35,10^9/L,150.0,450.0,NORMAL,,WEEK 12,7,2025-01-01,84
STUDY001,LB,STUDY001-SUBJ0004,65,L00065,GLUC,Glucose,CHEMISTRY,70.06,mg/dL,70.0,100.0,70.06,70.06,mg/dL,70.0,100.0,NORMAL,,WEEK 12,7,2025-01-01,84
STUDY001,LB,STUDY001-SUBJ0004,66,L00066,BUN,Blood Urea Nitrogen,CHEMISTRY,10.03,mg/dL,7.0,20.0,10.03,10.03,mg/dL,7.0,20.0,NORMAL,,WEEK 12,7,2025-01-01,84
STUDY001,LB,STUDY001-SUBJ0004,67,L00067,CREAT,Creatinine,CHEMISTRY,0.67,mg/dL,0.6,1.2,0.67,0.67,mg/dL,0.6,1.2,NORMAL,,WEEK 12,7,2025-01-01,84
STUDY001,LB,STUDY001-SUBJ0004,68,L00068,BILI,Total Bilirubin,CHEMISTRY,0.86,mg/dL,0.1,1.2,0.86,0.86,mg/dL,0.1,1.2,NORMAL,,WEEK 12,7,2025-01-01,84
STUDY001,LB,STUDY001-SUBJ0004,69,L00069,ALP,Alkaline Phosphatase,CHEMISTRY,77.94,U/L,44.0,147.0,77.94,77.94,U/L,44.0,147.0,NORMAL,,WEEK 12,7,2025-01-01,84
STUDY001,LB,STUDY001-SUBJ0004,70,L00070,ALT,Alanine Aminotransferase,CHEMISTRY,12.05,U/L,7.0,56.0,12.05,12.05,U/L,7.0,56.0,NORMAL,,WEEK 12,7,2025-01-01,84
STUDY001,LB,STUDY001-SUBJ0004,71,L00071,HGB,Hemoglobin,HEMATOLOGY,14.65,g/dL,13.5,17.5,14.65,14.65,g/dL,13.5,17.5,NORMAL,,WEEK 16,8,2025-01-29,112
STUDY001,LB,STUDY001-SUBJ0004,72,L00072,HCT,Hematocrit,HEMATOLOGY,45.32,%,41.0,51.0,45.32,45.32,%,41.0,51.0,NORMAL,,WEEK 16,8,2025-01-29,112
STUDY001,LB,STUDY001-SUBJ0004,73,L00073,WBC,White Blood Cell Count,HEMATOLOGY,9.6,10^9/L,4.5,11.0,9.6,9.6,10^9/L,4.5,11.0,NORMAL,,WEEK 16,8,2025-01-29,112
STUDY001,LB,STUDY001-SUBJ0004,74,L00074,PLT,Platelet Count,HEMATOLOGY,438.44,10^9/L,150.0,450.0,438.44,438.44,10^9/L,150.0,450.0,NORMAL,,WEEK 16,8,2025-01-29,112
STUDY001,LB,STUDY001-SUBJ0004,75,L00075,GLUC,Glucose,CHEMISTRY,68.59,mg/dL,70.0,100.0,68.59,68.59,mg/dL,70.0,100.0,LOW,,WEEK 16,8,2025-01-29,112
STUDY001,LB,STUDY001-SUBJ0004,76,L00076,BUN,Blood Urea Nitrogen,CHEMISTRY,9.83,mg/dL,7.0,20.0,9.83,9.83,mg/dL,7.0,20.0,NORMAL,,WEEK 16,8,2025-01-29,112
STUDY001,LB,STUDY001-SUBJ0004,77,L00077,CREAT,Creatinine,CHEMISTRY,0.68,mg/dL,0.6,1.2,0.68,0.68,mg/dL,0.6,1.2,NORMAL,,WEEK 16,8,2025-01-29,112
STUDY001,LB,STUDY001-SUBJ0004,78,L00078,BILI,Total Bilirubin,CHEMISTRY,0.85,mg/dL,0.1,1.2,0.85,0.85,mg/dL,0.1,1.2,NORMAL,,WEEK 16,8,2025-01-29,112
STUDY001,LB,STUDY001-SUBJ0004,79,L00079,ALP,Alkaline Phosphatase,CHEMISTRY,78.32,U/L,44.0,147.0,78.32,78.32,U/L,44.0,147.0,NORMAL,,WEEK 16,8,2025-01-29,112
STUDY001,LB,STUDY001-SUBJ0004,80,L00080,ALT,Alanine Aminotransferase,CHEMISTRY,13.29,U/L,7.0,56.0,13.29,13.29,U/L,7.0,56.0,NORMAL,,WEEK 16,8,2025-01-29,112
STUDY001,LB,STUDY001-SUBJ0004,81,L00081,HGB,Hemoglobin,HEMATOLOGY,14.89,g/dL,13.5,17.5,14.89,14.89,g/dL,13.5,17.5,NORMAL,,END OF TREATMENT,9,2025-02-26,140
STUDY001,LB,STUDY001-SUBJ0004,82,L00082,HCT,Hematocrit,HEMATOLOGY,46.06,%,41.0,51.0,46.06,46.06,%,41.0,51.0,NORMAL,,END OF TREATMENT,9,2025-02-26,140
STUDY001,LB,STUDY001-SUBJ0004,83,L00083,WBC,White Blood Cell Count,HEMATOLOGY,9.83,10^9/L,4.5,11.0,9.83,9.83,10^9/L,4.5,11.0,NORMAL,,END OF TREATMENT,9,2025-02-26,140
STUDY001,LB,STUDY001-SUBJ0004,84,L00084,PLT,Platelet Count,HEMATOLOGY,430.89,10^9/L,150.0,450.0,430.89,430.89,10^9/L,150.0,450.0,NORMAL,,END OF TREATMENT,9,2025-02-26,140
STUDY001,LB,STUDY001-SUBJ0004,85,L00085,GLUC,Glucose,CHEMISTRY,70.87,mg/dL,70.0,100.0,70.87,70.87,mg/dL,70.0,100.0,NORMAL,,END OF TREATMENT,9,2025-02-26,140
STUDY001,LB,STUDY001-SUBJ0004,86,L00086,BUN,Blood Urea Nitrogen,CHEMISTRY,10.19,mg/dL,7.0,20.0,10.19,10.19,mg/dL,7.0,20.0,NORMAL,,END OF TREATMENT,9,2025-02-26,140
STUDY001,LB,STUDY001-SUBJ0004,87,L00087,CREAT,Creatinine,CHEMISTRY,0.68,mg/dL,0.6,1.2,0.68,0.68,mg/dL,0.6,1.2,NORMAL,,END OF TREATMENT,9,2025-02-26,140
STUDY001,LB,STUDY001-SUBJ0004,88,L00088,BILI,Total Bilirubin,CHEMISTRY,0.87,mg/dL,0.1,1.2,0.87,0.87,mg/dL,0.1,1.2,NORMAL,,END OF TREATMENT,9,2025-02-26,140
STUDY001,LB,STUDY001-SUBJ0004,89,L00089,ALP,Alkaline Phosphatase,CHEMISTRY,78.35,U/L,44.0,147.0,78.35,78.35,U/L,44.0,147.0,NORMAL,,END OF TREATMENT,9,2025-02-26,140
STUDY001,LB,STUDY001-SUBJ0004,90,L00090,ALT,Alanine Aminotransferase,CHEMISTRY,12.38,U/L,7.0,56.0,12.38,12.38,U/L,7.0,56.0,NORMAL,,END OF TREATMENT,9,2025-02-26,140
STUDY001,LB,STUDY001-SUBJ0005,1,L00001,HGB,Hemoglobin,HEMATOLOGY,15.67,g/dL,13.5,17.5,15.67,15.67,g/dL,13.5,17.5,NORMAL,,SCREENING,1,2024-12-15,-14
STUDY001,LB,STUDY001-SUBJ0005,2,L00002,HCT,Hematocrit,HEMATOLOGY,49.54,%,41.0,51.0,49.54,49.54,%,41.0,51.0,NORMAL,,SCREENING,1,2024-12-15,-14
STUDY001,LB,STUDY001-SUBJ0005,3,L00003,WBC,White Blood Cell Count,HEMATOLOGY,6.96,10^9/L,4.5,11.0,6.96,6.96,10^9/L,4.5,11.0,NORMAL,,SCREENING,1,2024-12-15,-14
STUDY001,LB,STUDY001-SUBJ0005,4,L00004,PLT,Platelet Count,HEMATOLOGY,311.37,10^9/L,150.0,450.0,311.37,311.37,10^9/L,150.0,450.0,NORMAL,,SCREENING,1,2024-12-15,-14
STUDY001,LB,STUDY001-SUBJ0005,5,L00005,GLUC,Glucose,CHEMISTRY,81.63,mg/dL,70.0,100.0,81.63,81.63,mg/dL,70.0,100.0,NORMAL,,SCREENING,1,2024-12-15,-14
STUDY001,LB,STUDY001-SUBJ0005,6,L00006,BUN,Blood Urea Nitrogen,CHEMISTRY,13.88,mg/dL,7.0,20.0,13.88,13.88,mg/dL,7.0,20.0,NORMAL,,SCREENING,1,2024-12-15,-14
STUDY001,LB,STUDY001-SUBJ0005,7,L00007,CREAT,Creatinine,CHEMISTRY,1.01,mg/dL,0.6,1.2,1.01,1.01,mg/dL,0.6,1.2,NORMAL,,SCREENING,1,2024-12-15,-14
STUDY001,LB,STUDY001-SUBJ0005,8,L00008,BILI,Total Bilirubin,CHEMISTRY,0.61,mg/dL,0.1,1.2,0.61,0.61,mg/dL,0.1,1.2,NORMAL,,SCREENING,1,2024-12-15,-14
STUDY001,LB,STUDY001-SUBJ0005,9,L00009,ALP,Alkaline Phosphatase,CHEMISTRY,55.14,U/L,44.0,147.0,55.14,55.14,U/L,44.0,147.0,NORMAL,,SCREENING,1,2024-12-15,-14
STUDY001,LB,STUDY001-SUBJ0005,10,L00010,ALT,Alanine Aminotransferase,CHEMISTRY,21.7,U/L,7.0,56.0,21.7,21.7,U/L,7.0,56.0,NORMAL,,SCREENING,1,2024-12-15,-14
STUDY001,LB,STUDY001-SUBJ0005,11,L00011,HGB,Hemoglobin,HEMATOLOGY,15.61,g/dL,13.5,17.5,15.61,15.61,g/dL,13.5,17.5,NORMAL,Y,BASELINE,2,2024-12-29,1
STUDY001,LB,STUDY001-SUBJ0005,12,L00012,HCT,Hematocrit,HEMATOLOGY,49.56,%,41.0,51.0,49.56,49.56,%,41.0,51.0,NORMAL,Y,BASELINE,2,2024-12-29,1
STUDY001,LB,STUDY001-SUBJ0005,13,L00013,WBC,White Blood Cell Count,HEMATOLOGY,6.84,10^9/L,4.5,11.0,6.84,6.84,10^9/L,4.5,11.0,NORMAL,Y,BASELINE,2,2024-12-29,1
STUDY001,LB,STUDY001-SUBJ0005,14,L00014,PLT,Platelet Count,HEMATOLOGY,309.31,10^9/L,150.0,450.0,309.31,309.31,10^9/L,150.0,450.0,NORMAL,Y,BASELINE,2,2024-12-29,1
STUDY001,LB,STUDY001-SUBJ0005,15,L00015,GLUC,Glucose,CHEMISTRY,82.43,mg/dL,70.0,100.0,82.43,82.43,mg/dL,70.0,100.0,NORMAL,Y,BASELINE,2,2024-12-29,1
STUDY001,LB,STUDY001-SUBJ0005,16,L00016,BUN,Blood Urea Nitrogen,CHEMISTRY,13.92,mg/dL,7.0,20.0,13.92,13.92,mg/dL,7.0,20.0,NORMAL,Y,BASELINE,2,2024-12-29,1
STUDY001,LB,STUDY001-SUBJ0005,17,L00017,CREAT,Creatinine,CHEMISTRY,0.96,mg/dL,0.6,1.2,0.96,0.96,mg/dL,0.6,1.2,NORMAL,Y,BASELINE,2,2024-12-29,1
STUDY001,LB,STUDY001-SUBJ0005,18,L00018,BILI,Total Bilirubin,CHEMISTRY,0.6,mg/dL,0.1,1.2,0.6,0.6,mg/dL,0.1,1.2,NORMAL,Y,BASELINE,2,2024-12-29,1
STUDY001,LB,STUDY001-SUBJ0005,19,L00019,ALP,Alkaline Phosphatase,CHEMISTRY,52.31,U/L,44.0,147.0,52.31,52.31,U/L,44.0,147.0,NORMAL,Y,BASELINE,2,2024-12-29,1
STUDY001,LB,STUDY001-SUBJ0005,20,L00020,ALT,Alanine Aminotransferase,CHEMISTRY,25.34,U/L,7.0,56.0,25.34,25.34,U/L,7.0,56.0,NORMAL,Y,BASELINE,2,2024-12-29,1
STUDY001,LB,STUDY001-SUBJ0005,21,L00021,HGB,Hemoglobin,HEMATOLOGY,15.39,g/dL,13.5,17.5,15.39,15.39,g/dL,13.5,17.5,NORMAL,,WEEK 1,3,2025-01-04,7
STUDY001,LB,STUDY001-SUBJ0005,22,L00022,HCT,Hematocrit,HEMATOLOGY,49.83,%,41.0,51.0,49.83,49.83,%,41.0,51.0,NORMAL,,WEEK 1,3,2025-01-04,7
STUDY001,LB,STUDY001-SUBJ0005,23,L00023,WBC,White Blood Cell Count,HEMATOLOGY,6.79,10^9/L,4.5,11.0,6.79,6.79,10^9/L,4.5,11.0,NORMAL,,WEEK 1,3,2025-01-04,7
STUDY001,LB,STUDY001-SUBJ0005,24,L00024,PLT,Platelet Count,HEMATOLOGY,310.63,10^9/L,150.0,450.0,310.63,310.63,10^9/L,150.0,450.0,NORMAL,,WEEK 1,3,2025-01-04,7
STUDY001,LB,STUDY001-SUBJ0005,25,L00025,GLUC,Glucose,CHEMISTRY,83.39,mg/dL,70.0,100.0,83.39,83.39,mg/dL,70.0,100.0,NORMAL,,WEEK 1,3,2025-01-04,7
STUDY001,LB,STUDY001-SUBJ0005,26,L00026,BUN,Blood Urea Nitrogen,CHEMISTRY,14.14,mg/dL,7.0,20.0,14.14,14.14,mg/dL,7.0,20.0,NORMAL,,WEEK 1,3,2025-01-04,7
STUDY001,LB,STUDY001-SUBJ0005,27,L00027,CREAT,Creatinine,CHEMISTRY,0.96,mg/dL,0.6,1.2,0.96,0.96,mg/dL,0.6,1.2,NORMAL,,WEEK 1,3,2025-01-04,7
STUDY001,LB,STUDY001-SUBJ0005,28,L00028,BILI,Total Bilirubin,CHEMISTRY,0.6,mg/dL,0.1,1.2,0.6,0.6,mg/dL,0.1,1.2,NORMAL,,WEEK 1,3,2025-01-04,7
STUDY001,LB,STUDY001-SUBJ0005,29,L00029,ALP,Alkaline Phosphatase,CHEMISTRY,50.76,U/L,44.0,147.0,50.76,50.76,U/L,44.0,147.0,NORMAL,,WEEK 1,3,2025-01-04,7
STUDY001,LB,STUDY001-SUBJ0005,30,L00030,ALT,Alanine Aminotransferase,CHEMISTRY,25.35,U/L,7.0,56.0,25.35,25.35,U/L,7.0,56.0,NORMAL,,WEEK 1,3,2025-01-04,7
STUDY001,LB,STUDY001-SUBJ0005,31,L00031,HGB,Hemoglobin,HEMATOLOGY,15.5,g/dL,13.5,17.5,15.5,15.5,g/dL,13.5,17.5,NORMAL,,WEEK 2,4,2025-01-11,14
STUDY001,LB,STUDY001-SUBJ0005,32,L00032,HCT,Hematocrit,HEMATOLOGY,49.37,%,41.0,51.0,49.37,49.37,%,41.0,51.0,NORMAL,,WEEK 2,4,2025-01-11,14
STUDY001,LB,STUDY001-SUBJ0005,33,L00033,WBC,White Blood Cell Count,HEMATOLOGY,6.84,10^9/L,4.5,11.0,6.84,6.84,10^9/L,4.5,11.0,NORMAL,,WEEK 2,4,2025-01-11,14
STUDY001,LB,STUDY001-SUBJ0005,34,L00034,PLT,Platelet Count,HEMATOLOGY,308.73,10^9/L,150.0,450.0,308.73,308.73,10^9/L,150.0,450.0,NORMAL,,WEEK 2,4,2025-01-11,14
STUDY001,LB,STUDY001-SUBJ0005,35,L00035,GLUC,Glucose,CHEMISTRY,82.9,mg/dL,70.0,100.0,82.9,82.9,mg/dL,70.0,100.0,NORMAL,,WEEK 2,4,2025-01-11,14
STUDY001,LB,STUDY001-SUBJ0005,36,L00036,BUN,Blood Urea Nitrogen,CHEMISTRY,13.62,mg/dL,7.0,20.0,13.62,13.62,mg/dL,7.0,20.0,NORMAL,,WEEK 2,4,2025-01-11,14
STUDY001,LB,STUDY001-SUBJ0005,37,L00037,CREAT,Creatinine,CHEMISTRY,0.98,mg/dL,0.6,1.2,0.98,0.98,mg/dL,0.6,1.2,NORMAL,,WEEK 2,4,2025-01-11,14
STUDY001,LB,STUDY001-SUBJ0005,38,L00038,BILI,Total Bilirubin,CHEMISTRY,0.65,mg/dL,0.1,1.2,0.65,0.65,mg/dL,0.1,1.2,NORMAL,,WEEK 2,4,2025-01-11,14
STUDY001,LB,STUDY001-SUBJ0005,39,L00039,ALP,Alkaline Phosphatase,CHEMISTRY,53.16,U/L,44.0,147.0,53.16,53.16,U/L,44.0,147.0,NORMAL,,WEEK 2,4,2025-01-11,14
STUDY001,LB,STUDY001-SUBJ0005,40,L00040,ALT,Alanine Aminotransferase,CHEMISTRY,24.78,U/L,7.0,56.0,24.78,24.78,U/L,7.0,56.0,NORMAL,,WEEK 2,4,2025-01-11,14
STUDY001,LB,STUDY001-SUBJ0005,41,L00041,HGB,Hemoglobin,HEMATOLOGY,15.53,g/dL,13.5,17.5,15.53,15.53,g/dL,13.5,17.5,NORMAL,,WEEK 4,5,2025-01-25,28
STUDY001,LB,STUDY001-SUBJ0005,42,L00042,HCT,Hematocrit,HEMATOLOGY,49.33,%,41.0,51.0,49.33,49.33,%,41.0,51.0,NORMAL,,WEEK 4,5,2025-01-25,28
STUDY001,LB,STUDY001-SUBJ0005,43,L00043,WBC,White Blood Cell Count,HEMATOLOGY,7.19,10^9/L,4.5,11.0,7.19,7.19,10^9/L,4.5,11.0,NORMAL,,WEEK 4,5,2025-01-25,28
STUDY001,LB,STUDY001-SUBJ0005,44,L00044,PLT,Platelet Count,HEMATOLOGY,319.82,10^9/L,150.0,450.0,319.82,319.82,10^9/L,150.0,450.0,NORMAL,,WEEK 4,5,2025-01-25,28
STUDY001,LB,STUDY001-SUBJ0005,45,L00045,GLUC,Glucose,CHEMISTRY,82.48,mg/dL,70.0,100.0,82.48,82.48,mg/dL,70.0,100.0,NORMAL,,WEEK 4,5,2025-01-25,28
STUDY001,LB,STUDY001-SUBJ0005,46,L00046,BUN,Blood Urea Nitrogen,CHEMISTRY,13.64,mg/dL,7.0,20.0,13.64,13.64,mg/dL,7.0,20.0,NORMAL,,WEEK 4,5,2025-01-25,28
STUDY001,LB,STUDY001-SUBJ0005,47,L00047,CREAT,Creatinine,CHEMISTRY,0.98,mg/dL,0.6,1.2,0.98,0.98,mg/dL,0.6,1.2,NORMAL,,WEEK 4,5,2025-01-25,28
STUDY001,LB,STUDY001-SUBJ0005,48,L00048,BILI,Total Bilirubin,CHEMISTRY,0.6,mg/dL,0.1,1.2,0.6,0.6,mg/dL,0.1,1.2,NORMAL,,WEEK 4,5,2025-01-25,28
STUDY001,LB,STUDY001-SUBJ0005,49,L00049,ALP,Alkaline Phosphatase,CHEMISTRY,51.34,U/L,44.0,147.0,51.34,51.34,U/L,44.0,147.0,NORMAL,,WEEK 4,5,2025-01-25,28
STUDY001,LB,STUDY001-SUBJ0005,50,L00050,ALT,Alanine Aminotransferase,CHEMISTRY,23.02,U/L,7.0,56.0,23.02,23.02,U/L,7.0,56.0,NORMAL,,WEEK 4,5,2025-01-25,28
STUDY001,LB,STUDY001-SUBJ0005,51,L00051,HGB,Hemoglobin,HEMATOLOGY,15.64,g/dL,13.5,17.5,15.64,15.64,g/dL,13.5,17.5,NORMAL,,WEEK 8,6,2025-02-22,56
STUDY001,LB,STUDY001-SUBJ0005,52,L00052,HCT,Hematocrit,HEMATOLOGY,49.0,%,41.0,51.0,49.0,49.0,%,41.0,51.0,NORMAL,,WEEK 8,6,2025-02-22,56
STUDY001,LB,STUDY001-SUBJ0005,53,L00053,WBC,White Blood Cell Count,HEMATOLOGY,6.54,10^9/L,4.5,11.0,6.54,6.54,10^9/L,4.5,11.0,NORMAL,,WEEK 8,6,2025-02-22,56
STUDY001,LB,STUDY001-SUBJ0005,54,L00054,PLT,Platelet Count,HEMATOLOGY,308.98,10^9/L,150.0,450.0,308.98,308.98,10^9/L,150.0,450.0,NORMAL,,WEEK 8,6,2025-02-22,56
STUDY001,LB,STUDY001-SUBJ0005,55,L00055,GLUC,Glucose,CHEMISTRY,83.21,mg/dL,70.0,100.0,83.21,83.21,mg/dL,70.0,100.0,NORMAL,,WEEK 8,6,2025-02-22,56
STUDY001,LB,STUDY001-SUBJ0005,56,L00056,BUN,Blood Urea Nitrogen,CHEMISTRY,14.3,mg/dL,7.0,20.0,14.3,14.3,mg/dL,7.0,20.0,NORMAL,,WEEK 8,6,2025-02-22,56
STUDY001,LB,STUDY001-SUBJ0005,57,L00057,CREAT,Creatinine,CHEMISTRY,0.96,mg/dL,0.6,1.2,0.96,0.96,mg/dL,0.6,1.2,NORMAL,,WEEK 8,6,2025-02-22,56
STUDY001,LB,STUDY001-SUBJ0005,58,L00058,BILI,Total Bilirubin,CHEMISTRY,0.59,mg/dL,0.1,1.2,0.59,0.59,mg/dL,0.1,1.2,NORMAL,,WEEK 8,6,2025-02-22,56
STUDY001,LB,STUDY001-SUBJ0005,59,L00059,ALP,Alkaline Phosphatase,CHEMISTRY,54.87,U/L,44.0,147.0,54.87,54.87,U/L,44.0,147.0,NORMAL,,WEEK 8,6,2025-02-22,56
STUDY001,LB,STUDY001-SUBJ0005,60,L00060,ALT,Alanine Aminotransferase,CHEMISTRY,23.15,U/L,7.0,56.0,23.15,23.15,U/L,7.0,56.0,NORMAL,,WEEK 8,6,2025-02-22,56
STUDY001,LB,STUDY001-SUBJ0005,61,L00061,HGB,Hemoglobin,HEMATOLOGY,15.54,g/dL,13.5,17.5,15.54,15.54,g/dL,13.5,17.5,NORMAL,,WEEK 12,7,2025-03-22,84
STUDY001,LB,STUDY001-SUBJ0005,62,L00062,HCT,Hematocrit,HEMATOLOGY,49.17,%,41.0,51.0,49.17,49.17,%,41.0,51.0,NORMAL,,WEEK 12,7,2025-03-22,84
STUDY001,LB,STUDY001-SUBJ0005,63,L00063,WBC,White Blood Cell Count,HEMATOLOGY,6.75,10^9/L,4.5,11.0,6.75,6.75,10^9/L,4.5,11.0,NORMAL,,WEEK 12,7,2025-03-22,84
STUDY001,LB,STUDY001-SUBJ0005,64,L00064,PLT,Platelet Count,HEMATOLOGY,318.95,10^9/L,150.0,450.0,318.95,318.95,10^9/L,150.0,450.0,NORMAL,,WEEK 12,7,2025-03-22,84
STUDY001,LB,STUDY001-SUBJ0005,65,L00065,GLUC,Glucose,CHEMISTRY,84.48,mg/dL,70.0,100.0,84.48,84.48,mg/dL,70.0,100.0,NORMAL,,WEEK 12,7,2025-03-22,84
STUDY001,LB,STUDY001-SUBJ0005,66,L00066,BUN,Blood Urea Nitrogen,CHEMISTRY,13.45,mg/dL,7.0,20.0,13.45,13.45,mg/dL,7.0,20.0,NORMAL,,WEEK 12,7,2025-03-22,84
STUDY001,LB,STUDY001-SUBJ0005,67,L00067,CREAT,Creatinine,CHEMISTRY,0.99,mg/dL,0.6,1.2,0.99,0.99,mg/dL,0.6,1.2,NORMAL,,WEEK 12,7,2025-03-22,84
STUDY001,LB,STUDY001-SUBJ0005,68,L00068,BILI,Total Bilirubin,CHEMISTRY,0.64,mg/dL,0.1,1.2,0.64,0.64,mg/dL,0.1,1.2,NORMAL,,WEEK 12,7,2025-03-22,84
STUDY001,LB,STUDY001-SUBJ0005,69,L00069,ALP,Alkaline Phosphatase,CHEMISTRY,52.73,U/L,44.0,147.0,52.73,52.73,U/L,44.0,147.0,NORMAL,,WEEK 12,7,2025-03-22,84
STUDY001,LB,STUDY001-SUBJ0005,70,L00070,ALT,Alanine Aminotransferase,CHEMISTRY,23.62,U/L,7.0,56.0,23.62,23.62,U/L,7.0,56.0,NORMAL,,WEEK 12,7,2025-03-22,84
STUDY001,LB,STUDY001-SUBJ0005,71,L00071,HGB,Hemoglobin,HEMATOLOGY,15.45,g/dL,13.5,17.5,15.45,15.45,g/dL,13.5,17.5,NORMAL,,WEEK 16,8,2025-04-19,112
STUDY001,LB,STUDY001-SUBJ0005,72,L00072,HCT,Hematocrit,HEMATOLOGY,49.4,%,41.0,51.0,49.4,49.4,%,41.0,51.0,NORMAL,,WEEK 16,8,2025-04-19,112
STUDY001,LB,STUDY001-SUBJ0005,73,L00073,WBC,White Blood Cell Count,HEMATOLOGY,6.89,10^9/L,4.5,11.0,6.89,6.89,10^9/L,4.5,11.0,NORMAL,,WEEK 16,8,2025-04-19,112
STUDY001,LB,STUDY001-SUBJ0005,74,L00074,PLT,Platelet Count,HEMATOLOGY,314.58,10^9/L,150.0,450.0,314.58,314.58,10^9/L,150.0,450.0,NORMAL,,WEEK 16,8,2025-04-19,112
STUDY001,LB,STUDY001-SUBJ0005,75,L00075,GLUC,Glucose,CHEMISTRY,81.47,mg/dL,70.0,100.0,81.47,81.47,mg/dL,70.0,100.0,NORMAL,,WEEK 16,8,2025-04-19,112
STUDY001,LB,STUDY001-SUBJ0005,76,L00076,BUN,Blood Urea Nitrogen,CHEMISTRY,14.09,mg/dL,7.0,20.0,14.09,14.09,mg/dL,7.0,20.0,NORMAL,,WEEK 16,8,2025-04-19,112
STUDY001,LB,STUDY001-SUBJ0005,77,L00077,CREAT,Creatinine,CHEMISTRY,0.96,mg/dL,0.6,1.2,0.96,0.96,mg/dL,0.6,1.2,NORMAL,,WEEK 16,8,2025-04-19,112
STUDY001,LB,STUDY001-SUBJ0005,78,L00078,BILI,Total Bilirubin,CHEMISTRY,0.63,mg/dL,0.1,1.2,0.63,0.63,mg/dL,0.1,1.2,NORMAL,,WEEK 16,8,2025-04-19,112
STUDY001,LB,STUDY001-SUBJ0005,79,L00079,ALP,Alkaline Phosphatase,CHEMISTRY,49.92,U/L,44.0,147.0,49.92,49.92,U/L,44.0,147.0,NORMAL,,WEEK 16,8,2025-04-19,112
STUDY001,LB,STUDY001-SUBJ0005,80,L00080,ALT,Alanine Aminotransferase,CHEMISTRY,23.67,U/L,7.0,56.0,23.67,23.67,U/L,7.0,56.0,NORMAL,,WEEK 16,8,2025-04-19,112
STUDY001,LB,STUDY001-SUBJ0005,81,L00081,HGB,Hemoglobin,HEMATOLOGY,15.46,g/dL,13.5,17.5,15.46,15.46,g/dL,13.5,17.5,NORMAL,,END OF TREATMENT,9,2025-05-17,140
STUDY001,LB,STUDY001-SUBJ0005,82,L00082,HCT,Hematocrit,HEMATOLOGY,49.37,%,41.0,51.0,49.37,49.37,%,41.0,51.0,NORMAL,,END OF TREATMENT,9,2025-05-17,140
STUDY001,LB,STUDY001-SUBJ0005,83,L00083,WBC,White Blood Cell Count,HEMATOLOGY,6.79,10^9/L,4.5,11.0,6.79,6.79,10^9/L,4.5,11.0,NORMAL,,END OF TREATMENT,9,2025-05-17,140
STUDY001,LB,STUDY001-SUBJ0005,84,L00084,PLT,Platelet Count,HEMATOLOGY,308.97,10^9/L,150.0,450.0,308.97,308.97,10^9/L,150.0,450.0,NORMAL,,END OF TREATMENT,9,2025-05-17,140
STUDY001,LB,STUDY001-SUBJ0005,85,L00085,GLUC,Glucose,CHEMISTRY,83.45,mg/dL,70.0,100.0,83.45,83.45,mg/dL,70.0,100.0,NORMAL,,END OF TREATMENT,9,2025-05-17,140
STUDY001,LB,STUDY001-SUBJ0005,86,L00086,BUN,Blood Urea Nitrogen,CHEMISTRY,13.59,mg/dL,7.0,20.0,13.59,13.59,mg/dL,7.0,20.0,NORMAL,,END OF TREATMENT,9,2025-05-17,140
STUDY001,LB,STUDY001-SUBJ0005,87,L00087,CREAT,Creatinine,CHEMISTRY,0.96,mg/dL,0.6,1.2,0.96,0.96,mg/dL,0.6,1.2,NORMAL,,END OF TREATMENT,9,2025-05-17,140
STUDY001,LB,STUDY001-SUBJ0005,88,L00088,BILI,Total Bilirubin,CHEMISTRY,0.63,mg/dL,0.1,1.2,0.63,0.63,mg/dL,0.1,1.2,NORMAL,,END OF TREATMENT,9,2025-05-17,140
STUDY001,LB,STUDY001-SUBJ0005,89,L00089,ALP,Alkaline Phosphatase,CHEMISTRY,51.53,U/L,44.0,147.0,51.53,51.53,U/L,44.0,147.0,NORMAL,,END OF TREATMENT,9,2025-05-17,140
STUDY001,LB,STUDY001-SUBJ0005,90,L00090,ALT,Alanine Aminotransferase,CHEMISTRY,26.19,U/L,7.0,56.0,26.19,26.19,U/L,7.0,56.0,NORMAL,,END OF TREATMENT,9,2025-05-17,140
STUDY001,LB,STUDY001-SUBJ0006,1,L00001,HGB,Hemoglobin,HEMATOLOGY,15.59,g/dL,13.5,17.5,15.59,15.59,g/dL,13.5,17.5,NORMAL,,SCREENING,1,2025-01-17,-14
STUDY001,LB,STUDY001-SUBJ0006,2,L00002,HCT,Hematocrit,HEMATOLOGY,47.48,%,41.0,51.0,47.48,47.48,%,41.0,51.0,NORMAL,,SCREENING,1,2025-01-17,-14
STUDY001,LB,STUDY001-SUBJ0006,3,L00003,WBC,White Blood Cell Count,HEMATOLOGY,6.88,10^9/L,4.5,11.0,6.88,6.88,10^9/L,4.5,11.0,NORMAL,,SCREENING,1,2025-01-17,-14
STUDY001,LB,STUDY001-SUBJ0006,4,L00004,PLT,Platelet Count,HEMATOLOGY,328.37,10^9/L,150.0,450.0,328.37,328.37,10^9/L,150.0,450.0,NORMAL,,SCREENING,1,2025-01-17,-14
STUDY001,LB,STUDY001-SUBJ0006,5,L00005,GLUC,Glucose,CHEMISTRY,90.98,mg/dL,70.0,100.0,90.98,90.98,mg/dL,70.0,100.0,NORMAL,,SCREENING,1,2025-01-17,-14
STUDY001,LB,STUDY001-SUBJ0006,6,L00006,BUN,Blood Urea Nitrogen,CHEMISTRY,8.17,mg/dL,7.0,20.0,8.17,8.17,mg/dL,7.0,20.0,NORMAL,,SCREENING,1,2025-01-17,-14
STUDY001,LB,STUDY001-SUBJ0006,7,L00007,CREAT,Creatinine,CHEMISTRY,0.98,mg/dL,0.6,1.2,0.98,0.98,mg/dL,0.6,1.2,NORMAL,,SCREENING,1,2025-01-17,-14
STUDY001,LB,STUDY001-SUBJ0006,8,L00008,BILI,Total Bilirubin,CHEMISTRY,0.65,mg/dL,0.1,1.2,0.65,0.65,mg/dL,0.1,1.2,NORMAL,,SCREENING,1,2025-01-17,-14
STUDY001,LB,STUDY001-SUBJ0006,9,L00009,ALP,Alkaline Phosphatase,CHEMISTRY,76.15,U/L,44.0,147.0,76.15,76.15,U/L,44.0,147.0,NORMAL,,SCREENING,1,2025-01-17,-14
STUDY001,LB,STUDY001-SUBJ0006,10,L00010,ALT,Alanine Aminotransferase,CHEMISTRY,37.41,U/L,7.0,56.0,37.41,37.41,U/L,7.0,56.0,NORMAL,,SCREENING,1,2025-01-17,-14
STUDY001,LB,STUDY001-SUBJ0006,11,L00011,HGB,Hemoglobin,HEMATOLOGY,15.54,g/dL,13.5,17.5,15.54,15.54,g/dL,13.5,17.5,NORMAL,Y,BASELINE,2,2025-01-31,1
STUDY001,LB,STUDY001-SUBJ0006,12,L00012,HCT,Hematocrit,HEMATOLOGY,46.96,%,41.0,51.0,46.96,46.96,%,41.0,51.0,NORMAL,Y,BASELINE,2,2025-01-31,1
STUDY001,LB,STUDY001-SUBJ0006,13,L00013,WBC,White Blood Cell Count,HEMATOLOGY,7.35,10^9/L,4.5,11.0,7.35,7.35,10^9/L,4.5,11.0,NORMAL,Y,BASELINE,2,2025-01-31,1
STUDY001,LB,STUDY001-SUBJ0006,14,L00014,PLT,Platelet Count,HEMATOLOGY,330.48,10^9/L,150.0,450.0,330.48,330.48,10^9/L,150.0,450.0,NORMAL,Y,BASELINE,2,2025-01-31,1
STUDY001,LB,STUDY001-SUBJ0006,15,L00015,GLUC,Glucose,CHEMISTRY,91.29,mg/dL,70.0,100.0,91.29,91.29,mg/dL,70.0,100.0,NORMAL,Y,BASELINE,2,2025-01-31,1
STUDY001,LB,STUDY001-SUBJ0006,16,L00016,BUN,Blood Urea Nitrogen,CHEMISTRY,8.29,mg/dL,7.0,20.0,8.29,8.29,mg/dL,7.0,20.0,NORMAL,Y,BASELINE,2,2025-01-31,1
STUDY001,LB,STUDY001-SUBJ0006,17,L00017,CREAT,Creatinine,CHEMISTRY,1.0,mg/dL,0.6,1.2,1.0,1.0,mg/dL,0.6,1.2,NORMAL,Y,BASELINE,2,2025-01-31,1
STUDY001,LB,STUDY001-SUBJ0006,18,L00018,BILI,Total Bilirubin,CHEMISTRY,0.69,mg/dL,0.1,1.2,0.69,0.69,mg/dL,0.1,1.2,NORMAL,Y,BASELINE,2,2025-01-31,1
STUDY001,LB,STUDY001-SUBJ0006,19,L00019,ALP,Alkaline Phosphatase,CHEMISTRY,75.83,U/L,44.0,147.0,75.83,75.83,U/L,44.0,147.0,NORMAL,Y,BASELINE,2,2025-01-31,1
STUDY001,LB,STUDY001-SUBJ0006,20,L00020,ALT,Alanine Aminotransferase,CHEMISTRY,37.42,U/L,7.0,56.0,37.42,37.42,U/L,7.0,56.0,NORMAL,Y,BASELINE,2,2025-01-31,1
STUDY001,LB,STUDY001-SUBJ0006,21,L00021,HGB,Hemoglobin,HEMATOLOGY,15.49,g/dL,13.5,17.5,15.49,15.49,g/dL,13.5,17.5,NORMAL,,WEEK 1,3,2025-02-06,7
STUDY001,LB,STUDY001-SUBJ0006,22,L00022,HCT,Hematocrit,HEMATOLOGY,47.26,%,41.0,51.0,47.26,47.26,%,41.0,51.0,NORMAL,,WEEK 1,3,2025-02-06,7
STUDY001,LB,STUDY001-SUBJ0006,23,L00023,WBC,White Blood Cell Count,HEMATOLOGY,7.19,10^9/L,4.5,11.0,7.19,7.19,10^9/L,4.5,11.0,NORMAL,,WEEK 1,3,2025-02-06,7
STUDY001,LB,STUDY001-SUBJ0006,24,L00024,PLT,Platelet Count,HEMATOLOGY,324.19,10^9/L,150.0,450.0,324.19,324.19,10^9/L,150.0,450.0,NORMAL,,WEEK 1,3,2025-02-06,7
STUDY001,LB,STUDY001-SUBJ0006,25,L00025,GLUC,Glucose,CHEMISTRY,92.87,mg/dL,70.0,100.0,92.87,92.87,mg/dL,70.0,100.0,NORMAL,,WEEK 1,3,2025-02-06,7
STUDY001,LB,STUDY001-SUBJ0006,26,L00026,BUN,Blood Urea Nitrogen,CHEMISTRY,8.35,mg/dL,7.0,20.0,8.35,8.35,mg/dL,7.0,20.0,NORMAL,,WEEK 1,3,2025-02-06,7
STUDY001,LB,STUDY001-SUBJ0006,27,L00027,CREAT,Creatinine,CHEMISTRY,0.99,mg/dL,0.6,1.2,0.99,0.99,mg/dL,0.6,1.2,NORMAL,,WEEK 1,3,2025-02-06,7
STUDY001,LB,STUDY001-SUBJ0006,28,L00028,BILI,Total Bilirubin,CHEMISTRY,0.68,mg/dL,0.1,1.2,0.68,0.68,mg/dL,0.1,1.2,NORMAL,,WEEK 1,3,2025-02-06,7
STUDY001,LB,STUDY001-SUBJ0006,29,L00029,ALP,Alkaline Phosphatase,CHEMISTRY,74.3,U/L,44.0,147.0,74.3,74.3,U/L,44.0,147.0,NORMAL,,WEEK 1,3,2025-02-06,7
STUDY001,LB,STUDY001-SUBJ0006,30,L00030,ALT,Alanine Aminotransferase,CHEMISTRY,37.15,U/L,7.0,56.0,37.15,37.15,U/L,7.0,56.0,NORMAL,,WEEK 1,3,2025-02-06,7
STUDY001,LB,STUDY001-SUBJ0006,31,L00031,HGB,Hemoglobin,HEMATOLOGY,15.46,g/dL,13.5,17.5,15.46,15.46,g/dL,13.5,17.5,NORMAL,,WEEK 2,4,2025-02-13,14
STUDY001,LB,STUDY001-SUBJ0006,32,L00032,HCT,Hematocrit,HEMATOLOGY,47.65,%,41.0,51.0,47.65,47.65,%,41.0,51.0,NORMAL,,WEEK 2,4,2025-02-13,14
STUDY001,LB,STUDY001-SUBJ0006,33,L00033,WBC,White Blood Cell Count,HEMATOLOGY,7.4,10^9/L,4.5,11.0,7.4,7.4,10^9/L,4.5,11.0,NORMAL,,WEEK 2,4,2025-02-13,14
STUDY001,LB,STUDY001-SUBJ0006,34,L00034,PLT,Platelet Count,HEMATOLOGY,319.06,10^9/L,150.0,450.0,319.06,319.06,10^9/L,150.0,450.0,NORMAL,,WEEK 2,4,2025-02-13,14
STUDY001,LB,STUDY001-SUBJ0006,35,L00035,GLUC,Glucose,CHEMISTRY,93.4,mg/dL,70.0,100.0,93.4,93.4,mg/dL,70.0,100.0,NORMAL,,WEEK 2,4,2025-02-13,14
STUDY001,LB,STUDY001-SUBJ0006,36,L00036,BUN,Blood Urea Nitrogen,CHEMISTRY,7.93,mg/dL,7.0,20.0,7.93,7.93,mg/dL,7.0,20.0,NORMAL,,WEEK 2,4,2025-02-13,14
STUDY001,LB,STUDY001-SUBJ0006,37,L00037,CREAT,Creatinine,CHEMISTRY,1.01,mg/dL,0.6,1.2,1.01,1.01,mg/dL,0.6,1.2,NORMAL,,WEEK 2,4,2025-02-13,14
STUDY001,LB,STUDY001-SUBJ0006,38,L00038,BILI,Total Bilirubin,CHEMISTRY,0.66,mg/dL,0.1,1.2,0.66,0.66,mg/dL,0.1,1.2,NORMAL,,WEEK 2,4,2025-02-13,14
STUDY001,LB,STUDY001-SUBJ0006,39,L00039,ALP,Alkaline Phosphatase,CHEMISTRY,74.1,U/L,44.0,147.0,74.1,74.1,U/L,44.0,147.0,NORMAL,,WEEK 2,4,2025-02-13,14
STUDY001,LB,STUDY001-SUBJ0006,40,L00040,ALT,Alanine Aminotransferase,CHEMISTRY,35.85,U/L,7.0,56.0,35.85,35.85,U/L,7.0,56.0,NORMAL,,WEEK 2,4,2025-02-13,14
STUDY001,LB,STUDY001-SUBJ0006,41,L00041,HGB,Hemoglobin,HEMATOLOGY,15.68,g/dL,13.5,17.5,15.68,15.68,g/dL,13.5,17.5,NORMAL,,WEEK 4,5,2025-02-27,28
STUDY001,LB,STUDY001-SUBJ0006,42,L00042,HCT,Hematocrit,HEMATOLOGY,47.41,%,41.0,51.0,47.41,47.41,%,41.0,51.0,NORMAL,,WEEK 4,5,2025-02-27,28
STUDY001,LB,STUDY001-SUBJ0006,43,L00043,WBC,White Blood Cell Count,HEMATOLOGY,7.22,10^9/L,4.5,11.0,7.22,7.22,10^9/L,4.5,11.0,NORMAL,,WEEK 4,5,2025-02-27,28
STUDY001,LB,STUDY001-SUBJ0006,44,L00044,PLT,Platelet Count,HEMATOLOGY,335.66,10^9/L,150.0,450.0,335.66,335.66,10^9/L,150.0,450.0,NORMAL,,WEEK 4,5,2025-02-27,28
STUDY001,LB,STUDY001-SUBJ0006,45,L00045,GLUC,Glucose,CHEMISTRY,90.96,mg/dL,70.0,100.0,90.96,90.96,mg/dL,70.0,100.0,NORMAL,,WEEK 4,5,2025-02-27,28
STUDY001,LB,STUDY001-SUBJ0006,46,L00046,BUN,Blood Urea Nitrogen,CHEMISTRY,8.29,mg/dL,7.0,20.0,8.29,8.29,mg/dL,7.0,20.0,NORMAL,,WEEK 4,5,2025-02-27,28
STUDY001,LB,STUDY001-SUBJ0006,47,L00047,CREAT,Creatinine,CHEMISTRY,0.96,mg/dL,0.6,1.2,0.96,0.96,mg/dL,0.6,1.2,NORMAL,,WEEK 4,5,2025-02-27,28
STUDY001,LB,STUDY001-SUBJ0006,48,L00048,BILI,Total Bilirubin,CHEMISTRY,0.67,mg/dL,0.1,1.2,0.67,0.67,mg/dL,0.1,1.2,NORMAL,,WEEK 4,5,2025-02-27,28
STUDY001,LB,STUDY001-SUBJ0006,49,L00049,ALP,Alkaline Phosphatase,CHEMISTRY,75.18,U/L,44.0,147.0,75.18,75.18,U/L,44.0,147.0,NORMAL,,WEEK 4,5,2025-02-27,28
STUDY001,LB,STUDY001-SUBJ0006,50,L00050,ALT,Alanine Aminotransferase,CHEMISTRY,35.85,U/L,7.0,56.0,35.85,35.85,U/L,7.0,56.0,NORMAL,,WEEK 4,5,2025-02-27,28
STUDY001,LB,STUDY001-SUBJ0006,51,L00051,HGB,Hemoglobin,HEMATOLOGY,15.53,g/dL,13.5,17.5,15.53,15.53,g/dL,13.5,17.5,NORMAL,,WEEK 8,6,2025-03-27,56
STUDY001,LB,STUDY001-SUBJ0006,52,L00052,HCT,Hematocrit,HEMATOLOGY,47.18,%,41.0,51.0,47.18,47.18,%,41.0,51.0,NORMAL,,WEEK 8,6,2025-03-27,56
STUDY001,LB,STUDY001-SUBJ0006,53,L00053,WBC,White Blood Cell Count,HEMATOLOGY,7.13,10^9/L,4.5,11.0,7.13,7.13,10^9/L,4.5,11.0,NORMAL,,WEEK 8,6,2025-03-27,56
STUDY001,LB,STUDY001-SUBJ0006,54,L00054,PLT,Platelet Count,HEMATOLOGY,324.99,10^9/L,150.0,450.0,324.99,324.99,10^9/L,150.0,450.0,NORMAL,,WEEK 8,6,2025-03-27,56
STUDY001,LB,STUDY001-SUBJ0006,55,L00055,GLUC,Glucose,CHEMISTRY,91.98,mg/dL,70.0,100.0,91.98,91.98,mg/dL,70.0,100.0,NORMAL,,WEEK 8,6,2025-03-27,56
STUDY001,LB,STUDY001-SUBJ0006,56,L00056,BUN,Blood Urea Nitrogen,CHEMISTRY,8.15,mg/dL,7.0,20.0,8.15,8.15,mg/dL,7.0,20.0,NORMAL,,WEEK 8,6,2025-03-27,56
STUDY001,LB,STUDY001-SUBJ0006,57,L00057,CREAT,Creatinine,CHEMISTRY,0.99,mg/dL,0.6,1.2,0.99,0.99,mg/dL,0.6,1.2,NORMAL,,WEEK 8,6,2025-03-27,56
STUDY001,LB,STUDY001-SUBJ0006,58,L00058,BILI,Total Bilirubin,CHEMISTRY,0.66,mg/dL,0.1,1.2,0.66,0.66,mg/dL,0.1,1.2,NORMAL,,WEEK 8,6,2025-03-27,56
STUDY001,LB,STUDY001-SUBJ0006,59,L00059,ALP,Alkaline Phosphatase,CHEMISTRY,74.21,U/L,44.0,147.0,74.21,74.21,U/L,44.0,147.0,NORMAL,,WEEK 8,6,2025-03-27,56
STUDY001,LB,STUDY001-SUBJ0006,60,L00060,ALT,Alanine Aminotransferase,CHEMISTRY,38.42,U/L,7.0,56.0,38.42,38.42,U/L,7.0,56.0,NORMAL,,WEEK 8,6,2025-03-27,56
STUDY001,LB,STUDY001-SUBJ0006,61,L00061,HGB,Hemoglobin,HEMATOLOGY,15.44,g/dL,13.5,17.5,15.44,15.44,g/dL,13.5,17.5,NORMAL,,WEEK 12,7,2025-04-24,84
STUDY001,LB,STUDY001-SUBJ0006,62,L00062,HCT,Hematocrit,HEMATOLOGY,47.43,%,41.0,51.0,47.43,47.43,%,41.0,51.0,NORMAL,,WEEK 12,7,2025-04-24,84
STUDY001,LB,STUDY001-SUBJ0006,63,L00063,WBC,White Blood Cell Count,HEMATOLOGY,7.16,10^9/L,4.5,11.0,7.16,7.16,10^9/L,4.5,11.0,NORMAL,,WEEK 12,7,2025-04-24,84
STUDY001,LB,STUDY001-SUBJ0006,64,L00064,PLT,Platelet Count,HEMATOLOGY,324.18,10^9/L,150.0,450.0,324.18,324.18,10^9/L,150.0,450.0,NORMAL,,WEEK 12,7,2025-04-24,84
STUDY001,LB,STUDY001-SUBJ0006,65,L00065,GLUC,Glucose,CHEMISTRY,94.1,mg/dL,70.0,100.0,94.1,94.1,mg/dL,70.0,100.0,NORMAL,,WEEK 12,7,2025-04-24,84
STUDY001,LB,STUDY001-SUBJ0006,66,L00066,BUN,Blood Urea Nitrogen,CHEMISTRY,8.02,mg/dL,7.0,20.0,8.02,8.02,mg/dL,7.0,20.0,NORMAL,,WEEK 12,7,2025-04-24,84
STUDY001,LB,STUDY001-SUBJ0006,67,L00067,CREAT,Creatinine,CHEMISTRY,1.01,mg/dL,0.6,1.2,1.01,1.01,mg/dL,0.6,1.2,NORMAL,,WEEK 12,7,2025-04-24,84
STUDY001,LB,STUDY001-SUBJ0006,68,L00068,BILI,Total Bilirubin,CHEMISTRY,0.67,mg/dL,0.1,1.2,0.67,0.67,mg/dL,0.1,1.2,NORMAL,,WEEK 12,7,2025-04-24,84
STUDY001,LB,STUDY001-SUBJ0006,69,L00069,ALP,Alkaline Phosphatase,CHEMISTRY,73.44,U/L,44.0,147.0,73.44,73.44,U/L,44.0,147.0,NORMAL,,WEEK 12,7,2025-04-24,84
STUDY001,LB,STUDY001-SUBJ0006,70,L00070,ALT,Alanine Aminotransferase,CHEMISTRY,38.07,U/L,7.0,56.0,38.07,38.07,U/L,7.0,56.0,NORMAL,,WEEK 12,7,2025-04-24,84
STUDY001,LB,STUDY001-SUBJ0006,71,L00071,HGB,Hemoglobin,HEMATOLOGY,15.6,g/dL,13.5,17.5,15.6,15.6,g/dL,13.5,17.5,NORMAL,,WEEK 16,8,2025-05-22,112
STUDY001,LB,STUDY001-SUBJ0006,72,L00072,HCT,Hematocrit,HEMATOLOGY,47.05,%,41.0,51.0,47.05,47.05,%,41.0,51.0,NORMAL,,WEEK 16,8,2025-05-22,112
STUDY001,LB,STUDY001-SUBJ0006,73,L00073,WBC,White Blood Cell Count,HEMATOLOGY,7.7,10^9/L,4.5,11.0,7.7,7.7,10^9/L,4.5,11.0,NORMAL,,WEEK 16,8,2025-05-22,112
STUDY001,LB,STUDY001-SUBJ0006,74,L00074,PLT,Platelet Count,HEMATOLOGY,334.04,10^9/L,150.0,450.0,334.04,334.04,10^9/L,150.0,450.0,NORMAL,,WEEK 16,8,2025-05-22,112
STUDY001,LB,STUDY001-SUBJ0006,75,L00075,GLUC,Glucose,CHEMISTRY,91.8,mg/dL,70.0,100.0,91.8,91.8,mg/dL,70.0,100.0,NORMAL,,WEEK 16,8,2025-05-22,112
STUDY001,LB,STUDY001-SUBJ0006,76,L00076,BUN,Blood Urea Nitrogen,CHEMISTRY,7.89,mg/dL,7.0,20.0,7.89,7.89,mg/dL,7.0,20.0,NORMAL,,WEEK 16,8,2025-05-22,112
STUDY001,LB,STUDY001-SUBJ0006,77,L00077,CREAT,Creatinine,CHEMISTRY,0.96,mg/dL,0.6,1.2,0.96,0.96,mg/dL,0.6,1.2,NORMAL,,WEEK 16,8,2025-05-22,112
STUDY001,LB,STUDY001-SUBJ0006,78,L00078,BILI,Total Bilirubin,CHEMISTRY,0.68,mg/dL,0.1,1.2,0.68,0.68,mg/dL,0.1,1.2,NORMAL,,WEEK 16,8,2025-05-22,112
STUDY001,LB,STUDY001-SUBJ0006,79,L00079,ALP,Alkaline Phosphatase,CHEMISTRY,76.52,U/L,44.0,147.0,76.52,76.52,U/L,44.0,147.0,NORMAL,,WEEK 16,8,2025-05-22,112
STUDY001,LB,STUDY001-SUBJ0006,80,L00080,ALT,Alanine Aminotransferase,CHEMISTRY,35.78,U/L,7.0,56.0,35.78,35.78,U/L,7.0,56.0,NORMAL,,WEEK 16,8,2025-05-22,112
STUDY001,LB,STUDY001-SUBJ0006,81,L00081,HGB,Hemoglobin,HEMATOLOGY,15.36,g/dL,13.5,17.5,15.36,15.36,g/dL,13.5,17.5,NORMAL,,END OF TREATMENT,9,2025-06-19,140
STUDY001,LB,STUDY001-SUBJ0006,82,L00082,HCT,Hematocrit,HEMATOLOGY,47.62,%,41.0,51.0,47.62,47.62,%,41.0,51.0,NORMAL,,END OF TREATMENT,9,2025-06-19,140
STUDY001,LB,STUDY001-SUBJ0006,83,L00083,WBC,White Blood Cell Count,HEMATOLOGY,7.02,10^9/L,4.5,11.0,7.02,7.02,10^9/L,4.5,11.0,NORMAL,,END OF TREATMENT,9,2025-06-19,140
STUDY001,LB,STUDY001-SUBJ0006,84,L00084,PLT,Platelet Count,HEMATOLOGY,324.57,10^9/L,150.0,450.0,324.57,324.57,10^9/L,150.0,450.0,NORMAL,,END OF TREATMENT,9,2025-06-19,140
STUDY001,LB,STUDY001-SUBJ0006,85,L00085,GLUC,Glucose,CHEMISTRY,91.7,mg/dL,70.0,100.0,91.7,91.7,mg/dL,70.0,100.0,NORMAL,,END OF TREATMENT,9,2025-06-19,140
STUDY001,LB,STUDY001-SUBJ0006,86,L00086,BUN,Blood Urea Nitrogen,CHEMISTRY,8.14,mg/dL,7.0,20.0,8.14,8.14,mg/dL,7.0,20.0,NORMAL,,END OF TREATMENT,9,2025-06-19,140
STUDY001,LB,STUDY001-SUBJ0006,87,L00087,CREAT,Creatinine,CHEMISTRY,0.98,mg/dL,0.6,1.2,0.98,0.98,mg/dL,0.6,1.2,NORMAL,,END OF TREATMENT,9,2025-06-19,140
STUDY001,LB,STUDY001-SUBJ0006,88,L00088,BILI,Total Bilirubin,CHEMISTRY,0.66,mg/dL,0.1,1.2,0.66,0.66,mg/dL,0.1,1.2,NORMAL,,END OF TREATMENT,9,2025-06-19,140
STUDY001,LB,STUDY001-SUBJ0006,89,L00089,ALP,Alkaline Phosphatase,CHEMISTRY,76.61,U/L,44.0,147.0,76.61,76.61,U/L,44.0,147.0,NORMAL,,END OF TREATMENT,9,2025-06-19,140
STUDY001,LB,STUDY001-SUBJ0006,90,L00090,ALT,Alanine Aminotransferase,CHEMISTRY,36.37,U/L,7.0,56.0,36.37,36.37,U/L,7.0,56.0,NORMAL,,END OF TREATMENT,9,2025-06-19,140
STUDY001,LB,STUDY001-SUBJ0007,1,L00001,HGB,Hemoglobin,HEMATOLOGY,14.84,g/dL,13.5,17.5,14.84,14.84,g/dL,13.5,17.5,NORMAL,,SCREENING,1,2025-02-07,-14
STUDY001,LB,STUDY001-SUBJ0007,2,L00002,HCT,Hematocrit,HEMATOLOGY,49.1,%,41.0,51.0,49.1,49.1,%,41.0,51.0,NORMAL,,SCREENING,1,2025-02-07,-14
STUDY001,LB,STUDY001-SUBJ0007,3,L00003,WBC,White Blood Cell Count,HEMATOLOGY,7.05,10^9/L,4.5,11.0,7.05,7.05,10^9/L,4.5,11.0,NORMAL,,SCREENING,1,2025-02-07,-14
STUDY001,LB,STUDY001-SUBJ0007,4,L00004,PLT,Platelet Count,HEMATOLOGY,330.92,10^9/L,150.0,450.0,330.92,330.92,10^9/L,150.0,450.0,NORMAL,,SCREENING,1,2025-02-07,-14
STUDY001,LB,STUDY001-SUBJ0007,5,L00005,GLUC,Glucose,CHEMISTRY,67.38,mg/dL,70.0,100.0,67.38,67.38,mg/dL,70.0,100.0,LOW,,SCREENING,1,2025-02-07,-14
STUDY001,LB,STUDY001-SUBJ0007,6,L00006,BUN,Blood Urea Nitrogen,CHEMISTRY,7.83,mg/dL,7.0,20.0,7.83,7.83,mg/dL,7.0,20.0,NORMAL,,SCREENING,1,2025-02-07,-14
STUDY001,LB,STUDY001-SUBJ0007,7,L00007,CREAT,Creatinine,CHEMISTRY,1.15,mg/dL,0.6,1.2,1.15,1.15,mg/dL,0.6,1.2,NORMAL,,SCREENING,1,2025-02-07,-14
STUDY001,LB,STUDY001-SUBJ0007,8,L00008,BILI,Total Bilirubin,CHEMISTRY,0.4,mg/dL,0.1,1.2,0.4,0.4,mg/dL,0.1,1.2,NORMAL,,SCREENING,1,2025-02-07,-14
STUDY001,LB,STUDY001-SUBJ0007,9,L00009,ALP,Alkaline Phosphatase,CHEMISTRY,87.12,U/L,44.0,147.0,87.12,87.12,U/L,44.0,147.0,NORMAL,,SCREENING,1,2025-02-07,-14
STUDY001,LB,STUDY001-SUBJ0007,10,L00010,ALT,Alanine Aminotransferase,CHEMISTRY,35.88,U/L,7.0,56.0,35.88,35.88,U/L,7.0,56.0,NORMAL,,SCREENING,1,2025-02-07,-14
STUDY001,LB,STUDY001-SUBJ0007,11,L00011,HGB,Hemoglobin,HEMATOLOGY,14.97,g/dL,13.5,17.5,14.97,14.97,g/dL,13.5,17.5,NORMAL,Y,BASELINE,2,2025-02-21,1
STUDY001,LB,STUDY001-SUBJ0007,12,L00012,HCT,Hematocrit,HEMATOLOGY,49.16,%,41.0,51.0,49.16,49.16,%,41.0,51.0,NORMAL,Y,BASELINE,2,2025-02-21,1
STUDY001,LB,STUDY001-SUBJ0007,13,L00013,WBC,White Blood Cell Count,HEMATOLOGY,6.84,10^9/L,4.5,11.0,6.84,6.84,10^9/L,4.5,11.0,NORMAL,Y,BASELINE,2,2025-02-21,1
STUDY001,LB,STUDY001-SUBJ0007,14,L00014,PLT,Platelet Count,HEMATOLOGY,330.32,10^9/L,150.0,450.0,330.32,330.32,10^9/L,150.0,450.0,NORMAL,Y,BASELINE,2,2025-02-21,1
STUDY001,LB,STUDY001-SUBJ0007,15,L00015,GLUC,Glucose,CHEMISTRY,67.63,mg/dL,70.0,100.0,67.63,67.63,mg/dL,70.0,100.0,LOW,Y,BASELINE,2,2025-02-21,1
STUDY001,LB,STUDY001-SUBJ0007,16,L00016,BUN,Blood Urea Nitrogen,CHEMISTRY,7.18,mg/dL,7.0,20.0,7.18,7.18,mg/dL,7.0,20.0,NORMAL,Y,BASELINE,2,2025-02-21,1
STUDY001,LB,STUDY001-SUBJ0007,17,L00017,CREAT,Creatinine,CHEMISTRY,1.14,mg/dL,0.6,1.2,1.14,1.14,mg/dL,0.6,1.2,NORMAL,Y,BASELINE,2,2025-02-21,1
STUDY001,LB,STUDY001-SUBJ0007,18,L00018,BILI,Total Bilirubin,CHEMISTRY,0.37,mg/dL,0.1,1.2,0.37,0.37,mg/dL,0.1,1.2,NORMAL,Y,BASELINE,2,2025-02-21,1
STUDY001,LB,STUDY001-SUBJ0007,19,L00019,ALP,Alkaline Phosphatase,CHEMISTRY,88.51,U/L,44.0,147.0,88.51,88.51,U/L,44.0,147.0,NORMAL,Y,BASELINE,2,2025-02-21,1
STUDY001,LB,STUDY001-SUBJ0007,20,L00020,ALT,Alanine Aminotransferase,CHEMISTRY,37.25,U/L,7.0,56.0,37.25,37.25,U/L,7.0,56.0,NORMAL,Y,BASELINE,2,2025-02-21,1
STUDY001,LB,STUDY001-SUBJ0007,21,L00021,HGB,Hemoglobin,HEMATOLOGY,14.87,g/dL,13.5,17.5,14.87,14.87,g/dL,13.5,17.5,NORMAL,,WEEK 1,3,2025-02-27,7
STUDY001,LB,STUDY001-SUBJ0007,22,L00022,HCT,Hematocrit,HEMATOLOGY,49.23,%,41.0,51.0,49.23,49.23,%,41.0,51.0,NORMAL,,WEEK 1,3,2025-02-27,7
STUDY001,LB,STUDY001-SUBJ0007,23,L00023,WBC,White Blood Cell Count,HEMATOLOGY,7.0,10^9/L,4.5,11.0,7.0,7.0,10^9/L,4.5,11.0,NORMAL,,WEEK 1,3,2025-02-27,7
STUDY001,LB,STUDY001-SUBJ0007,24,L00024,PLT,Platelet Count,HEMATOLOGY,313.62,10^9/L,150.0,450.0,313.62,313.62,10^9/L,150.0,450.0,NORMAL,,WEEK 1,3,2025-02-27,7
STUDY001,LB,STUDY001-SUBJ0007,25,L00025,GLUC,Glucose,CHEMISTRY,65.55,mg/dL,70.0,100.0,65.55,65.55,mg/dL,70.0,100.0,LOW,,WEEK 1,3,2025-02-27,7
STUDY001,LB,STUDY001-SUBJ0007,26,L00026,BUN,Blood Urea Nitrogen,CHEMISTRY,7.28,mg/dL,7.0,20.0,7.28,7.28,mg/dL,7.0,20.0,NORMAL,,WEEK 1,3,2025-02-27,7
STUDY001,LB,STUDY001-SUBJ0007,27,L00027,CREAT,Creatinine,CHEMISTRY,1.15,mg/dL,0.6,1.2,1.15,1.15,mg/dL,0.6,1.2,NORMAL,,WEEK 1,3,2025-02-27,7
STUDY001,LB,STUDY001-SUBJ0007,28,L00028,BILI,Total Bilirubin,CHEMISTRY,0.36,mg/dL,0.1,1.2,0.36,0.36,mg/dL,0.1,1.2,NORMAL,,WEEK 1,3,2025-02-27,7
STUDY001,LB,STUDY001-SUBJ0007,29,L00029,ALP,Alkaline Phosphatase,CHEMISTRY,87.76,U/L,44.0,147.0,87.76,87.76,U/L,44.0,147.0,NORMAL,,WEEK 1,3,2025-02-27,7
STUDY001,LB,STUDY001-SUBJ0007,30,L00030,ALT,Alanine Aminotransferase,CHEMISTRY,37.44,U/L,7.0,56.0,37.44,37.44,U/L,7.0,56.0,NORMAL,,WEEK 1,3,2025-02-27,7
STUDY001,LB,STUDY001-SUBJ0007,31,L00031,HGB,Hemoglobin,HEMATOLOGY,15.07,g/dL,13.5,17.5,15.07,15.07,g/dL,13.5,17.5,NORMAL,,WEEK 2,4,2025-03-06,14
STUDY001,LB,STUDY001-SUBJ0007,32,L00032,HCT,Hematocrit,HEMATOLOGY,48.64,%,41.0,51.0,48.64,48.64,%,41.0,51.0,NORMAL,,WEEK 2,4,2025-03-06,14
STUDY001,LB,STUDY001-SUBJ0007,33,L00033,WBC,White Blood Cell Count,HEMATOLOGY,6.85,10^9/L,4.5,11.0,6.85,6.85,10^9/L,4.5,11.0,NORMAL,,WEEK 2,4,2025-03-06,14
STUDY001,LB,STUDY001-SUBJ0007,34,L00034,PLT,Platelet Count,HEMATOLOGY,321.34,10^9/L,150.0,450.0,321.34,321.34,10^9/L,150.0,450.0,NORMAL,,WEEK 2,4,2025-03-06,14
STUDY001,LB,STUDY001-SUBJ0007,35,L00035,GLUC,Glucose,CHEMISTRY,67.32,mg/dL,70.0,100.0,67.32,67.32,mg/dL,70.0,100.0,LOW,,WEEK 2,4,2025-03-06,14
STUDY001,LB,STUDY001-SUBJ0007,36,L00036,BUN,Blood Urea Nitrogen,CHEMISTRY,7.47,mg/dL,7.0,20.0,7.47,7.47,mg/dL,7.0,20.0,NORMAL,,WEEK 2,4,2025-03-06,14
STUDY001,LB,STUDY001-SUBJ0007,37,L00037,CREAT,Creatinine,CHEMISTRY,1.1,mg/dL,0.6,1.2,1.1,1.1,mg/dL,0.6,1.2,NORMAL,,WEEK 2,4,2025-03-06,14
STUDY001,LB,STUDY001-SUBJ0007,38,L00038,BILI,Total Bilirubin,CHEMISTRY,0.34,mg/dL,0.1,1.2,0.34,0.34,mg/dL,0.1,1.2,NORMAL,,WEEK 2,4,2025-03-06,14
STUDY001,LB,STUDY001-SUBJ0007,39,L00039,ALP,Alkaline Phosphatase,CHEMISTRY,89.14,U/L,44.0,147.0,89.14,89.14,U/L,44.0,147.0,NORMAL,,WEEK 2,4,2025-03-06,14
STUDY001,LB,STUDY001-SUBJ0007,40,L00040,ALT,Alanine Aminotransferase,CHEMISTRY,35.16,U/L,7.0,56.0,35.16,35.16,U/L,7.0,56.0,NORMAL,,WEEK 2,4,2025-03-06,14
STUDY001,LB,STUDY001-SUBJ0007,41,L00041,HGB,Hemoglobin,HEMATOLOGY,14.9,g/dL,13.5,17.5,14.9,14.9,g/dL,13.5,17.5,NORMAL,,WEEK 4,5,2025-03-20,28
STUDY001,LB,STUDY001-SUBJ0007,42,L00042,HCT,Hematocrit,HEMATOLOGY,48.95,%,41.0,51.0,48.95,48.95,%,41.0,51.0,NORMAL,,WEEK 4,5,2025-03-20,28
STUDY001,LB,STUDY001-SUBJ0007,43,L00043,WBC,White Blood Cell Count,HEMATOLOGY,7.03,10^9/L,4.5,11.0,7.03,7.03,10^9/L,4.5,11.0,NORMAL,,WEEK 4,5,2025-03-20,28
STUDY001,LB,STUDY001-SUBJ0007,44,L00044,PLT,Platelet Count,HEMATOLOGY,321.63,10^9/L,150.0,450.0,321.63,321.63,10^9/L,150.0,450.0,NORMAL,,WEEK 4,5,2025-03-20,28
STUDY001,LB,STUDY001-SUBJ0007,45,L00045,GLUC,Glucose,CHEMISTRY,67.24,mg/dL,70.0,100.0,67.24,67.24,mg/dL,70.0,100.0,LOW,,WEEK 4,5,2025-03-20,28
STUDY001,LB,STUDY001-SUBJ0007,46,L00046,BUN,Blood Urea Nitrogen,CHEMISTRY,7.78,mg/dL,7.0,20.0,7.78,7.78,mg/dL,7.0,20.0,NORMAL,,WEEK 4,5,2025-03-20,28
STUDY001,LB,STUDY001-SUBJ0007,47,L00047,CREAT,Creatinine,CHEMISTRY,1.13,mg/dL,0.6,1.2,1.13,1.13,mg/dL,0.6,1.2,NORMAL,,WEEK 4,5,2025-03-20,28
STUDY001,LB,STUDY001-SUBJ0007,48,L00048,BILI,Total Bilirubin,CHEMISTRY,0.35,mg/dL,0.1,1.2,0.35,0.35,mg/dL,0.1,1.2,NORMAL,,WEEK 4,5,2025-03-20,28
STUDY001,LB,STUDY001-SUBJ0007,49,L00049,ALP,Alkaline Phosphatase,CHEMISTRY,89.17,U/L,44.0,147.0,89.17,89.17,U/L,44.0,147.0,NORMAL,,WEEK 4,5,2025-03-20,28
STUDY001,LB,STUDY001-SUBJ0007,50,L00050,ALT,Alanine Aminotransferase,CHEMISTRY,33.38,U/L,7.0,56.0,33.38,33.38,U/L,7.0,56.0,NORMAL,,WEEK 4,5,2025-03-20,28
STUDY001,LB,STUDY001-SUBJ0007,51,L00051,HGB,Hemoglobin,HEMATOLOGY,15.04,g/dL,13.5,17.5,15.04,15.04,g/dL,13.5,17.5,NORMAL,,WEEK 8,6,2025-04-17,56
STUDY001,LB,STUDY001-SUBJ0007,52,L00052,HCT,Hematocrit,HEMATOLOGY,48.69,%,41.0,51.0,48.69,48.69,%,41.0,51.0,NORMAL,,WEEK 8,6,2025-04-17,56
STUDY001,LB,STUDY001-SUBJ0007,53,L00053,WBC,White Blood Cell Count,HEMATOLOGY,7.13,10^9/L,4.5,11.0,7.13,7.13,10^9/L,4.5,11.0,NORMAL,,WEEK 8,6,2025-04-17,56
STUDY001,LB,STUDY001-SUBJ0007,54,L00054,PLT,Platelet Count,HEMATOLOGY,322.33,10^9/L,150.0,450.0,322.33,322.33,10^9/L,150.0,450.0,NORMAL,,WEEK 8,6,2025-04-17,56
STUDY001,LB,STUDY001-SUBJ0007,55,L00055,GLUC,Glucose,CHEMISTRY,68.32,mg/dL,70.0,100.0,68.32,68.32,mg/dL,70.0,100.0,LOW,,WEEK 8,6,2025-04-17,56
STUDY001,LB,STUDY001-SUBJ0007,56,L00056,BUN,Blood Urea Nitrogen,CHEMISTRY,7.03,mg/dL,7.0,20.0,7.03,7.03,mg/dL,7.0,20.0,NORMAL,,WEEK 8,6,2025-04-17,56
STUDY001,LB,STUDY001-SUBJ0007,57,L00057,CREAT,Creatinine,CHEMISTRY,1.12,mg/dL,0.6,1.2,1.12,1.12,mg/dL,0.6,1.2,NORMAL,,WEEK 8,6,2025-04-17,56
STUDY001,LB,STUDY001-SUBJ0007,58,L00058,BILI,Total Bilirubin,CHEMISTRY,0.34,mg/dL,0.1,1.2,0.34,0.34,mg/dL,0.1,1.2,NORMAL,,WEEK 8,6,2025-04-17,56
STUDY001,LB,STUDY001-SUBJ0007,59,L00059,ALP,Alkaline Phosphatase,CHEMISTRY,89.1,U/L,44.0,147.0,89.1,89.1,U/L,44.0,147.0,NORMAL,,WEEK 8,6,2025-04-17,56
STUDY001,LB,STUDY001-SUBJ0007,60,L00060,ALT,Alanine Aminotransferase,CHEMISTRY,31.82,U/L,7.0,56.0,31.82,31.82,U/L,7.0,56.0,NORMAL,,WEEK 8,6,2025-04-17,56
STUDY001,LB,STUDY001-SUBJ0007,61,L00061,HGB,Hemoglobin,HEMATOLOGY,15.12,g/dL,13.5,17.5,15.12,15.12,g/dL,13.5,17.5,NORMAL,,WEEK 12,7,2025-05-15,84
STUDY001,LB,STUDY001-SUBJ0007,62,L00062,HCT,Hematocrit,HEMATOLOGY,48.87,%,41.0,51.0,48.87,48.87,%,41.0,51.0,NORMAL,,WEEK 12,7,2025-05-15,84
STUDY001,LB,STUDY001-SUBJ0007,63,L00063,WBC,White Blood Cell Count,HEMATOLOGY,6.97,10^9/L,4.5,11.0,6.97,6.97,10^9/L,4.5,11.0,NORMAL,,WEEK 12,7,2025-05-15,84
STUDY001,LB,STUDY001-SUBJ0007,64,L00064,PLT,Platelet Count,HEMATOLOGY,311.5,10^9/L,150.0,450.0,311.5,311.5,10^9/L,150.0,450.0,NORMAL,,WEEK 12,7,2025-05-15,84
STUDY001,LB,STUDY001-SUBJ0007,65,L00065,GLUC,Glucose,CHEMISTRY,66.65,mg/dL,70.0,100.0,66.65,66.65,mg/dL,70.0,100.0,LOW,,WEEK 12,7,2025-05-15,84
STUDY001,LB,STUDY001-SUBJ0007,66,L00066,BUN,Blood Urea Nitrogen,CHEMISTRY,7.52,mg/dL,7.0,20.0,7.52,7.52,mg/dL,7.0,20.0,NORMAL,,WEEK 12,7,2025-05-15,84
STUDY001,LB,STUDY001-SUBJ0007,67,L00067,CREAT,Creatinine,CHEMISTRY,1.11,mg/dL,0.6,1.2,1.11,1.11,mg/dL,0.6,1.2,NORMAL,,WEEK 12,7,2025-05-15,84
STUDY001,LB,STUDY001-SUBJ0007,68,L00068,BILI,Total Bilirubin,CHEMISTRY,0.37,mg/dL,0.1,1.2,0.37,0.37,mg/dL,0.1,1.2,NORMAL,,WEEK 12,7,2025-05-15,84
STUDY001,LB,STUDY001-SUBJ0007,69,L00069,ALP,Alkaline Phosphatase,CHEMISTRY,88.25,U/L,44.0,147.0,88.25,88.25,U/L,44.0,147.0,NORMAL,,WEEK 12,7,2025-05-15,84
STUDY001,LB,STUDY001-SUBJ0007,70,L00070,ALT,Alanine Aminotransferase,CHEMISTRY,37.1,U/L,7.0,56.0,37.1,37.1,U/L,7.0,56.0,NORMAL,,WEEK 12,7,2025-05-15,84
STUDY001,LB,STUDY001-SUBJ0007,71,L00071,HGB,Hemoglobin,HEMATOLOGY,15.03,g/dL,13.5,17.5,15.03,15.03,g/dL,13.5,17.5,NORMAL,,WEEK 16,8,2025-06-12,112
STUDY001,LB,STUDY001-SUBJ0007,72,L00072,HCT,Hematocrit,HEMATOLOGY,49.31,%,41.0,51.0,49.31,49.31,%,41.0,51.0,NORMAL,,WEEK 16,8,2025-06-12,112
STUDY001,LB,STUDY001-SUBJ0007,73,L00073,WBC,White Blood Cell Count,HEMATOLOGY,6.96,10^9/L,4.5,11.0,6.96,6.96,10^9/L,4.5,11.0,NORMAL,,WEEK 16,8,2025-06-12,112
STUDY001,LB,STUDY001-SUBJ0007,74,L00074,PLT,Platelet Count,HEMATOLOGY,319.85,10^9/L,150.0,450.0,319.85,319.85,10^9/L,150.0,450.0,NORMAL,,WEEK 16,8,2025-06-12,112
STUDY001,LB,STUDY001-SUBJ0007,75,L00075,GLUC,Glucose,CHEMISTRY,66.5,mg/dL,70.0,100.0,66.5,66.5,mg/dL,70.0,100.0,LOW,,WEEK 16,8,2025-06-12,112
STUDY001,LB,STUDY001-SUBJ0007,76,L00076,BUN,Blood Urea Nitrogen,CHEMISTRY,7.85,mg/dL,7.0,20.0,7.85,7.85,mg/dL,7.0,20.0,NORMAL,,WEEK 16,8,2025-06-12,112
STUDY001,LB,STUDY001-SUBJ0007,77,L00077,CREAT,Creatinine,CHEMISTRY,1.1,mg/dL,0.6,1.2,1.1,1.1,mg/dL,0.6,1.2,NORMAL,,WEEK 16,8,2025-06-12,112
STUDY001,LB,STUDY001-SUBJ0007,78,L00078,BILI,Total Bilirubin,CHEMISTRY,0.36,mg/dL,0.1,1.2,0.36,0.36,mg/dL,0.1,1.2,NORMAL,,WEEK 16,8,2025-06-12,112
STUDY001,LB,STUDY001-SUBJ0007,79,L00079,ALP,Alkaline Phosphatase,CHEMISTRY,85.83,U/L,44.0,147.0,85.83,85.83,U/L,44.0,147.0,NORMAL,,WEEK 16,8,2025-06-12,112
STUDY001,LB,STUDY001-SUBJ0007,80,L00080,ALT,Alanine Aminotransferase,CHEMISTRY,35.42,U/L,7.0,56.0,35.42,35.42,U/L,7.0,56.0,NORMAL,,WEEK 16,8,2025-06-12,112
STUDY001,LB,STUDY001-SUBJ0007,81,L00081,HGB,Hemoglobin,HEMATOLOGY,14.93,g/dL,13.5,17.5,14.93,14.93,g/dL,13.5,17.5,NORMAL,,END OF TREATMENT,9,2025-07-10,140
STUDY001,LB,STUDY001-SUBJ0007,82,L00082,HCT,Hematocrit,HEMATOLOGY,48.95,%,41.0,51.0,48.95,48.95,%,41.0,51.0,NORMAL,,END OF TREATMENT,9,2025-07-10,140
STUDY001,LB,STUDY001-SUBJ0007,83,L00083,WBC,White Blood Cell Count,HEMATOLOGY,6.92,10^9/L,4.5,11.0,6.92,6.92,10^9/L,4.5,11.0,NORMAL,,END OF TREATMENT,9,2025-07-10,140
STUDY001,LB,STUDY001-SUBJ0007,84,L00084,PLT,Platelet Count,HEMATOLOGY,322.53,10^9/L,150.0,450.0,322.53,322.53,10^9/L,150.0,450.0,NORMAL,,END OF TREATMENT,9,2025-07-10,140
STUDY001,LB,STUDY001-SUBJ0007,85,L00085,GLUC,Glucose,CHEMISTRY,64.98,mg/dL,70.0,100.0,64.98,64.98,mg/dL,70.0,100.0,LOW,,END OF TREATMENT,9,2025-07-10,140
STUDY001,LB,STUDY001-SUBJ0007,86,L00086,BUN,Blood Urea Nitrogen,CHEMISTRY,7.7,mg/dL,7.0,20.0,7.7,7.7,mg/dL,7.0,20.0,NORMAL,,END OF TREATMENT,9,2025-07-10,140
STUDY001,LB,STUDY001-SUBJ0007,87,L00087,CREAT,Creatinine,CHEMISTRY,1.14,mg/dL,0.6,1.2,1.14,1.14,mg/dL,0.6,1.2,NORMAL,,END OF TREATMENT,9,2025-07-10,140
STUDY001,LB,STUDY001-SUBJ0007,88,L00088,BILI,Total Bilirubin,CHEMISTRY,0.36,mg/dL,0.1,1.2,0.36,0.36,mg/dL,0.1,1.2,NORMAL,,END OF TREATMENT,9,2025-07-10,140
STUDY001,LB,STUDY001-SUBJ0007,89,L00089,ALP,Alkaline Phosphatase,CHEMISTRY,88.5,U/L,44.0,147.0,88.5,88.5,U/L,44.0,147.0,NORMAL,,END OF TREATMENT,9,2025-07-10,140
STUDY001,LB,STUDY001-SUBJ0007,90,L00090,ALT,Alanine Aminotransferase,CHEMISTRY,35.37,U/L,7.0,56.0,35.37,35.37,U/L,7.0,56.0,NORMAL,,END OF TREATMENT,9,2025-07-10,140
STUDY001,LB,STUDY001-SUBJ0008,1,L00001,HGB,Hemoglobin,HEMATOLOGY,14.0,g/dL,13.5,17.5,14.0,14.0,g/dL,13.5,17.5,NORMAL,,SCREENING,1,2025-07-05,-14
STUDY001,LB,STUDY001-SUBJ0008,2,L00002,HCT,Hematocrit,HEMATOLOGY,44.47,%,41.0,51.0,44.47,44.47,%,41.0,51.0,NORMAL,,SCREENING,1,2025-07-05,-14
STUDY001,LB,STUDY001-SUBJ0008,3,L00003,WBC,White Blood Cell Count,HEMATOLOGY,5.54,10^9/L,4.5,11.0,5.54,5.54,10^9/L,4.5,11.0,NORMAL,,SCREENING,1,2025-07-05,-14
STUDY001,LB,STUDY001-SUBJ0008,4,L00004,PLT,Platelet Count,HEMATOLOGY,313.99,10^9/L,150.0,450.0,313.99,313.99,10^9/L,150.0,450.0,NORMAL,,SCREENING,1,2025-07-05,-14
STUDY001,LB,STUDY001-SUBJ0008,5,L00005,GLUC,Glucose,CHEMISTRY,99.54,mg/dL,70.0,100.0,99.54,99.54,mg/dL,70.0,100.0,NORMAL,,SCREENING,1,2025-07-05,-14
STUDY001,LB,STUDY001-SUBJ0008,6,L00006,BUN,Blood Urea Nitrogen,CHEMISTRY,12.75,mg/dL,7.0,20.0,12.75,12.75,mg/dL,7.0,20.0,NORMAL,,SCREENING,1,2025-07-05,-14
STUDY001,LB,STUDY001-SUBJ0008,7,L00007,CREAT,Creatinine,CHEMISTRY,1.07,mg/dL,0.6,1.2,1.07,1.07,mg/dL,0.6,1.2,NORMAL,,SCREENING,1,2025-07-05,-14
STUDY001,LB,STUDY001-SUBJ0008,8,L00008,BILI,Total Bilirubin,CHEMISTRY,0.61,mg/dL,0.1,1.2,0.61,0.61,mg/dL,0.1,1.2,NORMAL,,SCREENING,1,2025-07-05,-14
STUDY001,LB,STUDY001-SUBJ0008,9,L00009,ALP,Alkaline Phosphatase,CHEMISTRY,92.16,U/L,44.0,147.0,92.16,92.16,U/L,44.0,147.0,NORMAL,,SCREENING,1,2025-07-05,-14
STUDY001,LB,STUDY001-SUBJ0008,10,L00010,ALT,Alanine Aminotransferase,CHEMISTRY,21.16,U/L,7.0,56.0,21.16,21.16,U/L,7.0,56.0,NORMAL,,SCREENING,1,2025-07-05,-14
STUDY001,LB,STUDY001-SUBJ0008,11,L00011,HGB,Hemoglobin,HEMATOLOGY,14.1,g/dL,13.5,17.5,14.1,14.1,g/dL,13.5,17.5,NORMAL,Y,BASELINE,2,2025-07-19,1
STUDY001,LB,STUDY001-SUBJ0008,12,L00012,HCT,Hematocrit,HEMATOLOGY,44.4,%,41.0,51.0,44.4,44.4,%,41.0,51.0,NORMAL,Y,BASELINE,2,2025-07-19,1
STUDY001,LB,STUDY001-SUBJ0008,13,L00013,WBC,White Blood Cell Count,HEMATOLOGY,5.79,10^9/L,4.5,11.0,5.79,5.79,10^9/L,4.5,11.0,NORMAL,Y,BASELINE,2,2025-07-19,1
STUDY001,LB,STUDY001-SUBJ0008,14,L00014,PLT,Platelet Count,HEMATOLOGY,306.91,10^9/L,150.0,450.0,306.91,306.91,10^9/L,150.0,450.0,NORMAL,Y,BASELINE,2,2025-07-19,1
STUDY001,LB,STUDY001-SUBJ0008,15,L00015,GLUC,Glucose,CHEMISTRY,100.29,mg/dL,70.0,100.0,100.29,100.29,mg/dL,70.0,100.0,HIGH,Y,BASELINE,2,2025-07-19,1
STUDY001,LB,STUDY001-SUBJ0008,16,L00016,BUN,Blood Urea Nitrogen,CHEMISTRY,12.52,mg/dL,7.0,20.0,12.52,12.52,mg/dL,7.0,20.0,NORMAL,Y,BASELINE,2,2025-07-19,1
STUDY001,LB,STUDY001-SUBJ0008,17,L00017,CREAT,Creatinine,CHEMISTRY,1.06,mg/dL,0.6,1.2,1.06,1.06,mg/dL,0.6,1.2,NORMAL,Y,BASELINE,2,2025-07-19,1
STUDY001,LB,STUDY001-SUBJ0008,18,L00018,BILI,Total Bilirubin,CHEMISTRY,0.63,mg/dL,0.1,1.2,0.63,0.63,mg/dL,0.1,1.2,NORMAL,Y,BASELINE,2,2025-07-19,1
STUDY001,LB,STUDY001-SUBJ0008,19,L00019,ALP,Alkaline Phosphatase,CHEMISTRY,91.81,U/L,44.0,147.0,91.81,91.81,U/L,44.0,147.0,NORMAL,Y,BASELINE,2,2025-07-19,1
STUDY001,LB,STUDY001-SUBJ0008,20,L00020,ALT,Alanine Aminotransferase,CHEMISTRY,19.82,U/L,7.0,56.0,19.82,19.82,U/L,7.0,56.0,NORMAL,Y,BASELINE,2,2025-07-19,1
STUDY001,LB,STUDY001-SUBJ0008,21,L00021,HGB,Hemoglobin,HEMATOLOGY,13.92,g/dL,13.5,17.5,13.92,13.92,g/dL,13.5,17.5,NORMAL,,WEEK 1,3,2025-07-25,7
STUDY001,LB,STUDY001-SUBJ0008,22,L00022,HCT,Hematocrit,HEMATOLOGY,45.09,%,41.0,51.0,45.09,45.09,%,41.0,51.0,NORMAL,,WEEK 1,3,2025-07-25,7
STUDY001,LB,STUDY001-SUBJ0008,23,L00023,WBC,White Blood Cell Count,HEMATOLOGY,5.7,10^9/L,4.5,11.0,5.7,5.7,10^9/L,4.5,11.0,NORMAL,,WEEK 1,3,2025-07-25,7
STUDY001,LB,STUDY001-SUBJ0008,24,L00024,PLT,Platelet Count,HEMATOLOGY,309.07,10^9/L,150.0,450.0,309.07,309.07,10^9/L,150.0,450.0,NORMAL,,WEEK 1,3,2025-07-25,7
STUDY001,LB,STUDY001-SUBJ0008,25,L00025,GLUC,Glucose,CHEMISTRY,99.67,mg/dL,70.0,100.0,99.67,99.67,mg/dL,70.0,100.0,NORMAL,,WEEK 1,3,2025-07-25,7
STUDY001,LB,STUDY001-SUBJ0008,26,L00026,BUN,Blood Urea Nitrogen,CHEMISTRY,12.88,mg/dL,7.0,20.0,12.88,12.88,mg/dL,7.0,20.0,NORMAL,,WEEK 1,3,2025-07-25,7
STUDY001,LB,STUDY001-SUBJ0008,27,L00027,CREAT,Creatinine,CHEMISTRY,1.06,mg/dL,0.6,1.2,1.06,1.06,mg/dL,0.6,1.2,NORMAL,,WEEK 1,3,2025-07-25,7
STUDY001,LB,STUDY001-SUBJ0008,28,L00028,BILI,Total Bilirubin,CHEMISTRY,0.68,mg/dL,0.1,1.2,0.68,0.68,mg/dL,0.1,1.2,NORMAL,,WEEK 1,3,2025-07-25,7
STUDY001,LB,STUDY001-SUBJ0008,29,L00029,ALP,Alkaline Phosphatase,CHEMISTRY,91.01,U/L,44.0,147.0,91.01,91.01,U/L,44.0,147.0,NORMAL,,WEEK 1,3,2025-07-25,7
STUDY001,LB,STUDY001-SUBJ0008,30,L00030,ALT,Alanine Aminotransferase,CHEMISTRY,22.77,U/L,7.0,56.0,22.77,22.77,U/L,7.0,56.0,NORMAL,,WEEK 1,3,2025-07-25,7
STUDY001,LB,STUDY001-SUBJ0008,31,L00031,HGB,Hemoglobin,HEMATOLOGY,13.94,g/dL,13.5,17.5,13.94,13.94,g/dL,13.5,17.5,NORMAL,,WEEK 2,4,2025-08-01,14
STUDY001,LB,STUDY001-SUBJ0008,32,L00032,HCT,Hematocrit,HEMATOLOGY,44.45,%,41.0,51.0,44.45,44.45,%,41.0,51.0,NORMAL,,WEEK 2,4,2025-08-01,14
STUDY001,LB,STUDY001-SUBJ0008,33,L00033,WBC,White Blood Cell Count,HEMATOLOGY,5.53,10^9/L,4.5,11.0,5.53,5.53,10^9/L,4.5,11.0,NORMAL,,WEEK 2,4,2025-08-01,14
STUDY001,LB,STUDY001-SUBJ0008,34,L00034,PLT,Platelet Count,HEMATOLOGY,308.96,10^9/L,150.0,450.0,308.96,308.96,10^9/L,150.0,450.0,NORMAL,,WEEK 2,4,2025-08-01,14
STUDY001,LB,STUDY001-SUBJ0008,35,L00035,GLUC,Glucose,CHEMISTRY,100.61,mg/dL,70.0,100.0,100.61,100.61,mg/dL,70.0,100.0,HIGH,,WEEK 2,4,2025-08-01,14
STUDY001,LB,STUDY001-SUBJ0008,36,L00036,BUN,Blood Urea Nitrogen,CHEMISTRY,12.57,mg/dL,7.0,20.0,12.57,12.57,mg/dL,7.0,20.0,NORMAL,,WEEK 2,4,2025-08-01,14
STUDY001,LB,STUDY001-SUBJ0008,37,L00037,CREAT,Creatinine,CHEMISTRY,1.04,mg/dL,0.6,1.2,1.04,1.04,mg/dL,0.6,1.2,NORMAL,,WEEK 2,4,2025-08-01,14
STUDY001,LB,STUDY001-SUBJ0008,38,L00038,BILI,Total Bilirubin,CHEMISTRY,0.64,mg/dL,0.1,1.2,0.64,0.64,mg/dL,0.1,1.2,NORMAL,,WEEK 2,4,2025-08-01,14
STUDY001,LB,STUDY001-SUBJ0008,39,L00039,ALP,Alkaline Phosphatase,CHEMISTRY,91.35,U/L,44.0,147.0,91.35,91.35,U/L,44.0,147.0,NORMAL,,WEEK 2,4,2025-08-01,14
STUDY001,LB,STUDY001-SUBJ0008,40,L00040,ALT,Alanine Aminotransferase,CHEMISTRY,20.92,U/L,7.0,56.0,20.92,20.92,U/L,7.0,56.0,NORMAL,,WEEK 2,4,2025-08-01,14
STUDY001,LB,STUDY001-SUBJ0008,41,L00041,HGB,Hemoglobin,HEMATOLOGY,14.19,g/dL,13.5,17.5,14.19,14.19,g/dL,13.5,17.5,NORMAL,,WEEK 4,5,2025-08-15,28
STUDY001,LB,STUDY001-SUBJ0008,42,L00042,HCT,Hematocrit,HEMATOLOGY,44.52,%,41.0,51.0,44.52,44.52,%,41.0,51.0,NORMAL,,WEEK 4,5,2025-08-15,28
STUDY001,LB,STUDY001-SUBJ0008,43,L00043,WBC,White Blood Cell Count,HEMATOLOGY,5.57,10^9/L,4.5,11.0,5.57,5.57,10^9/L,4.5,11.0,NORMAL,,WEEK 4,5,2025-08-15,28
STUDY001,LB,STUDY001-SUBJ0008,44,L00044,PLT,Platelet Count,HEMATOLOGY,310.14,10^9/L,150.0,450.0,310.14,310.14,10^9/L,150.0,450.0,NORMAL,,WEEK 4,5,2025-08-15,28
STUDY001,LB,STUDY001-SUBJ0008,45,L00045,GLUC,Glucose,CHEMISTRY,100.11,mg/dL,70.0,100.0,100.11,100.11,mg/dL,70.0,100.0,HIGH,,WEEK 4,5,2025-08-15,28
STUDY001,LB,STUDY001-SUBJ0008,46,L00046,BUN,Blood Urea Nitrogen,CHEMISTRY,12.95,mg/dL,7.0,20.0,12.95,12.95,mg/dL,7.0,20.0,NORMAL,,WEEK 4,5,2025-08-15,28
STUDY001,LB,STUDY001-SUBJ0008,47,L00047,CREAT,Creatinine,CHEMISTRY,1.04,mg/dL,0.6,1.2,1.04,1.04,mg/dL,0.6,1.2,NORMAL,,WEEK 4,5,2025-08-15,28
STUDY001,LB,STUDY001-SUBJ0008,48,L00048,BILI,Total Bilirubin,CHEMISTRY,0.64,mg/dL,0.1,1.2,0.64,0.64,mg/dL,0.1,1.2,NORMAL,,WEEK 4,5,2025-08-15,28
STUDY001,LB,STUDY001-SUBJ0008,49,L00049,ALP,Alkaline Phosphatase,CHEMISTRY,91.71,U/L,44.0,147.0,91.71,91.71,U/L,44.0,147.0,NORMAL,,WEEK 4,5,2025-08-15,28
STUDY001,LB,STUDY001-SUBJ0008,50,L00050,ALT,Alanine Aminotransferase,CHEMISTRY,22.1,U/L,7.0,56.0,22.1,22.1,U/L,7.0,56.0,NORMAL,,WEEK 4,5,2025-08-15,28
STUDY001,LB,STUDY001-SUBJ0008,51,L00051,HGB,Hemoglobin,HEMATOLOGY,14.02,g/dL,13.5,17.5,14.02,14.02,g/dL,13.5,17.5,NORMAL,,WEEK 8,6,2025-09-12,56
STUDY001,LB,STUDY001-SUBJ0008,52,L00052,HCT,Hematocrit,HEMATOLOGY,44.25,%,41.0,51.0,44.25,44.25,%,41.0,51.0,NORMAL,,WEEK 8,6,2025-09-12,56
STUDY001,LB,STUDY001-SUBJ0008,53,L00053,WBC,White Blood Cell Count,HEMATOLOGY,5.61,10^9/L,4.5,11.0,5.61,5.61,10^9/L,4.5,11.0,NORMAL,,WEEK 8,6,2025-09-12,56
STUDY001,LB,STUDY001-SUBJ0008,54,L00054,PLT,Platelet Count,HEMATOLOGY,313.33,10^9/L,150.0,450.0,313.33,313.33,10^9/L,150.0,450.0,NORMAL,,WEEK 8,6,2025-09-12,56
STUDY001,LB,STUDY001-SUBJ0008,55,L00055,GLUC,Glucose,CHEMISTRY,100.7,mg/dL,70.0,100.0,100.7,100.7,mg/dL,70.0,100.0,HIGH,,WEEK 8,6,2025-09-12,56
STUDY001,LB,STUDY001-SUBJ0008,56,L00056,BUN,Blood Urea Nitrogen,CHEMISTRY,12.53,mg/dL,7.0,20.0,12.53,12.53,mg/dL,7.0,20.0,NORMAL,,WEEK 8,6,2025-09-12,56
STUDY001,LB,STUDY001-SUBJ0008,57,L00057,CREAT,Creatinine,CHEMISTRY,1.05,mg/dL,0.6,1.2,1.05,1.05,mg/dL,0.6,1.2,NORMAL,,WEEK 8,6,2025-09-12,56
STUDY001,LB,STUDY001-SUBJ0008,58,L00058,BILI,Total Bilirubin,CHEMISTRY,0.63,mg/dL,0.1,1.2,0.63,0.63,mg/dL,0.1,1.2,NORMAL,,WEEK 8,6,2025-09-12,56
STUDY001,LB,STUDY001-SUBJ0008,59,L00059,ALP,Alkaline Phosphatase,CHEMISTRY,93.75,U/L,44.0,147.0,93.75,93.75,U/L,44.0,147.0,NORMAL,,WEEK 8,6,2025-09-12,56
STUDY001,LB,STUDY001-SUBJ0008,60,L00060,ALT,Alanine Aminotransferase,CHEMISTRY,21.65,U/L,7.0,56.0,21.65,21.65,U/L,7.0,56.0,NORMAL,,WEEK 8,6,2025-09-12,56
STUDY001,LB,STUDY001-SUBJ0008,61,L00061,HGB,Hemoglobin,HEMATOLOGY,13.91,g/dL,13.5,17.5,13.91,13.91,g/dL,13.5,17.5,NORMAL,,WEEK 12,7,2025-10-10,84
STUDY001,LB,STUDY001-SUBJ0008,62,L00062,HCT,Hematocrit,HEMATOLOGY,44.2,%,41.0,51.0,44.2,44.2,%,41.0,51.0,NORMAL,,WEEK 12,7,2025-10-10,84
STUDY001,LB,STUDY001-SUBJ0008,63,L00063,WBC,White Blood Cell Count,HEMATOLOGY,5.39,10^9/L,4.5,11.0,5.39,5.39,10^9/L,4.5,11.0,NORMAL,,WEEK 12,7,2025-10-10,84
STUDY001,LB,STUDY001-SUBJ0008,64,L00064,PLT,Platelet Count,HEMATOLOGY,305.83,10^9/L,150.0,450.0,305.83,305.83,10^9/L,150.0,450.0,NORMAL,,WEEK 12,7,2025-10-10,84
STUDY001,LB,STUDY001-SUBJ0008,65,L00065,GLUC,Glucose,CHEMISTRY,100.48,mg/dL,70.0,100.0,100.48,100.48,mg/dL,70.0,100.0,HIGH,,WEEK 12,7,2025-10-10,84
STUDY001,LB,STUDY001-SUBJ0008,66,L00066,BUN,Blood Urea Nitrogen,CHEMISTRY,12.35,mg/dL,7.0,20.0,12.35,12.35,mg/dL,7.0,20.0,NORMAL,,WEEK 12,7,2025-10-10,84
STUDY001,LB,STUDY001-SUBJ0008,67,L00067,CREAT,Creatinine,CHEMISTRY,1.06,mg/dL,0.6,1.2,1.06,1.06,mg/dL,0.6,1.2,NORMAL,,WEEK 12,7,2025-10-10,84
STUDY001,LB,STUDY001-SUBJ0008,68,L00068,BILI,Total Bilirubin,CHEMISTRY,0.63,mg/dL,0.1,1.2,0.63,0.63,mg/dL,0.1,1.2,NORMAL,,WEEK 12,7,2025-10-10,84
STUDY001,LB,STUDY001-SUBJ0008,69,L00069,ALP,Alkaline Phosphatase,CHEMISTRY,91.74,U/L,44.0,147.0,91.74,91.74,U/L,44.0,147.0,NORMAL,,WEEK 12,7,2025-10-10,84
STUDY001,LB,STUDY001-SUBJ0008,70,L00070,ALT,Alanine Aminotransferase,CHEMISTRY,22.95,U/L,7.0,56.0,22.95,22.95,U/L,7.0,56.0,NORMAL,,WEEK 12,7,2025-10-10,84
STUDY001,LB,STUDY001-SUBJ0008,71,L00071,HGB,Hemoglobin,HEMATOLOGY,13.94,g/dL,13.5,17.5,13.94,13.94,g/dL,13.5,17.5,NORMAL,,WEEK 16,8,2025-11-07,112
STUDY001,LB,STUDY001-SUBJ0008,72,L00072,HCT,Hematocrit,HEMATOLOGY,44.24,%,41.0,51.0,44.24,44.24,%,41.0,51.0,NORMAL,,WEEK 16,8,2025-11-07,112
STUDY001,LB,STUDY001-SUBJ0008,73,L00073,WBC,White Blood Cell Count,HEMATOLOGY,5.67,10^9/L,4.5,11.0,5.67,5.67,10^9/L,4.5,11.0,NORMAL,,WEEK 16,8,2025-11-07,112
STUDY001,LB,STUDY001-SUBJ0008,74,L00074,PLT,Platelet Count,HEMATOLOGY,312.36,10^9/L,150.0,450.0,312.36,312.36,10^9/L,150.0,450.0,NORMAL,,WEEK 16,8,2025-11-07,112
STUDY001,LB,STUDY001-SUBJ0008,75,L00075,GLUC,Glucose,CHEMISTRY,98.85,mg/dL,70.0,100.0,98.85,98.85,mg/dL,70.0,100.0,NORMAL,,WEEK 16,8,2025-11-07,112
STUDY001,LB,STUDY001-SUBJ0008,76,L00076,BUN,Blood Urea Nitrogen,CHEMISTRY,12.61,mg/dL,7.0,20.0,12.61,12.61,mg/dL,7.0,20.0,NORMAL,,WEEK 16,8,2025-11-07,112
STUDY001,LB,STUDY001-SUBJ0008,77,L00077,CREAT,Creatinine,CHEMISTRY,1.07,mg/dL,0.6,1.2,1.07,1.07,mg/dL,0.6,1.2,NORMAL,,WEEK 16,8,2025-11-07,112
STUDY001,LB,STUDY001-SUBJ0008,78,L00078,BILI,Total Bilirubin,CHEMISTRY,0.62,mg/dL,0.1,1.2,0.62,0.62,mg/dL,0.1,1.2,NORMAL,,WEEK 16,8,2025-11-07,112
STUDY001,LB,STUDY001-SUBJ0008,79,L00079,ALP,Alkaline Phosphatase,CHEMISTRY,91.82,U/L,44.0,147.0,91.82,91.82,U/L,44.0,147.0,NORMAL,,WEEK 16,8,2025-11-07,112
STUDY001,LB,STUDY001-SUBJ0008,80,L00080,ALT,Alanine Aminotransferase,CHEMISTRY,21.5,U/L,7.0,56.0,21.5,21.5,U/L,7.0,56.0,NORMAL,,WEEK 16,8,2025-11-07,112
STUDY001,LB,STUDY001-SUBJ0008,81,L00081,HGB,Hemoglobin,HEMATOLOGY,13.95,g/dL,13.5,17.5,13.95,13.95,g/dL,13.5,17.5,NORMAL,,END OF TREATMENT,9,2025-12-05,140
STUDY001,LB,STUDY001-SUBJ0008,82,L00082,HCT,Hematocrit,HEMATOLOGY,44.16,%,41.0,51.0,44.16,44.16,%,41.0,51.0,NORMAL,,END OF TREATMENT,9,2025-12-05,140
STUDY001,LB,STUDY001-SUBJ0008,83,L00083,WBC,White Blood Cell Count,HEMATOLOGY,5.97,10^9/L,4.5,11.0,5.97,5.97,10^9/L,4.5,11.0,NORMAL,,END OF TREATMENT,9,2025-12-05,140
STUDY001,LB,STUDY001-SUBJ0008,84,L00084,PLT,Platelet Count,HEMATOLOGY,310.02,10^9/L,150.0,450.0,310.02,310.02,10^9/L,150.0,450.0,NORMAL,,END OF TREATMENT,9,2025-12-05,140
STUDY001,LB,STUDY001-SUBJ0008,85,L00085,GLUC,Glucose,CHEMISTRY,100.15,mg/dL,70.0,100.0,100.15,100.15,mg/dL,70.0,100.0,HIGH,,END OF TREATMENT,9,2025-12-05,140
STUDY001,LB,STUDY001-SUBJ0008,86,L00086,BUN,Blood Urea Nitrogen,CHEMISTRY,12.74,mg/dL,7.0,20.0,12.74,12.74,mg/dL,7.0,20.0,NORMAL,,END OF TREATMENT,9,2025-12-05,140
STUDY001,LB,STUDY001-SUBJ0008,87,L00087,CREAT,Creatinine,CHEMISTRY,1.08,mg/dL,0.6,1.2,1.08,1.08,mg/dL,0.6,1.2,NORMAL,,END OF TREATMENT,9,2025-12-05,140
STUDY001,LB,STUDY001-SUBJ0008,88,L00088,BILI,Total Bilirubin,CHEMISTRY,0.63,mg/dL,0.1,1.2,0.63,0.63,mg/dL,0.1,1.2,NORMAL,,END OF TREATMENT,9,2025-12-05,140
STUDY001,LB,STUDY001-SUBJ0008,89,L00089,ALP,Alkaline Phosphatase,CHEMISTRY,94.49,U/L,44.0,147.0,94.49,94.49,U/L,44.0,147.0,NORMAL,,END OF TREATMENT,9,2025-12-05,140
STUDY001,LB,STUDY001-SUBJ0008,90,L00090,ALT,Alanine Aminotransferase,CHEMISTRY,21.48,U/L,7.0,56.0,21.48,21.48,U/L,7.0,56.0,NORMAL,,END OF TREATMENT,9,2025-12-05,140
STUDY001,LB,STUDY001-SUBJ0009,1,L00001,HGB,Hemoglobin,HEMATOLOGY,13.46,g/dL,13.5,17.5,13.46,13.46,g/dL,13.5,17.5,LOW,,SCREENING,1,2024-08-10,-14
STUDY001,LB,STUDY001-SUBJ0009,2,L00002,HCT,Hematocrit,HEMATOLOGY,46.85,%,41.0,51.0,46.85,46.85,%,41.0,51.0,NORMAL,,SCREENING,1,2024-08-10,-14
STUDY001,LB,STUDY001-SUBJ0009,3,L00003,WBC,White Blood Cell Count,HEMATOLOGY,8.46,10^9/L,4.5,11.0,8.46,8.46,10^9/L,4.5,11.0,NORMAL,,SCREENING,1,2024-08-10,-14
STUDY001,LB,STUDY001-SUBJ0009,4,L00004,PLT,Platelet Count,HEMATOLOGY,326.84,10^9/L,150.0,450.0,326.84,326.84,10^9/L,150.0,450.0,NORMAL,,SCREENING,1,2024-08-10,-14
STUDY001,LB,STUDY001-SUBJ0009,5,L00005,GLUC,Glucose,CHEMISTRY,101.1,mg/dL,70.0,100.0,101.1,101.1,mg/dL,70.0,100.0,HIGH,,SCREENING,1,2024-08-10,-14
STUDY001,LB,STUDY001-SUBJ0009,6,L00006,BUN,Blood Urea Nitrogen,CHEMISTRY,20.11,mg/dL,7.0,20.0,20.11,20.11,mg/dL,7.0,20.0,HIGH,,SCREENING,1,2024-08-10,-14
STUDY001,LB,STUDY001-SUBJ0009,7,L00007,CREAT,Creatinine,CHEMISTRY,1.12,mg/dL,0.6,1.2,1.12,1.12,mg/dL,0.6,1.2,NORMAL,,SCREENING,1,2024-08-10,-14
STUDY001,LB,STUDY001-SUBJ0009,8,L00008,BILI,Total Bilirubin,CHEMISTRY,0.71,mg/dL,0.1,1.2,0.71,0.71,mg/dL,0.1,1.2,NORMAL,,SCREENING,1,2024-08-10,-14
STUDY001,LB,STUDY001-SUBJ0009,9,L00009,ALP,Alkaline Phosphatase,CHEMISTRY,99.79,U/L,44.0,147.0,99.79,99.79,U/L,44.0,147.0,NORMAL,,SCREENING,1,2024-08-10,-14
STUDY001,LB,STUDY001-SUBJ0009,10,L00010,ALT,Alanine Aminotransferase,CHEMISTRY,23.86,U/L,7.0,56.0,23.86,23.86,U/L,7.0,56.0,NORMAL,,SCREENING,1,2024-08-10,-14
STUDY001,LB,STUDY001-SUBJ0009,11,L00011,HGB,Hemoglobin,HEMATOLOGY,13.46,g/dL,13.5,17.5,13.46,13.46,g/dL,13.5,17.5,LOW,Y,BASELINE,2,2024-08-24,1
STUDY001,LB,STUDY001-SUBJ0009,12,L00012,HCT,Hematocrit,HEMATOLOGY,47.65,%,41.0,51.0,47.65,47.65,%,41.0,51.0,NORMAL,Y,BASELINE,2,2024-08-24,1
STUDY001,LB,STUDY001-SUBJ0009,13,L00013,WBC,White Blood Cell Count,HEMATOLOGY,8.51,10^9/L,4.5,11.0,8.51,8.51,10^9/L,4.5,11.0,NORMAL,Y,BASELINE,2,2024-08-24,1
STUDY001,LB,STUDY001-SUBJ0009,14,L00014,PLT,Platelet Count,HEMATOLOGY,325.55,10^9/L,150.0,450.0,325.55,325.55,10^9/L,150.0,450.0,NORMAL,Y,BASELINE,2,2024-08-24,1
STUDY001,LB,STUDY001-SUBJ0009,15,L00015,GLUC,Glucose,CHEMISTRY,101.2,mg/dL,70.0,100.0,101.2,101.2,mg/dL,70.0,100.0,HIGH,Y,BASELINE,2,2024-08-24,1
STUDY001,LB,STUDY001-SUBJ0009,16,L00016,BUN,Blood Urea Nitrogen,CHEMISTRY,20.1,mg/dL,7.0,20.0,20.1,20.1,mg/dL,7.0,20.0,HIGH,Y,BASELINE,2,2024-08-24,1
STUDY001,LB,STUDY001-SUBJ0009,17,L00017,CREAT,Creatinine,CHEMISTRY,1.12,mg/dL,0.6,1.2,1.12,1.12,mg/dL,0.6,1.2,NORMAL,Y,BASELINE,2,2024-08-24,1
STUDY001,LB,STUDY001-SUBJ0009,18,L00018,BILI,Total Bilirubin,CHEMISTRY,0.71,mg/dL,0.1,1.2,0.71,0.71,mg/dL,0.1,1.2,NORMAL,Y,BASELINE,2,2024-08-24,1
STUDY001,LB,STUDY001-SUBJ0009,19,L00019,ALP,Alkaline Phosphatase,CHEMISTRY,102.56,U/L,44.0,147.0,102.56,102.56,U/L,44.0,147.0,NORMAL,Y,BASELINE,2,2024-08-24,1
STUDY001,LB,STUDY001-SUBJ0009,20,L00020,ALT,Alanine Aminotransferase,CHEMISTRY,22.87,U/L,7.0,56.0,22.87,22.87,U/L,7.0,56.0,NORMAL,Y,BASELINE,2,2024-08-24,1
STUDY001,LB,STUDY001-SUBJ0009,21,L00021,HGB,Hemoglobin,HEMATOLOGY,13.2,g/dL,13.5,17.5,13.2,13.2,g/dL,13.5,17.5,LOW,,WEEK 1,3,2024-08-30,7
STUDY001,LB,STUDY001-SUBJ0009,22,L00022,HCT,Hematocrit,HEMATOLOGY,47.09,%,41.0,51.0,47.09,47.09,%,41.0,51.0,NORMAL,,WEEK 1,3,2024-08-30,7
STUDY001,LB,STUDY001-SUBJ0009,23,L00023,WBC,White Blood Cell Count,HEMATOLOGY,8.35,10^9/L,4.5,11.0,8.35,8.35,10^9/L,4.5,11.0,NORMAL,,WEEK 1,3,2024-08-30,7
STUDY001,LB,STUDY001-SUBJ0009,24,L00024,PLT,Platelet Count,HEMATOLOGY,323.53,10^9/L,150.0,450.0,323.53,323.53,10^9/L,150.0,450.0,NORMAL,,WEEK 1,3,2024-08-30,7
STUDY001,LB,STUDY001-SUBJ0009,25,L00025,GLUC,Glucose,CHEMISTRY,100.43,mg/dL,70.0,100.0,100.43,100.43,mg/dL,70.0,100.0,HIGH,,WEEK 1,3,2024-08-30,7
STUDY001,LB,STUDY001-SUBJ0009,26,L00026,BUN,Blood Urea Nitrogen,CHEMISTRY,20.31,mg/dL,7.0,20.0,20.31,20.31,mg/dL,7.0,20.0,HIGH,,WEEK 1,3,2024-08-30,7
STUDY001,LB,STUDY001-SUBJ0009,27,L00027,CREAT,Creatinine,CHEMISTRY,1.1,mg/dL,0.6,1.2,1.1,1.1,mg/dL,0.6,1.2,NORMAL,,WEEK 1,3,2024-08-30,7
STUDY001,LB,STUDY001-SUBJ0009,28,L00028,BILI,Total Bilirubin,CHEMISTRY,0.74,mg/dL,0.1,1.2,0.74,0.74,mg/dL,0.1,1.2,NORMAL,,WEEK 1,3,2024-08-30,7
STUDY001,LB,STUDY001-SUBJ0009,29,L00029,ALP,Alkaline Phosphatase,CHEMISTRY,102.23,U/L,44.0,147.0,102.23,102.23,U/L,44.0,147.0,NORMAL,,WEEK 1,3,2024-08-30,7
STUDY001,LB,STUDY001-SUBJ0009,30,L00030,ALT,Alanine Aminotransferase,CHEMISTRY,21.58,U/L,7.0,56.0,21.58,21.58,U/L,7.0,56.0,NORMAL,,WEEK 1,3,2024-08-30,7
STUDY001,LB,STUDY001-SUBJ0009,31,L00031,HGB,Hemoglobin,HEMATOLOGY,13.37,g/dL,13.5,17.5,13.37,13.37,g/dL,13.5,17.5,LOW,,WEEK 2,4,2024-09-06,14
STUDY001,LB,STUDY001-SUBJ0009,32,L00032,HCT,Hematocrit,HEMATOLOGY,47.21,%,41.0,51.0,47.21,47.21,%,41.0,51.0,NORMAL,,WEEK 2,4,2024-09-06,14
STUDY001,LB,STUDY001-SUBJ0009,33,L00033,WBC,White Blood Cell Count,HEMATOLOGY,8.46,10^9/L,4.5,11.0,8.46,8.46,10^9/L,4.5,11.0,NORMAL,,WEEK 2,4,2024-09-06,14
STUDY001,LB,STUDY001-SUBJ0009,34,L00034,PLT,Platelet Count,HEMATOLOGY,320.31,10^9/L,150.0,450.0,320.31,320.31,10^9/L,150.0,450.0,NORMAL,,WEEK 2,4,2024-09-06,14
STUDY001,LB,STUDY001-SUBJ0009,35,L00035,GLUC,Glucose,CHEMISTRY,100.75,mg/dL,70.0,100.0,100.75,100.75,mg/dL,70.0,100.0,HIGH,,WEEK 2,4,2024-09-06,14
STUDY001,LB,STUDY001-SUBJ0009,36,L00036,BUN,Blood Urea Nitrogen,CHEMISTRY,19.88,mg/dL,7.0,20.0,19.88,19.88,mg/dL,7.0,20.0,NORMAL,,WEEK 2,4,2024-09-06,14
STUDY001,LB,STUDY001-SUBJ0009,37,L00037,CREAT,Creatinine,CHEMISTRY,1.12,mg/dL,0.6,1.2,1.12,1.12,mg/dL,0.6,1.2,NORMAL,,WEEK 2,4,2024-09-06,14
STUDY001,LB,STUDY001-SUBJ0009,38,L00038,BILI,Total Bilirubin,CHEMISTRY,0.69,mg/dL,0.1,1.2,0.69,0.69,mg/dL,0.1,1.2,NORMAL,,WEEK 2,4,2024-09-06,14
STUDY001,LB,STUDY001-SUBJ0009,39,L00039,ALP,Alkaline Phosphatase,CHEMISTRY,101.14,U/L,44.0,147.0,101.14,101.14,U/L,44.0,147.0,NORMAL,,WEEK 2,4,2024-09-06,14
STUDY001,LB,STUDY001-SUBJ0009,40,L00040,ALT,Alanine Aminotransferase,CHEMISTRY,22.2,U/L,7.0,56.0,22.2,22.2,U/L,7.0,56.0,NORMAL,,WEEK 2,4,2024-09-06,14
STUDY001,LB,STUDY001-SUBJ0009,41,L00041,HGB,Hemoglobin,HEMATOLOGY,13.35,g/dL,13.5,17.5,13.35,13.35,g/dL,13.5,17.5,LOW,,WEEK 4,5,2024-09-20,28
STUDY001,LB,STUDY001-SUBJ0009,42,L00042,HCT,Hematocrit,HEMATOLOGY,47.44,%,41.0,51.0,47.44,47.44,%,41.0,51.0,NORMAL,,WEEK 4,5,2024-09-20,28
STUDY001,LB,STUDY001-SUBJ0009,43,L00043,WBC,White Blood Cell Count,HEMATOLOGY,8.63,10^9/L,4.5,11.0,8.63,8.63,10^9/L,4.5,11.0,NORMAL,,WEEK 4,5,2024-09-20,28
STUDY001,LB,STUDY001-SUBJ0009,44,L00044,PLT,Platelet Count,HEMATOLOGY,328.99,10^9/L,150.0,450.0,328.99,328.99,10^9/L,150.0,450.0,NORMAL,,WEEK 4,5,2024-09-20,28
STUDY001,LB,STUDY001-SUBJ0009,45,L00045,GLUC,Glucose,CHEMISTRY,101.37,mg/dL,70.0,100.0,101.37,101.37,mg/dL,70.0,100.0,HIGH,,WEEK 4,5,2024-09-20,28
STUDY001,LB,STUDY001-SUBJ0009,46,L00046,BUN,Blood Urea Nitrogen,CHEMISTRY,19.97,mg/dL,7.0,20.0,19.97,19.97,mg/dL,7.0,20.0,NORMAL,,WEEK 4,5,2024-09-20,28
STUDY001,LB,STUDY001-SUBJ0009,47,L00047,CREAT,Creatinine,CHEMISTRY,1.1,mg/dL,0.6,1.2,1.1,1.1,mg/dL,0.6,1.2,NORMAL,,WEEK 4,5,2024-09-20,28
STUDY001,LB,STUDY001-SUBJ0009,48,L00048,BILI,Total Bilirubin,CHEMISTRY,0.68,mg/dL,0.1,1.2,0.68,0.68,mg/dL,0.1,1.2,NORMAL,,WEEK 4,5,2024-09-20,28
STUDY001,LB,STUDY001-SUBJ0009,49,L00049,ALP,Alkaline Phosphatase,CHEMISTRY,101.87,U/L,44.0,147.0,101.87,101.87,U/L,44.0,147.0,NORMAL,,WEEK 4,5,2024-09-20,28
STUDY001,LB,STUDY001-SUBJ0009,50,L00050,ALT,Alanine Aminotransferase,CHEMISTRY,22.15,U/L,7.0,56.0,22.15,22.15,U/L,7.0,56.0,NORMAL,,WEEK 4,5,2024-09-20,28
STUDY001,LB,STUDY001-SUBJ0009,51,L00051,HGB,Hemoglobin,HEMATOLOGY,13.47,g/dL,13.5,17.5,13.47,13.47,g/dL,13.5,17.5,LOW,,WEEK 8,6,2024-10-18,56
STUDY001,LB,STUDY001-SUBJ0009,52,L00052,HCT,Hematocrit,HEMATOLOGY,46.93,%,41.0,51.0,46.93,46.93,%,41.0,51.0,NORMAL,,WEEK 8,6,2024-10-18,56
STUDY001,LB,STUDY001-SUBJ0009,53,L00053,WBC,White Blood Cell Count,HEMATOLOGY,8.5,10^9/L,4.5,11.0,8.5,8.5,10^9/L,4.5,11.0,NORMAL,,WEEK 8,6,2024-10-18,56
STUDY001,LB,STUDY001-SUBJ0009,54,L00054,PLT,Platelet Count,HEMATOLOGY,322.87,10^9/L,150.0,450.0,322.87,322.87,10^9/L,150.0,450.0,NORMAL,,WEEK 8,6,2024-10-18,56
STUDY001,LB,STUDY001-SUBJ0009,55,L00055,GLUC,Glucose,CHEMISTRY,102.62,mg/dL,70.0,100.0,102.62,102.62,mg/dL,70.0,100.0,HIGH,,WEEK 8,6,2024-10-18,56
STUDY001,LB,STUDY001-SUBJ0009,56,L00056,BUN,Blood Urea Nitrogen,CHEMISTRY,19.93,mg/dL,7.0,20.0,19.93,19.93,mg/dL,7.0,20.0,NORMAL,,WEEK 8,6,2024-10-18,56
STUDY001,LB,STUDY001-SUBJ0009,57,L00057,CREAT,Creatinine,CHEMISTRY,1.1,mg/dL,0.6,1.2,1.1,1.1,mg/dL,0.6,1.2,NORMAL,,WEEK 8,6,2024-10-18,56
STUDY001,LB,STUDY001-SUBJ0009,58,L00058,BILI,Total Bilirubin,CHEMISTRY,0.71,mg/dL,0.1,1.2,0.71,0.71,mg/dL,0.1,1.2,NORMAL,,WEEK 8,6,2024-10-18,56
STUDY001,LB,STUDY001-SUBJ0009,59,L00059,ALP,Alkaline Phosphatase,CHEMISTRY,98.58,U/L,44.0,147.0,98.58,98.58,U/L,44.0,147.0,NORMAL,,WEEK 8,6,2024-10-18,56
STUDY001,LB,STUDY001-SUBJ0009,60,L00060,ALT,Alanine Aminotransferase,CHEMISTRY,22.29,U/L,7.0,56.0,22.29,22.29,U/L,7.0,56.0,NORMAL,,WEEK 8,6,2024-10-18,56
STUDY001,LB,STUDY001-SUBJ0009,61,L00061,HGB,Hemoglobin,HEMATOLOGY,13.46,g/dL,13.5,17.5,13.46,13.46,g/dL,13.5,17.5,LOW,,WEEK 12,7,2024-11-15,84
STUDY001,LB,STUDY001-SUBJ0009,62,L00062,HCT,Hematocrit,HEMATOLOGY,47.26,%,41.0,51.0,47.26,47.26,%,41.0,51.0,NORMAL,,WEEK 12,7,2024-11-15,84
STUDY001,LB,STUDY001-SUBJ0009,63,L00063,WBC,White Blood Cell Count,HEMATOLOGY,8.49,10^9/L,4.5,11.0,8.49,8.49,10^9/L,4.5,11.0,NORMAL,,WEEK 12,7,2024-11-15,84
STUDY001,LB,STUDY001-SUBJ0009,64,L00064,PLT,Platelet Count,HEMATOLOGY,329.37,10^9/L,150.0,450.0,329.37,329.37,10^9/L,150.0,450.0,NORMAL,,WEEK 12,7,2024-11-15,84
STUDY001,LB,STUDY001-SUBJ0009,65,L00065,GLUC,Glucose,CHEMISTRY,102.86,mg/dL,70.0,100.0,102.86,102.86,mg/dL,70.0,100.0,HIGH,,WEEK 12,7,2024-11-15,84
STUDY001,LB,STUDY001-SUBJ0009,66,L00066,BUN,Blood Urea Nitrogen,CHEMISTRY,20.06,mg/dL,7.0,20.0,20.06,20.06,mg/dL,7.0,20.0,HIGH,,WEEK 12,7,2024-11-15,84
STUDY001,LB,STUDY001-SUBJ0009,67,L00067,CREAT,Creatinine,CHEMISTRY,1.08,mg/dL,0.6,1.2,1.08,1.08,mg/dL,0.6,1.2,NORMAL,,WEEK 12,7,2024-11-15,84
STUDY001,LB,STUDY001-SUBJ0009,68,L00068,BILI,Total Bilirubin,CHEMISTRY,0.74,mg/dL,0.1,1.2,0.74,0.74,mg/dL,0.1,1.2,NORMAL,,WEEK 12,7,2024-11-15,84
STUDY001,LB,STUDY001-SUBJ0009,69,L00069,ALP,Alkaline Phosphatase,CHEMISTRY,99.48,U/L,44.0,147.0,99.48,99.48,U/L,44.0,147.0,NORMAL,,WEEK 12,7,2024-11-15,84
STUDY001,LB,STUDY001-SUBJ0009,70,L00070,ALT,Alanine Aminotransferase,CHEMISTRY,21.6,U/L,7.0,56.0,21.6,21.6,U/L,7.0,56.0,NORMAL,,WEEK 12,7,2024-11-15,84
STUDY001,LB,STUDY001-SUBJ0009,71,L00071,HGB,Hemoglobin,HEMATOLOGY,13.32,g/dL,13.5,17.5,13.32,13.32,g/dL,13.5,17.5,LOW,,WEEK 16,8,2024-12-13,112
STUDY001,LB,STUDY001-SUBJ0009,72,L00072,HCT,Hematocrit,HEMATOLOGY,47.44,%,41.0,51.0,47.44,47.44,%,41.0,51.0,NORMAL,,WEEK 16,8,2024-12-13,112
STUDY001,LB,STUDY001-SUBJ0009,73,L00073,WBC,White Blood Cell Count,HEMATOLOGY,8.51,10^9/L,4.5,11.0,8.51,8.51,10^9/L,4.5,11.0,NORMAL,,WEEK 16,8,2024-12-13,112
STUDY001,LB,STUDY001-SUBJ0009,74,L00074,PLT,Platelet Count,HEMATOLOGY,329.76,10^9/L,150.0,450.0,329.76,329.76,10^9/L,150.0,450.0,NORMAL,,WEEK 16,8,2024-12-13,112
STUDY001,LB,STUDY001-SUBJ0009,75,L00075,GLUC,Glucose,CHEMISTRY,102.1,mg/dL,70.0,100.0,102.1,102.1,mg/dL,70.0,100.0,HIGH,,WEEK 16,8,2024-12-13,112
STUDY001,LB,STUDY001-SUBJ0009,76,L00076,BUN,Blood Urea Nitrogen,CHEMISTRY,19.85,mg/dL,7.0,20.0,19.85,19.85,mg/dL,7.0,20.0,NORMAL,,WEEK 16,8,2024-12-13,112
STUDY001,LB,STUDY001-SUBJ0009,77,L00077,CREAT,Creatinine,CHEMISTRY,1.12,mg/dL,0.6,1.2,1.12,1.12,mg/dL,0.6,1.2,NORMAL,,WEEK 16,8,2024-12-13,112
STUDY001,LB,STUDY001-SUBJ0009,78,L00078,BILI,Total Bilirubin,CHEMISTRY,0.71,mg/dL,0.1,1.2,0.71,0.71,mg/dL,0.1,1.2,NORMAL,,WEEK 16,8,2024-12-13,112
STUDY001,LB,STUDY001-SUBJ0009,79,L00079,ALP,Alkaline Phosphatase,CHEMISTRY,101.33,U/L,44.0,147.0,101.33,101.33,U/L,44.0,147.0,NORMAL,,WEEK 16,8,2024-12-13,112
STUDY001,LB,STUDY001-SUBJ0009,80,L00080,ALT,Alanine Aminotransferase,CHEMISTRY,23.86,U/L,7.0,56.0,23.86,23.86,U/L,7.0,56.0,NORMAL,,WEEK 16,8,2024-12-13,112
STUDY001,LB,STUDY001-SUBJ0009,81,L00081,HGB,Hemoglobin,HEMATOLOGY,13.37,g/dL,13.5,17.5,13.37,13.37,g/dL,13.5,17.5,LOW,,END OF TREATMENT,9,2025-01-10,140
STUDY001,LB,STUDY001-SUBJ0009,82,L00082,HCT,Hematocrit,HEMATOLOGY,47.14,%,41.0,51.0,47.14,47.14,%,41.0,51.0,NORMAL,,END OF TREATMENT,9,2025-01-10,140
STUDY001,LB,STUDY001-SUBJ0009,83,L00083,WBC,White Blood Cell Count,HEMATOLOGY,8.68,10^9/L,4.5,11.0,8.68,8.68,10^9/L,4.5,11.0,NORMAL,,END OF TREATMENT,9,2025-01-10,140
STUDY001,LB,STUDY001-SUBJ0009,84,L00084,PLT,Platelet Count,HEMATOLOGY,331.19,10^9/L,150.0,450.0,331.19,331.19,10^9/L,150.0,450.0,NORMAL,,END OF TREATMENT,9,2025-01-10,140
STUDY001,LB,STUDY001-SUBJ0009,85,L00085,GLUC,Glucose,CHEMISTRY,102.67,mg/dL,70.0,100.0,102.67,102.67,mg/dL,70.0,100.0,HIGH,,END OF TREATMENT,9,2025-01-10,140
STUDY001,LB,STUDY001-SUBJ0009,86,L00086,BUN,Blood Urea Nitrogen,CHEMISTRY,20.09,mg/dL,7.0,20.0,20.09,20.09,mg/dL,7.0,20.0,HIGH,,END OF TREATMENT,9,2025-01-10,140
STUDY001,LB,STUDY001-SUBJ0009,87,L00087,CREAT,Creatinine,CHEMISTRY,1.14,mg/dL,0.6,1.2,1.14,1.14,mg/dL,0.6,1.2,NORMAL,,END OF TREATMENT,9,2025-01-10,140
STUDY001,LB,STUDY001-SUBJ0009,88,L00088,BILI,Total Bilirubin,CHEMISTRY,0.73,mg/dL,0.1,1.2,0.73,0.73,mg/dL,0.1,1.2,NORMAL,,END OF TREATMENT,9,2025-01-10,140
STUDY001,LB,STUDY001-SUBJ0009,89,L00089,ALP,Alkaline Phosphatase,CHEMISTRY,100.34,U/L,44.0,147.0,100.34,100.34,U/L,44.0,147.0,NORMAL,,END OF TREATMENT,9,2025-01-10,140
STUDY001,LB,STUDY001-SUBJ0009,90,L00090,ALT,Alanine Aminotransferase,CHEMISTRY,20.12,U/L,7.0,56.0,20.12,20.12,U/L,7.0,56.0,NORMAL,,END OF TREATMENT,9,2025-01-10,140
STUDY001,LB,STUDY001-SUBJ0010,1,L00001,HGB,Hemoglobin,HEMATOLOGY,16.29,g/dL,13.5,17.5,16.29,16.29,g/dL,13.5,17.5,NORMAL,,SCREENING,1,2024-09-24,-14
STUDY001,LB,STUDY001-SUBJ0010,2,L00002,HCT,Hematocrit,HEMATOLOGY,41.24,%,41.0,51.0,41.24,41.24,%,41.0,51.0,NORMAL,,SCREENING,1,2024-09-24,-14
STUDY001,LB,STUDY001-SUBJ0010,3,L00003,WBC,White Blood Cell Count,HEMATOLOGY,8.23,10^9/L,4.5,11.0,8.23,8.23,10^9/L,4.5,11.0,NORMAL,,SCREENING,1,2024-09-24,-14
STUDY001,LB,STUDY001-SUBJ0010,4,L00004,PLT,Platelet Count,HEMATOLOGY,408.24,10^9/L,150.0,450.0,408.24,408.24,10^9/L,150.0,450.0,NORMAL,,SCREENING,1,2024-09-24,-14
STUDY001,LB,STUDY001-SUBJ0010,5,L00005,GLUC,Glucose,CHEMISTRY,70.62,mg/dL,70.0,100.0,70.62,70.62,mg/dL,70.0,100.0,NORMAL,,SCREENING,1,2024-09-24,-14
STUDY001,LB,STUDY001-SUBJ0010,6,L00006,BUN,Blood Urea Nitrogen,CHEMISTRY,9.6,mg/dL,7.0,20.0,9.6,9.6,mg/dL,7.0,20.0,NORMAL,,SCREENING,1,2024-09-24,-14
STUDY001,LB,STUDY001-SUBJ0010,7,L00007,CREAT,Creatinine,CHEMISTRY,0.93,mg/dL,0.6,1.2,0.93,0.93,mg/dL,0.6,1.2,NORMAL,,SCREENING,1,2024-09-24,-14
STUDY001,LB,STUDY001-SUBJ0010,8,L00008,BILI,Total Bilirubin,CHEMISTRY,0.25,mg/dL,0.1,1.2,0.25,0.25,mg/dL,0.1,1.2,NORMAL,,SCREENING,1,2024-09-24,-14
STUDY001,LB,STUDY001-SUBJ0010,9,L00009,ALP,Alkaline Phosphatase,CHEMISTRY,81.25,U/L,44.0,147.0,81.25,81.25,U/L,44.0,147.0,NORMAL,,SCREENING,1,2024-09-24,-14
STUDY001,LB,STUDY001-SUBJ0010,10,L00010,ALT,Alanine Aminotransferase,CHEMISTRY,22.15,U/L,7.0,56.0,22.15,22.15,U/L,7.0,56.0,NORMAL,,SCREENING,1,2024-09-24,-14
STUDY001,LB,STUDY001-SUBJ0010,11,L00011,HGB,Hemoglobin,HEMATOLOGY,16.34,g/dL,13.5,17.5,16.34,16.34,g/dL,13.5,17.5,NORMAL,Y,BASELINE,2,2024-10-08,1
STUDY001,LB,STUDY001-SUBJ0010,12,L00012,HCT,Hematocrit,HEMATOLOGY,41.29,%,41.0,51.0,41.29,41.29,%,41.0,51.0,NORMAL,Y,BASELINE,2,2024-10-08,1
STUDY001,LB,STUDY001-SUBJ0010,13,L00013,WBC,White Blood Cell Count,HEMATOLOGY,7.91,10^9/L,4.5,11.0,7.91,7.91,10^9/L,4.5,11.0,NORMAL,Y,BASELINE,2,2024-10-08,1
STUDY001,LB,STUDY001-SUBJ0010,14,L00014,PLT,Platelet Count,HEMATOLOGY,399.95,10^9/L,150.0,450.0,399.95,399.95,10^9/L,150.0,450.0,NORMAL,Y,BASELINE,2,2024-10-08,1
STUDY001,LB,STUDY001-SUBJ0010,15,L00015,GLUC,Glucose,CHEMISTRY,69.11,mg/dL,70.0,100.0,69.11,69.11,mg/dL,70.0,100.0,LOW,Y,BASELINE,2,2024-10-08,1
STUDY001,LB,STUDY001-SUBJ0010,16,L00016,BUN,Blood Urea Nitrogen,CHEMISTRY,9.41,mg/dL,7.0,20.0,9.41,9.41,mg/dL,7.0,20.0,NORMAL,Y,BASELINE,2,2024-10-08,1
STUDY001,LB,STUDY001-SUBJ0010,17,L00017,CREAT,Creatinine,CHEMISTRY,0.98,mg/dL,0.6,1.2,0.98,0.98,mg/dL,0.6,1.2,NORMAL,Y,BASELINE,2,2024-10-08,1
STUDY001,LB,STUDY001-SUBJ0010,18,L00018,BILI,Total Bilirubin,CHEMISTRY,0.22,mg/dL,0.1,1.2,0.22,0.22,mg/dL,0.1,1.2,NORMAL,Y,BASELINE,2,2024-10-08,1
STUDY001,LB,STUDY001-SUBJ0010,19,L00019,ALP,Alkaline Phosphatase,CHEMISTRY,77.62,U/L,44.0,147.0,77.62,77.62,U/L,44.0,147.0,NORMAL,Y,BASELINE,2,2024-10-08,1
STUDY001,LB,STUDY001-SUBJ0010,20,L00020,ALT,Alanine Aminotransferase,CHEMISTRY,22.63,U/L,7.0,56.0,22.63,22.63,U/L,7.0,56.0,NORMAL,Y,BASELINE,2,2024-10-08,1
STUDY001,LB,STUDY001-SUBJ0010,21,L00021,HGB,Hemoglobin,HEMATOLOGY,16.33,g/dL,13.5,17.5,16.33,16.33,g/dL,13.5,17.5,NORMAL,,WEEK 1,3,2024-10-14,7
STUDY001,LB,STUDY001-SUBJ0010,22,L00022,HCT,Hematocrit,HEMATOLOGY,41.37,%,41.0,51.0,41.37,41.37,%,41.0,51.0,NORMAL,,WEEK 1,3,2024-10-14,7
STUDY001,LB,STUDY001-SUBJ0010,23,L00023,WBC,White Blood Cell Count,HEMATOLOGY,7.99,10^9/L,4.5,11.0,7.99,7.99,10^9/L,4.5,11.0,NORMAL,,WEEK 1,3,2024-10-14,7
STUDY001,LB,STUDY001-SUBJ0010,24,L00024,PLT,Platelet Count,HEMATOLOGY,405.1,10^9/L,150.0,450.0,405.1,405.1,10^9/L,150.0,450.0,NORMAL,,WEEK 1,3,2024-10-14,7
STUDY001,LB,STUDY001-SUBJ0010,25,L00025,GLUC,Glucose,CHEMISTRY,71.89,mg/dL,70.0,100.0,71.89,71.89,mg/dL,70.0,100.0,NORMAL,,WEEK 1,3,2024-10-14,7
STUDY001,LB,STUDY001-SUBJ0010,26,L00026,BUN,Blood Urea Nitrogen,CHEMISTRY,9.23,mg/dL,7.0,20.0,9.23,9.23,mg/dL,7.0,20.0,NORMAL,,WEEK 1,3,2024-10-14,7
STUDY001,LB,STUDY001-SUBJ0010,27,L00027,CREAT,Creatinine,CHEMISTRY,1.0,mg/dL,0.6,1.2,1.0,1.0,mg/dL,0.6,1.2,NORMAL,,WEEK 1,3,2024-10-14,7
STUDY001,LB,STUDY001-SUBJ0010,28,L00028,BILI,Total Bilirubin,CHEMISTRY,0.28,mg/dL,0.1,1.2,0.28,0.28,mg/dL,0.1,1.2,NORMAL,,WEEK 1,3,2024-10-14,7
STUDY001,LB,STUDY001-SUBJ0010,29,L00029,ALP,Alkaline Phosphatase,CHEMISTRY,83.87,U/L,44.0,147.0,83.87,83.87,U/L,44.0,147.0,NORMAL,,WEEK 1,3,2024-10-14,7
STUDY001,LB,STUDY001-SUBJ0010,30,L00030,ALT,Alanine Aminotransferase,CHEMISTRY,22.16,U/L,7.0,56.0,22.16,22.16,U/L,7.0,56.0,NORMAL,,WEEK 1,3,2024-10-14,7
STUDY001,LB,STUDY001-SUBJ0010,31,L00031,HGB,Hemoglobin,HEMATOLOGY,16.18,g/dL,13.5,17.5,16.18,16.18,g/dL,13.5,17.5,NORMAL,,WEEK 2,4,2024-10-21,14
STUDY001,LB,STUDY001-SUBJ0010,32,L00032,HCT,Hematocrit,HEMATOLOGY,41.23,%,41.0,51.0,41.23,41.23,%,41.0,51.0,NORMAL,,WEEK 2,4,2024-10-21,14
STUDY001,LB,STUDY001-SUBJ0010,33,L00033,WBC,White Blood Cell Count,HEMATOLOGY,8.22,10^9/L,4.5,11.0,8.22,8.22,10^9/L,4.5,11.0,NORMAL,,WEEK 2,4,2024-10-21,14
STUDY001,LB,STUDY001-SUBJ0010,34,L00034,PLT,Platelet Count,HEMATOLOGY,391.82,10^9/L,150.0,450.0,391.82,391.82,10^9/L,150.0,450.0,NORMAL,,WEEK 2,4,2024-10-21,14
STUDY001,LB,STUDY001-SUBJ0010,35,L00035,GLUC,Glucose,CHEMISTRY,69.72,mg/dL,70.0,100.0,69.72,69.72,mg/dL,70.0,100.0,LOW,,WEEK 2,4,2024-10-21,14
STUDY001,LB,STUDY001-SUBJ0010,36,L00036,BUN,Blood Urea Nitrogen,CHEMISTRY,8.94,mg/dL,7.0,20.0,8.94,8.94,mg/dL,7.0,20.0,NORMAL,,WEEK 2,4,2024-10-21,14
STUDY001,LB,STUDY001-SUBJ0010,37,L00037,CREAT,Creatinine,CHEMISTRY,0.97,mg/dL,0.6,1.2,0.97,0.97,mg/dL,0.6,1.2,NORMAL,,WEEK 2,4,2024-10-21,14
STUDY001,LB,STUDY001-SUBJ0010,38,L00038,BILI,Total Bilirubin,CHEMISTRY,0.25,mg/dL,0.1,1.2,0.25,0.25,mg/dL,0.1,1.2,NORMAL,,WEEK 2,4,2024-10-21,14
STUDY001,LB,STUDY001-SUBJ0010,39,L00039,ALP,Alkaline Phosphatase,CHEMISTRY,81.76,U/L,44.0,147.0,81.76,81.76,U/L,44.0,147.0,NORMAL,,WEEK 2,4,2024-10-21,14
STUDY001,LB,STUDY001-SUBJ0010,40,L00040,ALT,Alanine Aminotransferase,CHEMISTRY,22.36,U/L,7.0,56.0,22.36,22.36,U/L,7.0,56.0,NORMAL,,WEEK 2,4,2024-10-21,14
STUDY001,LB,STUDY001-SUBJ0010,41,L00041,HGB,Hemoglobin,HEMATOLOGY,16.36,g/dL,13.5,17.5,16.36,16.36,g/dL,13.5,17.5,NORMAL,,WEEK 4,5,2024-11-04,28
STUDY001,LB,STUDY001-SUBJ0010,42,L00042,HCT,Hematocrit,HEMATOLOGY,40.95,%,41.0,51.0,40.95,40.95,%,41.0,51.0,LOW,,WEEK 4,5,2024-11-04,28
STUDY001,LB,STUDY001-SUBJ0010,43,L00043,WBC,White Blood Cell Count,HEMATOLOGY,8.01,10^9/L,4.5,11.0,8.01,8.01,10^9/L,4.5,11.0,NORMAL,,WEEK 4,5,2024-11-04,28
STUDY001,LB,STUDY001-SUBJ0010,44,L00044,PLT,Platelet Count,HEMATOLOGY,393.8,10^9/L,150.0,450.0,393.8,393.8,10^9/L,150.0,450.0,NORMAL,,WEEK 4,5,2024-11-04,28
STUDY001,LB,STUDY001-SUBJ0010,45,L00045,GLUC,Glucose,CHEMISTRY,67.02,mg/dL,70.0,100.0,67.02,67.02,mg/dL,70.0,100.0,LOW,,WEEK 4,5,2024-11-04,28
STUDY001,LB,STUDY001-SUBJ0010,46,L00046,BUN,Blood Urea Nitrogen,CHEMISTRY,9.39,mg/dL,7.0,20.0,9.39,9.39,mg/dL,7.0,20.0,NORMAL,,WEEK 4,5,2024-11-04,28
STUDY001,LB,STUDY001-SUBJ0010,47,L00047,CREAT,Creatinine,CHEMISTRY,0.93,mg/dL,0.6,1.2,0.93,0.93,mg/dL,0.6,1.2,NORMAL,,WEEK 4,5,2024-11-04,28
STUDY001,LB,STUDY001-SUBJ0010,48,L00048,BILI,Total Bilirubin,CHEMISTRY,0.28,mg/dL,0.1,1.2,0.28,0.28,mg/dL,0.1,1.2,NORMAL,,WEEK 4,5,2024-11-04,28
STUDY001,LB,STUDY001-SUBJ0010,49,L00049,ALP,Alkaline Phosphatase,CHEMISTRY,81.73,U/L,44.0,147.0,81.73,81.73,U/L,44.0,147.0,NORMAL,,WEEK 4,5,2024-11-04,28
STUDY001,LB,STUDY001-SUBJ0010,50,L00050,ALT,Alanine Aminotransferase,CHEMISTRY,19.95,U/L,7.0,56.0,19.95,19.95,U/L,7.0,56.0,NORMAL,,WEEK 4,5,2024-11-04,28
STUDY001,LB,STUDY001-SUBJ0010,51,L00051,HGB,Hemoglobin,HEMATOLOGY,16.33,g/dL,13.5,17.5,16.33,16.33,g/dL,13.5,17.5,NORMAL,,WEEK 8,6,2024-12-02,56
STUDY001,LB,STUDY001-SUBJ0010,52,L00052,HCT,Hematocrit,HEMATOLOGY,41.34,%,41.0,51.0,41.34,41.34,%,41.0,51.0,NORMAL,,WEEK 8,6,2024-12-02,56
STUDY001,LB,STUDY001-SUBJ0010,53,L00053,WBC,White Blood Cell Count,HEMATOLOGY,8.43,10^9/L,4.5,11.0,8.43,8.43,10^9/L,4.5,11.0,NORMAL,,WEEK 8,6,2024-12-02,56
STUDY001,LB,STUDY001-SUBJ0010,54,L00054,PLT,Platelet Count,HEMATOLOGY,399.9,10^9/L,150.0,450.0,399.9,399.9,10^9/L,150.0,450.0,NORMAL,,WEEK 8,6,2024-12-02,56
STUDY001,LB,STUDY001-SUBJ0010,55,L00055,GLUC,Glucose,CHEMISTRY,69.35,mg/dL,70.0,100.0,69.35,69.35,mg/dL,70.0,100.0,LOW,,WEEK 8,6,2024-12-02,56
STUDY001,LB,STUDY001-SUBJ0010,56,L00056,BUN,Blood Urea Nitrogen,CHEMISTRY,8.62,mg/dL,7.0,20.0,8.62,8.62,mg/dL,7.0,20.0,NORMAL,,WEEK 8,6,2024-12-02,56
STUDY001,LB,STUDY001-SUBJ0010,57,L00057,CREAT,Creatinine,CHEMISTRY,0.97,mg/dL,0.6,1.2,0.97,0.97,mg/dL,0.6,1.2,NORMAL,,WEEK 8,6,2024-12-02,56
STUDY001,LB,STUDY001-SUBJ0010,58,L00058,BILI,Total Bilirubin,CHEMISTRY,0.3,mg/dL,0.1,1.2,0.3,0.3,mg/dL,0.1,1.2,NORMAL,,WEEK 8,6,2024-12-02,56
STUDY001,LB,STUDY001-SUBJ0010,59,L00059,ALP,Alkaline Phosphatase,CHEMISTRY,84.49,U/L,44.0,147.0,84.49,84.49,U/L,44.0,147.0,NORMAL,,WEEK 8,6,2024-12-02,56
STUDY001,LB,STUDY001-SUBJ0010,60,L00060,ALT,Alanine Aminotransferase,CHEMISTRY,23.65,U/L,7.0,56.0,23.65,23.65,U/L,7.0,56.0,NORMAL,,WEEK 8,6,2024-12-02,56
STUDY001,LB,STUDY001-SUBJ0010,61,L00061,HGB,Hemoglobin,HEMATOLOGY,16.34,g/dL,13.5,17.5,16.34,16.34,g/dL,13.5,17.5,NORMAL,,WEEK 12,7,2024-12-30,84
STUDY001,LB,STUDY001-SUBJ0010,62,L00062,HCT,Hematocrit,HEMATOLOGY,41.59,%,41.0,51.0,41.59,41.59,%,41.0,51.0,NORMAL,,WEEK 12,7,2024-12-30,84
STUDY001,LB,STUDY001-SUBJ0010,63,L00063,WBC,White Blood Cell Count,HEMATOLOGY,8.05,10^9/L,4.5,11.0,8.05,8.05,10^9/L,4.5,11.0,NORMAL,,WEEK 12,7,2024-12-30,84
STUDY001,LB,STUDY001-SUBJ0010,64,L00064,PLT,Platelet Count,HEMATOLOGY,406.83,10^9/L,150.0,450.0,406.83,406.83,10^9/L,150.0,450.0,NORMAL,,WEEK 12,7,2024-12-30,84
STUDY001,LB,STUDY001-SUBJ0010,65,L00065,GLUC,Glucose,CHEMISTRY,68.59,mg/dL,70.0,100.0,68.59,68.59,mg/dL,70.0,100.0,LOW,,WEEK 12,7,2024-12-30,84
STUDY001,LB,STUDY001-SUBJ0010,66,L00066,BUN,Blood Urea Nitrogen,CHEMISTRY,9.31,mg/dL,7.0,20.0,9.31,9.31,mg/dL,7.0,20.0,NORMAL,,WEEK 12,7,2024-12-30,84
STUDY001,LB,STUDY001-SUBJ0010,67,L00067,CREAT,Creatinine,CHEMISTRY,0.97,mg/dL,0.6,1.2,0.97,0.97,mg/dL,0.6,1.2,NORMAL,,WEEK 12,7,2024-12-30,84
STUDY001,LB,STUDY001-SUBJ0010,68,L00068,BILI,Total Bilirubin,CHEMISTRY,0.28,mg/dL,0.1,1.2,0.28,0.28,mg/dL,0.1,1.2,NORMAL,,WEEK 12,7,2024-12-30,84
STUDY001,LB,STUDY001-SUBJ0010,69,L00069,ALP,Alkaline Phosphatase,CHEMISTRY,84.95,U/L,44.0,147.0,84.95,84.95,U/L,44.0,147.0,NORMAL,,WEEK 12,7,2024-12-30,84
STUDY001,LB,STUDY001-SUBJ0010,70,L00070,ALT,Alanine Aminotransferase,CHEMISTRY,20.26,U/L,7.0,56.0,20.26,20.26,U/L,7.0,56.0,NORMAL,,WEEK 12,7,2024-12-30,84
STUDY001,LB,STUDY001-SUBJ0010,71,L00071,HGB,Hemoglobin,HEMATOLOGY,16.26,g/dL,13.5,17.5,16.26,16.26,g/dL,13.5,17.5,NORMAL,,WEEK 16,8,2025-01-27,112
STUDY001,LB,STUDY001-SUBJ0010,72,L00072,HCT,Hematocrit,HEMATOLOGY,41.29,%,41.0,51.0,41.29,41.29,%,41.0,51.0,NORMAL,,WEEK 16,8,2025-01-27,112
STUDY001,LB,STUDY001-SUBJ0010,73,L00073,WBC,White Blood Cell Count,HEMATOLOGY,8.09,10^9/L,4.5,11.0,8.09,8.09,10^9/L,4.5,11.0,NORMAL,,WEEK 16,8,2025-01-27,112
STUDY001,LB,STUDY001-SUBJ0010,74,L00074,PLT,Platelet Count,HEMATOLOGY,401.82,10^9/L,150.0,450.0,401.82,401.82,10^9/L,150.0,450.0,NORMAL,,WEEK 16,8,2025-01-27,112
STUDY001,LB,STUDY001-SUBJ0010,75,L00075,GLUC,Glucose,CHEMISTRY,68.59,mg/dL,70.0,100.0,68.59,68.59,mg/dL,70.0,100.0,LOW,,WEEK 16,8,2025-01-27,112
STUDY001,LB,STUDY001-SUBJ0010,76,L00076,BUN,Blood Urea Nitrogen,CHEMISTRY,9.74,mg/dL,7.0,20.0,9.74,9.74,mg/dL,7.0,20.0,NORMAL,,WEEK 16,8,2025-01-27,112
STUDY001,LB,STUDY001-SUBJ0010,77,L00077,CREAT,Creatinine,CHEMISTRY,0.98,mg/dL,0.6,1.2,0.98,0.98,mg/dL,0.6,1.2,NORMAL,,WEEK 16,8,2025-01-27,112
STUDY001,LB,STUDY001-SUBJ0010,78,L00078,BILI,Total Bilirubin,CHEMISTRY,0.25,mg/dL,0.1,1.2,0.25,0.25,mg/dL,0.1,1.2,NORMAL,,WEEK 16,8,2025-01-27,112
STUDY001,LB,STUDY001-SUBJ0010,79,L00079,ALP,Alkaline Phosphatase,CHEMISTRY,81.09,U/L,44.0,147.0,81.09,81.09,U/L,44.0,147.0,NORMAL,,WEEK 16,8,2025-01-27,112
STUDY001,LB,STUDY001-SUBJ0010,80,L00080,ALT,Alanine Aminotransferase,CHEMISTRY,22.12,U/L,7.0,56.0,22.12,22.12,U/L,7.0,56.0,NORMAL,,WEEK 16,8,2025-01-27,112
STUDY001,LB,STUDY001-SUBJ0010,81,L00081,HGB,Hemoglobin,HEMATOLOGY,16.18,g/dL,13.5,17.5,16.18,16.18,g/dL,13.5,17.5,NORMAL,,END OF TREATMENT,9,2025-02-24,140
STUDY001,LB,STUDY001-SUBJ0010,82,L00082,HCT,Hematocrit,HEMATOLOGY,41.14,%,41.0,51.0,41.14,41.14,%,41.0,51.0,NORMAL,,END OF TREATMENT,9,2025-02-24,140
STUDY001,LB,STUDY001-SUBJ0010,83,L00083,WBC,White Blood Cell Count,HEMATOLOGY,7.99,10^9/L,4.5,11.0,7.99,7.99,10^9/L,4.5,11.0,NORMAL,,END OF TREATMENT,9,2025-02-24,140
STUDY001,LB,STUDY001-SUBJ0010,84,L00084,PLT,Platelet Count,HEMATOLOGY,404.56,10^9/L,150.0,450.0,404.56,404.56,10^9/L,150.0,450.0,NORMAL,,END OF TREATMENT,9,2025-02-24,140
STUDY001,LB,STUDY001-SUBJ0010,85,L00085,GLUC,Glucose,CHEMISTRY,69.29,mg/dL,70.0,100.0,69.29,69.29,mg/dL,70.0,100.0,LOW,,END OF TREATMENT,9,2025-02-24,140
STUDY001,LB,STUDY001-SUBJ0010,86,L00086,BUN,Blood Urea Nitrogen,CHEMISTRY,9.06,mg/dL,7.0,20.0,9.06,9.06,mg/dL,7.0,20.0,NORMAL,,END OF TREATMENT,9,2025-02-24,140
STUDY001,LB,STUDY001-SUBJ0010,87,L00087,CREAT,Creatinine,CHEMISTRY,0.96,mg/dL,0.6,1.2,0.96,0.96,mg/dL,0.6,1.2,NORMAL,,END OF TREATMENT,9,2025-02-24,140
STUDY001,LB,STUDY001-SUBJ0010,88,L00088,BILI,Total Bilirubin,CHEMISTRY,0.25,mg/dL,0.1,1.2,0.25,0.25,mg/dL,0.1,1.2,NORMAL,,END OF TREATMENT,9,2025-02-24,140
STUDY001,LB,STUDY001-SUBJ0010,89,L00089,ALP,Alkaline Phosphatase,CHEMISTRY,78.75,U/L,44.0,147.0,78.75,78.75,U/L,44.0,147.0,NORMAL,,END OF TREATMENT,9,2025-02-24,140
STUDY001,LB,STUDY001-SUBJ0010,90,L00090,ALT,Alanine Aminotransferase,CHEMISTRY,21.59,U/L,7.0,56.0,21.59,21.59,U/L,7.0,56.0,NORMAL,,END OF TREATMENT,9,2025-02-24,140
