STUDYID,DOMAIN,USUBJID,VSSEQ,VSTESTCD,VSTEST,VSORRES,VSORRESU,VSSTRESC,VSSTRESN,VSSTRESU,VSBLFL,VISIT,VISITNUM,VSDTC,VSDY
STUDY001,VS,STUDY001-SUBJ0001,1,HEIGHT,Height,191.3,cm,191.3,191.3,cm,,SCREENING,1,2025-01-23,-14
STUDY001,VS,STUDY001-SUBJ0001,2,WEIGHT,Weight,71.4,kg,71.4,71.4,kg,,SCREENING,1,2025-01-23,-14
STUDY001,VS,STUDY001-SUBJ0001,3,TEMP,Temperature,36.3,C,36.3,36.3,C,,SCREENING,1,2025-01-23,-14
STUDY001,VS,STUDY001-SUBJ0001,4,BP,Blood Pressure,99/79,mmHg,99/79,,mmHg,,SCREENING,1,2025-01-23,-14
STUDY001,VS,STUDY001-SUBJ0001,5,HR,Heart Rate,59,beats/min,59,59.0,beats/min,,SCREENING,1,2025-01-23,-14
STUDY001,VS,STUDY001-SUBJ0001,6,HEIGHT,Height,191.2,cm,191.2,191.2,cm,Y,BASELINE,2,2025-02-06,1
STUDY001,VS,STUDY001-SUBJ0001,7,WEIGHT,Weight,71.2,kg,71.2,71.2,kg,Y,BASELINE,2,2025-02-06,1
STUDY001,VS,STUDY001-SUBJ0001,8,TEMP,Temperature,36.3,C,36.3,36.3,C,Y,BASELINE,2,2025-02-06,1
STUDY001,VS,STUDY001-SUBJ0001,9,BP,Blood Pressure,98/78,mmHg,98/78,,mmHg,Y,BASELINE,2,2025-02-06,1
STUDY001,VS,STUDY001-SUBJ0001,10,HR,Heart Rate,61,beats/min,61,61.0,beats/min,Y,BASELINE,2,2025-02-06,1
STUDY001,VS,STUDY001-SUBJ0001,11,HEIGHT,Height,191.5,cm,191.5,191.5,cm,,WEEK 1,3,2025-02-12,7
STUDY001,VS,STUDY001-SUBJ0001,12,WEIGHT,Weight,69.8,kg,69.8,69.8,kg,,WEEK 1,3,2025-02-12,7
STUDY001,VS,STUDY001-SUBJ0001,13,TEMP,Temperature,36.3,C,36.3,36.3,C,,WEEK 1,3,2025-02-12,7
STUDY001,VS,STUDY001-SUBJ0001,14,BP,Blood Pressure,100/82,mmHg,100/82,,mmHg,,WEEK 1,3,2025-02-12,7
STUDY001,VS,STUDY001-SUBJ0001,15,HR,Heart Rate,61,beats/min,61,61.0,beats/min,,WEEK 1,3,2025-02-12,7
STUDY001,VS,STUDY001-SUBJ0001,16,HEIGHT,Height,191.5,cm,191.5,191.5,cm,,WEEK 2,4,2025-02-19,14
STUDY001,VS,STUDY001-SUBJ0001,17,WEIGHT,Weight,69.8,kg,69.8,69.8,kg,,WEEK 2,4,2025-02-19,14
STUDY001,VS,STUDY001-SUBJ0001,18,TEMP,Temperature,36.0,C,36.0,36.0,C,,WEEK 2,4,2025-02-19,14
STUDY001,VS,STUDY001-SUBJ0001,19,BP,Blood Pressure,103/86,mmHg,103/86,,mmHg,,WEEK 2,4,2025-02-19,14
STUDY001,VS,STUDY001-SUBJ0001,20,HR,Heart Rate,58,beats/min,58,58.0,beats/min,,WEEK 2,4,2025-02-19,14
STUDY001,VS,STUDY001-SUBJ0001,21,HEIGHT,Height,191.3,cm,191.3,191.3,cm,,WEEK 4,5,2025-03-05,28
STUDY001,VS,STUDY001-SUBJ0001,22,WEIGHT,Weight,69.7,kg,69.7,69.7,kg,,WEEK 4,5,2025-03-05,28
STUDY001,VS,STUDY001-SUBJ0001,23,TEMP,Temperature,36.1,C,36.1,36.1,C,,WEEK 4,5,2025-03-05,28
STUDY001,VS,STUDY001-SUBJ0001,24,BP,Blood Pressure,105/81,mmHg,105/81,,mmHg,,WEEK 4,5,2025-03-05,28
STUDY001,VS,STUDY001-SUBJ0001,25,HR,Heart Rate,62,beats/min,62,62.0,beats/min,,WEEK 4,5,2025-03-05,28
STUDY001,VS,STUDY001-SUBJ0001,26,HEIGHT,Height,191.1,cm,191.1,191.1,cm,,WEEK 8,6,2025-04-02,56
STUDY001,VS,STUDY001-SUBJ0001,27,WEIGHT,Weight,70.4,kg,70.4,70.4,kg,,WEEK 8,6,2025-04-02,56
STUDY001,VS,STUDY001-SUBJ0001,28,TEMP,Temperature,36.5,C,36.5,36.5,C,,WEEK 8,6,2025-04-02,56
STUDY001,VS,STUDY001-SUBJ0001,29,BP,Blood Pressure,96/83,mmHg,96/83,,mmHg,,WEEK 8,6,2025-04-02,56
STUDY001,VS,STUDY001-SUBJ0001,30,HR,Heart Rate,63,beats/min,63,63.0,beats/min,,WEEK 8,6,2025-04-02,56
STUDY001,VS,STUDY001-SUBJ0001,31,HEIGHT,Height,191.1,cm,191.1,191.1,cm,,WEEK 12,7,2025-04-30,84
STUDY001,VS,STUDY001-SUBJ0001,32,WEIGHT,Weight,71.2,kg,71.2,71.2,kg,,WEEK 12,7,2025-04-30,84
STUDY001,VS,STUDY001-SUBJ0001,33,TEMP,Temperature,36.5,C,36.5,36.5,C,,WEEK 12,7,2025-04-30,84
STUDY001,VS,STUDY001-SUBJ0001,34,BP,Blood Pressure,99/82,mmHg,99/82,,mmHg,,WEEK 12,7,2025-04-30,84
STUDY001,VS,STUDY001-SUBJ0001,35,HR,Heart Rate,61,beats/min,61,61.0,beats/min,,WEEK 12,7,2025-04-30,84
STUDY001,VS,STUDY001-SUBJ0001,36,HEIGHT,Height,191.1,cm,191.1,191.1,cm,,WEEK 16,8,2025-05-28,112
STUDY001,VS,STUDY001-SUBJ0001,37,WEIGHT,Weight,69.7,kg,69.7,69.7,kg,,WEEK 16,8,2025-05-28,112
STUDY001,VS,STUDY001-SUBJ0001,38,TEMP,Temperature,36.0,C,36.0,36.0,C,,WEEK 16,8,2025-05-28,112
STUDY001,VS,STUDY001-SUBJ0001,39,BP,Blood Pressure,100/79,mmHg,100/79,,mmHg,,WEEK 16,8,2025-05-28,112
STUDY001,VS,STUDY001-SUBJ0001,40,HR,Heart Rate,57,beats/min,57,57.0,beats/min,,WEEK 16,8,2025-05-28,112
STUDY001,VS,STUDY001-SUBJ0001,41,HEIGHT,Height,191.4,cm,191.4,191.4,cm,,END OF TREATMENT,9,2025-06-25,140
STUDY001,VS,STUDY001-SUBJ0001,42,WEIGHT,Weight,70.4,kg,70.4,70.4,kg,,END OF TREATMENT,9,2025-06-25,140
STUDY001,VS,STUDY001-SUBJ0001,43,TEMP,Temperature,36.4,C,36.4,36.4,C,,END OF TREATMENT,9,2025-06-25,140
STUDY001,VS,STUDY001-SUBJ0001,44,BP,Blood Pressure,102/79,mmHg,102/79,,mmHg,,END OF TREATMENT,9,2025-06-25,140
STUDY001,VS,STUDY001-SUBJ0001,45,HR,Heart Rate,56,beats/min,56,56.0,beats/min,,END OF TREATMENT,9,2025-06-25,140
STUDY001,VS,STUDY001-SUBJ0002,1,HEIGHT,Height,195.8,cm,195.8,195.8,cm,,SCREENING,1,2024-08-30,-14
STUDY001,VS,STUDY001-SUBJ0002,2,WEIGHT,Weight,104.5,kg,104.5,104.5,kg,,SCREENING,1,2024-08-30,-14
STUDY001,VS,STUDY001-SUBJ0002,3,TEMP,Temperature,36.4,C,36.4,36.4,C,,SCREENING,1,2024-08-30,-14
STUDY001,VS,STUDY001-SUBJ0002,4,BP,Blood Pressure,127/94,mmHg,127/94,,mmHg,,SCREENING,1,2024-08-30,-14
STUDY001,VS,STUDY001-SUBJ0002,5,HR,Heart Rate,86,beats/min,86,86.0,beats/min,,SCREENING,1,2024-08-30,-14
STUDY001,VS,STUDY001-SUBJ0002,6,HEIGHT,Height,196.0,cm,196.0,196.0,cm,Y,BASELINE,2,2024-09-13,1
STUDY001,VS,STUDY001-SUBJ0002,7,WEIGHT,Weight,103.7,kg,103.7,103.7,kg,Y,BASELINE,2,2024-09-13,1
STUDY001,VS,STUDY001-SUBJ0002,8,TEMP,Temperature,36.4,C,36.4,36.4,C,Y,BASELINE,2,2024-09-13,1
STUDY001,VS,STUDY001-SUBJ0002,9,BP,Blood Pressure,123/89,mmHg,123/89,,mmHg,Y,BASELINE,2,2024-09-13,1
STUDY001,VS,STUDY001-SUBJ0002,10,HR,Heart Rate,86,beats/min,86,86.0,beats/min,Y,BASELINE,2,2024-09-13,1
STUDY001,VS,STUDY001-SUBJ0002,11,HEIGHT,Height,195.7,cm,195.7,195.7,cm,,WEEK 1,3,2024-09-19,7
STUDY001,VS,STUDY001-SUBJ0002,12,WEIGHT,Weight,103.2,kg,103.2,103.2,kg,,WEEK 1,3,2024-09-19,7
STUDY001,VS,STUDY001-SUBJ0002,13,TEMP,Temperature,36.6,C,36.6,36.6,C,,WEEK 1,3,2024-09-19,7
STUDY001,VS,STUDY001-SUBJ0002,14,BP,Blood Pressure,123/93,mmHg,123/93,,mmHg,,WEEK 1,3,2024-09-19,7
STUDY001,VS,STUDY001-SUBJ0002,15,HR,Heart Rate,83,beats/min,83,83.0,beats/min,,WEEK 1,3,2024-09-19,7
STUDY001,VS,STUDY001-SUBJ0002,16,HEIGHT,Height,195.6,cm,195.6,195.6,cm,,WEEK 2,4,2024-09-26,14
STUDY001,VS,STUDY001-SUBJ0002,17,WEIGHT,Weight,103.6,kg,103.6,103.6,kg,,WEEK 2,4,2024-09-26,14
STUDY001,VS,STUDY001-SUBJ0002,18,TEMP,Temperature,36.6,C,36.6,36.6,C,,WEEK 2,4,2024-09-26,14
STUDY001,VS,STUDY001-SUBJ0002,19,BP,Blood Pressure,126/95,mmHg,126/95,,mmHg,,WEEK 2,4,2024-09-26,14
STUDY001,VS,STUDY001-SUBJ0002,20,HR,Heart Rate,86,beats/min,86,86.0,beats/min,,WEEK 2,4,2024-09-26,14
STUDY001,VS,STUDY001-SUBJ0002,21,HEIGHT,Height,195.8,cm,195.8,195.8,cm,,WEEK 4,5,2024-10-10,28
STUDY001,VS,STUDY001-SUBJ0002,22,WEIGHT,Weight,104.3,kg,104.3,104.3,kg,,WEEK 4,5,2024-10-10,28
STUDY001,VS,STUDY001-SUBJ0002,23,TEMP,Temperature,36.7,C,36.7,36.7,C,,WEEK 4,5,2024-10-10,28
STUDY001,VS,STUDY001-SUBJ0002,24,BP,Blood Pressure,125/96,mmHg,125/96,,mmHg,,WEEK 4,5,2024-10-10,28
STUDY001,VS,STUDY001-SUBJ0002,25,HR,Heart Rate,84,beats/min,84,84.0,beats/min,,WEEK 4,5,2024-10-10,28
STUDY001,VS,STUDY001-SUBJ0002,26,HEIGHT,Height,195.8,cm,195.8,195.8,cm,,WEEK 8,6,2024-11-07,56
STUDY001,VS,STUDY001-SUBJ0002,27,WEIGHT,Weight,102.8,kg,102.8,102.8,kg,,WEEK 8,6,2024-11-07,56
STUDY001,VS,STUDY001-SUBJ0002,28,TEMP,Temperature,36.5,C,36.5,36.5,C,,WEEK 8,6,2024-11-07,56
STUDY001,VS,STUDY001-SUBJ0002,29,BP,Blood Pressure,122/94,mmHg,122/94,,mmHg,,WEEK 8,6,2024-11-07,56
STUDY001,VS,STUDY001-SUBJ0002,30,HR,Heart Rate,81,beats/min,81,81.0,beats/min,,WEEK 8,6,2024-11-07,56
STUDY001,VS,STUDY001-SUBJ0002,31,HEIGHT,Height,196.0,cm,196.0,196.0,cm,,WEEK 12,7,2024-12-05,84
STUDY001,VS,STUDY001-SUBJ0002,32,WEIGHT,Weight,103.0,kg,103.0,103.0,kg,,WEEK 12,7,2024-12-05,84
STUDY001,VS,STUDY001-SUBJ0002,33,TEMP,Temperature,37.0,C,37.0,37.0,C,,WEEK 12,7,2024-12-05,84
STUDY001,VS,STUDY001-SUBJ0002,34,BP,Blood Pressure,122/89,mmHg,122/89,,mmHg,,WEEK 12,7,2024-12-05,84
STUDY001,VS,STUDY001-SUBJ0002,35,HR,Heart Rate,83,beats/min,83,83.0,beats/min,,WEEK 12,7,2024-12-05,84
STUDY001,VS,STUDY001-SUBJ0002,36,HEIGHT,Height,196.0,cm,196.0,196.0,cm,,WEEK 16,8,2025-01-02,112
STUDY001,VS,STUDY001-SUBJ0002,37,WEIGHT,Weight,104.2,kg,104.2,104.2,kg,,WEEK 16,8,2025-01-02,112
STUDY001,VS,STUDY001-SUBJ0002,38,TEMP,Temperature,36.7,C,36.7,36.7,C,,WEEK 16,8,2025-01-02,112
STUDY001,VS,STUDY001-SUBJ0002,39,BP,Blood Pressure,120/95,mmHg,120/95,,mmHg,,WEEK 16,8,2025-01-02,112
STUDY001,VS,STUDY001-SUBJ0002,40,HR,Heart Rate,86,beats/min,86,86.0,beats/min,,WEEK 16,8,2025-01-02,112
STUDY001,VS,STUDY001-SUBJ0002,41,HEIGHT,Height,195.9,cm,195.9,195.9,cm,,END OF TREATMENT,9,2025-01-30,140
STUDY001,VS,STUDY001-SUBJ0002,42,WEIGHT,Weight,103.3,kg,103.3,103.3,kg,,END OF TREATMENT,9,2025-01-30,140
STUDY001,VS,STUDY001-SUBJ0002,43,TEMP,Temperature,36.4,C,36.4,36.4,C,,END OF TREATMENT,9,2025-01-30,140
STUDY001,VS,STUDY001-SUBJ0002,44,BP,Blood Pressure,120/95,mmHg,120/95,,mmHg,,END OF TREATMENT,9,2025-01-30,140
STUDY001,VS,STUDY001-SUBJ0002,45,HR,Heart Rate,80,beats/min,80,80.0,beats/min,,END OF TREATMENT,9,2025-01-30,140
STUDY001,VS,STUDY001-SUBJ0003,1,HEIGHT,Height,165.9,cm,165.9,165.9,cm,,SCREENING,1,2025-06-18,-14
STUDY001,VS,STUDY001-SUBJ0003,2,WEIGHT,Weight,105.2,kg,105.2,105.2,kg,,SCREENING,1,2025-06-18,-14
STUDY001,VS,STUDY001-SUBJ0003,3,TEMP,Temperature,36.2,C,36.2,36.2,C,,SCREENING,1,2025-06-18,-14
STUDY001,VS,STUDY001-SUBJ0003,4,BP,Blood Pressure,117/91,mmHg,117/91,,mmHg,,SCREENING,1,2025-06-18,-14
STUDY001,VS,STUDY001-SUBJ0003,5,HR,Heart Rate,78,beats/min,78,78.0,beats/min,,SCREENING,1,2025-06-18,-14
STUDY001,VS,STUDY001-SUBJ0003,6,HEIGHT,Height,165.9,cm,165.9,165.9,cm,Y,BASELINE,2,2025-07-02,1
STUDY001,VS,STUDY001-SUBJ0003,7,WEIGHT,Weight,105.1,kg,105.1,105.1,kg,Y,BASELINE,2,2025-07-02,1
STUDY001,VS,STUDY001-SUBJ0003,8,TEMP,Temperature,36.5,C,36.5,36.5,C,Y,BASELINE,2,2025-07-02,1
STUDY001,VS,STUDY001-SUBJ0003,9,BP,Blood Pressure,111/92,mmHg,111/92,,mmHg,Y,BASELINE,2,2025-07-02,1
STUDY001,VS,STUDY001-SUBJ0003,10,HR,Heart Rate,79,beats/min,79,79.0,beats/min,Y,BASELINE,2,2025-07-02,1
STUDY001,VS,STUDY001-SUBJ0003,11,HEIGHT,Height,166.0,cm,166.0,166.0,cm,,WEEK 1,3,2025-07-08,7
STUDY001,VS,STUDY001-SUBJ0003,12,WEIGHT,Weight,105.8,kg,105.8,105.8,kg,,WEEK 1,3,2025-07-08,7
STUDY001,VS,STUDY001-SUBJ0003,13,TEMP,Temperature,36.3,C,36.3,36.3,C,,WEEK 1,3,2025-07-08,7
STUDY001,VS,STUDY001-SUBJ0003,14,BP,Blood Pressure,117/94,mmHg,117/94,,mmHg,,WEEK 1,3,2025-07-08,7
STUDY001,VS,STUDY001-SUBJ0003,15,HR,Heart Rate,79,beats/min,79,79.0,beats/min,,WEEK 1,3,2025-07-08,7
STUDY001,VS,STUDY001-SUBJ0003,16,HEIGHT,Height,165.7,cm,165.7,165.7,cm,,WEEK 2,4,2025-07-15,14
STUDY001,VS,STUDY001-SUBJ0003,17,WEIGHT,Weight,105.8,kg,105.8,105.8,kg,,WEEK 2,4,2025-07-15,14
STUDY001,VS,STUDY001-SUBJ0003,18,TEMP,Temperature,36.2,C,36.2,36.2,C,,WEEK 2,4,2025-07-15,14
STUDY001,VS,STUDY001-SUBJ0003,19,BP,Blood Pressure,119/95,mmHg,119/95,,mmHg,,WEEK 2,4,2025-07-15,14
STUDY001,VS,STUDY001-SUBJ0003,20,HR,Heart Rate,76,beats/min,76,76.0,beats/min,,WEEK 2,4,2025-07-15,14
STUDY001,VS,STUDY001-SUBJ0003,21,HEIGHT,Height,165.9,cm,165.9,165.9,cm,,WEEK 4,5,2025-07-29,28
STUDY001,VS,STUDY001-SUBJ0003,22,WEIGHT,Weight,104.7,kg,104.7,104.7,kg,,WEEK 4,5,2025-07-29,28
STUDY001,VS,STUDY001-SUBJ0003,23,TEMP,Temperature,36.4,C,36.4,36.4,C,,WEEK 4,5,2025-07-29,28
STUDY001,VS,STUDY001-SUBJ0003,24,BP,Blood Pressure,117/88,mmHg,117/88,,mmHg,,WEEK 4,5,2025-07-29,28
STUDY001,VS,STUDY001-SUBJ0003,25,HR,Heart Rate,81,beats/min,81,81.0,beats/min,,WEEK 4,5,2025-07-29,28
STUDY001,VS,STUDY001-SUBJ0003,26,HEIGHT,Height,165.7,cm,165.7,165.7,cm,,WEEK 8,6,2025-08-26,56
STUDY001,VS,STUDY001-SUBJ0003,27,WEIGHT,Weight,105.2,kg,105.2,105.2,kg,,WEEK 8,6,2025-08-26,56
STUDY001,VS,STUDY001-SUBJ0003,28,TEMP,Temperature,36.0,C,36.0,36.0,C,,WEEK 8,6,2025-08-26,56
STUDY001,VS,STUDY001-SUBJ0003,29,BP,Blood Pressure,116/88,mmHg,116/88,,mmHg,,WEEK 8,6,2025-08-26,56
STUDY001,VS,STUDY001-SUBJ0003,30,HR,Heart Rate,75,beats/min,75,75.0,beats/min,,WEEK 8,6,2025-08-26,56
STUDY001,VS,STUDY001-SUBJ0003,31,HEIGHT,Height,165.8,cm,165.8,165.8,cm,,WEEK 12,7,2025-09-23,84
STUDY001,VS,STUDY001-SUBJ0003,32,WEIGHT,Weight,105.5,kg,105.5,105.5,kg,,WEEK 12,7,2025-09-23,84
STUDY001,VS,STUDY001-SUBJ0003,33,TEMP,Temperature,36.4,C,36.4,36.4,C,,WEEK 12,7,2025-09-23,84
STUDY001,VS,STUDY001-SUBJ0003,34,BP,Blood Pressure,115/92,mmHg,115/92,,mmHg,,WEEK 12,7,2025-09-23,84
STUDY001,VS,STUDY001-SUBJ0003,35,HR,Heart Rate,78,beats/min,78,78.0,beats/min,,WEEK 12,7,2025-09-23,84
STUDY001,VS,STUDY001-SUBJ0003,36,HEIGHT,Height,165.8,cm,165.8,165.8,cm,,WEEK 16,8,2025-10-21,112
STUDY001,VS,STUDY001-SUBJ0003,37,WEIGHT,Weight,104.0,kg,104.0,104.0,kg,,WEEK 16,8,2025-10-21,112
STUDY001,VS,STUDY001-SUBJ0003,38,TEMP,Temperature,36.4,C,36.4,36.4,C,,WEEK 16,8,2025-10-21,112
STUDY001,VS,STUDY001-SUBJ0003,39,BP,Blood Pressure,112/90,mmHg,112/90,,mmHg,,WEEK 16,8,2025-10-21,112
STUDY001,VS,STUDY001-SUBJ0003,40,HR,Heart Rate,77,beats/min,77,77.0,beats/min,,WEEK 16,8,2025-10-21,112
STUDY001,VS,STUDY001-SUBJ0003,41,HEIGHT,Height,166.1,cm,166.1,166.1,cm,,END OF TREATMENT,9,2025-11-18,140
STUDY001,VS,STUDY001-SUBJ0003,42,WEIGHT,Weight,104.6,kg,104.6,104.6,kg,,END OF TREATMENT,9,2025-11-18,140
STUDY001,VS,STUDY001-SUBJ0003,43,TEMP,Temperature,36.2,C,36.2,36.2,C,,END OF TREATMENT,9,2025-11-18,140
STUDY001,VS,STUDY001-SUBJ0003,44,BP,Blood Pressure,114/90,mmHg,114/90,,mmHg,,END OF TREATMENT,9,2025-11-18,140
STUDY001,VS,STUDY001-SUBJ0003,45,HR,Heart Rate,81,beats/min,81,81.0,beats/min,,END OF TREATMENT,9,2025-11-18,140
STUDY001,VS,STUDY001-SUBJ0004,1,HEIGHT,Height,194.7,cm,194.7,194.7,cm,,SCREENING,1,2025-04-24,-14
STUDY001,VS,STUDY001-SUBJ0004,2,WEIGHT,Weight,51.8,kg,51.8,51.8,kg,,SCREENING,1,2025-04-24,-14
STUDY001,VS,STUDY001-SUBJ0004,3,TEMP,Temperature,36.4,C,36.4,36.4,C,,SCREENING,1,2025-04-24,-14
STUDY001,VS,STUDY001-SUBJ0004,4,BP,Blood Pressure,146/85,mmHg,146/85,,mmHg,,SCREENING,1,2025-04-24,-14
STUDY001,VS,STUDY001-SUBJ0004,5,HR,Heart Rate,81,beats/min,81,81.0,beats/min,,SCREENING,1,2025-04-24,-14
STUDY001,VS,STUDY001-SUBJ0004,6,HEIGHT,Height,194.8,cm,194.8,194.8,cm,Y,BASELINE,2,2025-05-08,1
STUDY001,VS,STUDY001-SUBJ0004,7,WEIGHT,Weight,50.9,kg,50.9,50.9,kg,Y,BASELINE,2,2025-05-08,1
STUDY001,VS,STUDY001-SUBJ0004,8,TEMP,Temperature,36.8,C,36.8,36.8,C,Y,BASELINE,2,2025-05-08,1
STUDY001,VS,STUDY001-SUBJ0004,9,BP,Blood Pressure,142/85,mmHg,142/85,,mmHg,Y,BASELINE,2,2025-05-08,1
STUDY001,VS,STUDY001-SUBJ0004,10,HR,Heart Rate,80,beats/min,80,80.0,beats/min,Y,BASELINE,2,2025-05-08,1
STUDY001,VS,STUDY001-SUBJ0004,11,HEIGHT,Height,194.6,cm,194.6,194.6,cm,,WEEK 1,3,2025-05-14,7
STUDY001,VS,STUDY001-SUBJ0004,12,WEIGHT,Weight,51.6,kg,51.6,51.6,kg,,WEEK 1,3,2025-05-14,7
STUDY001,VS,STUDY001-SUBJ0004,13,TEMP,Temperature,36.6,C,36.6,36.6,C,,WEEK 1,3,2025-05-14,7
STUDY001,VS,STUDY001-SUBJ0004,14,BP,Blood Pressure,142/82,mmHg,142/82,,mmHg,,WEEK 1,3,2025-05-14,7
STUDY001,VS,STUDY001-SUBJ0004,15,HR,Heart Rate,78,beats/min,78,78.0,beats/min,,WEEK 1,3,2025-05-14,7
STUDY001,VS,STUDY001-SUBJ0004,16,HEIGHT,Height,194.7,cm,194.7,194.7,cm,,WEEK 2,4,2025-05-21,14
STUDY001,VS,STUDY001-SUBJ0004,17,WEIGHT,Weight,50.4,kg,50.4,50.4,kg,,WEEK 2,4,2025-05-21,14
STUDY001,VS,STUDY001-SUBJ0004,18,TEMP,Temperature,36.7,C,36.7,36.7,C,,WEEK 2,4,2025-05-21,14
STUDY001,VS,STUDY001-SUBJ0004,19,BP,Blood Pressure,142/81,mmHg,142/81,,mmHg,,WEEK 2,4,2025-05-21,14
STUDY001,VS,STUDY001-SUBJ0004,20,HR,Heart Rate,85,beats/min,85,85.0,beats/min,,WEEK 2,4,2025-05-21,14
STUDY001,VS,STUDY001-SUBJ0004,21,HEIGHT,Height,194.9,cm,194.9,194.9,cm,,WEEK 4,5,2025-06-04,28
STUDY001,VS,STUDY001-SUBJ0004,22,WEIGHT,Weight,51.5,kg,51.5,51.5,kg,,WEEK 4,5,2025-06-04,28
STUDY001,VS,STUDY001-SUBJ0004,23,TEMP,Temperature,36.5,C,36.5,36.5,C,,WEEK 4,5,2025-06-04,28
STUDY001,VS,STUDY001-SUBJ0004,24,BP,Blood Pressure,143/87,mmHg,143/87,,mmHg,,WEEK 4,5,2025-06-04,28
STUDY001,VS,STUDY001-SUBJ0004,25,HR,Heart Rate,81,beats/min,81,81.0,beats/min,,WEEK 4,5,2025-06-04,28
STUDY001,VS,STUDY001-SUBJ0004,26,HEIGHT,Height,194.6,cm,194.6,194.6,cm,,WEEK 8,6,2025-07-02,56
STUDY001,VS,STUDY001-SUBJ0004,27,WEIGHT,Weight,52.1,kg,52.1,52.1,kg,,WEEK 8,6,2025-07-02,56
STUDY001,VS,STUDY001-SUBJ0004,28,TEMP,Temperature,36.4,C,36.4,36.4,C,,WEEK 8,6,2025-07-02,56
STUDY001,VS,STUDY001-SUBJ0004,29,BP,Blood Pressure,141/83,mmHg,141/83,,mmHg,,WEEK 8,6,2025-07-02,56
STUDY001,VS,STUDY001-SUBJ0004,30,HR,Heart Rate,82,beats/min,82,82.0,beats/min,,WEEK 8,6,2025-07-02,56
STUDY001,VS,STUDY001-SUBJ0004,31,HEIGHT,Height,194.8,cm,194.8,194.8,cm,,WEEK 12,7,2025-07-30,84
STUDY001,VS,STUDY001-SUBJ0004,32,WEIGHT,Weight,50.6,kg,50.6,50.6,kg,,WEEK 12,7,2025-07-30,84
STUDY001,VS,STUDY001-SUBJ0004,33,TEMP,Temperature,36.9,C,36.9,36.9,C,,WEEK 12,7,2025-07-30,84
STUDY001,VS,STUDY001-SUBJ0004,34,BP,Blood Pressure,145/82,mmHg,145/82,,mmHg,,WEEK 12,7,2025-07-30,84
STUDY001,VS,STUDY001-SUBJ0004,35,HR,Heart Rate,80,beats/min,80,80.0,beats/min,,WEEK 12,7,2025-07-30,84
STUDY001,VS,STUDY001-SUBJ0004,36,HEIGHT,Height,194.5,cm,194.5,194.5,cm,,WEEK 16,8,2025-08-27,112
STUDY001,VS,STUDY001-SUBJ0004,37,WEIGHT,Weight,52.0,kg,52.0,52.0,kg,,WEEK 16,8,2025-08-27,112
STUDY001,VS,STUDY001-SUBJ0004,38,TEMP,Temperature,36.4,C,36.4,36.4,C,,WEEK 16,8,2025-08-27,112
STUDY001,VS,STUDY001-SUBJ0004,39,BP,Blood Pressure,150/84,mmHg,150/84,,mmHg,,WEEK 16,8,2025-08-27,112
STUDY001,VS,STUDY001-SUBJ0004,40,HR,Heart Rate,83,beats/min,83,83.0,beats/min,,WEEK 16,8,2025-08-27,112
STUDY001,VS,STUDY001-SUBJ0004,41,HEIGHT,Height,194.7,cm,194.7,194.7,cm,,END OF TREATMENT,9,2025-09-24,140
STUDY001,VS,STUDY001-SUBJ0004,42,WEIGHT,Weight,51.1,kg,51.1,51.1,kg,,END OF TREATMENT,9,2025-09-24,140
STUDY001,VS,STUDY001-SUBJ0004,43,TEMP,Temperature,36.6,C,36.6,36.6,C,,END OF TREATMENT,9,2025-09-24,140
STUDY001,VS,STUDY001-SUBJ0004,44,BP,Blood Pressure,148/86,mmHg,148/86,,mmHg,,END OF TREATMENT,9,2025-09-24,140
STUDY001,VS,STUDY001-SUBJ0004,45,HR,Heart Rate,79,beats/min,79,79.0,beats/min,,END OF TREATMENT,9,2025-09-24,140
STUDY001,VS,STUDY001-SUBJ0005,1,HEIGHT,Height,177.5,cm,177.5,177.5,cm,,SCREENING,1,2025-05-05,-14
STUDY001,VS,STUDY001-SUBJ0005,2,WEIGHT,Weight,80.2,kg,80.2,80.2,kg,,SCREENING,1,2025-05-05,-14
STUDY001,VS,STUDY001-SUBJ0005,3,TEMP,Temperature,37.0,C,37.0,37.0,C,,SCREENING,1,2025-05-05,-14
STUDY001,VS,STUDY001-SUBJ0005,4,BP,Blood Pressure,128/86,mmHg,128/86,,mmHg,,SCREENING,1,2025-05-05,-14
STUDY001,VS,STUDY001-SUBJ0005,5,HR,Heart Rate,78,beats/min,78,78.0,beats/min,,SCREENING,1,2025-05-05,-14
STUDY001,VS,STUDY001-SUBJ0005,6,HEIGHT,Height,177.4,cm,177.4,177.4,cm,Y,BASELINE,2,2025-05-19,1
STUDY001,VS,STUDY001-SUBJ0005,7,WEIGHT,Weight,80.0,kg,80.0,80.0,kg,Y,BASELINE,2,2025-05-19,1
STUDY001,VS,STUDY001-SUBJ0005,8,TEMP,Temperature,37.0,C,37.0,37.0,C,Y,BASELINE,2,2025-05-19,1
STUDY001,VS,STUDY001-SUBJ0005,9,BP,Blood Pressure,132/88,mmHg,132/88,,mmHg,Y,BASELINE,2,2025-05-19,1
STUDY001,VS,STUDY001-SUBJ0005,10,HR,Heart Rate,76,beats/min,76,76.0,beats/min,Y,BASELINE,2,2025-05-19,1
STUDY001,VS,STUDY001-SUBJ0005,11,HEIGHT,Height,177.4,cm,177.4,177.4,cm,,WEEK 1,3,2025-05-25,7
STUDY001,VS,STUDY001-SUBJ0005,12,WEIGHT,Weight,79.3,kg,79.3,79.3,kg,,WEEK 1,3,2025-05-25,7
STUDY001,VS,STUDY001-SUBJ0005,13,TEMP,Temperature,36.8,C,36.8,36.8,C,,WEEK 1,3,2025-05-25,7
STUDY001,VS,STUDY001-SUBJ0005,14,BP,Blood Pressure,137/91,mmHg,137/91,,mmHg,,WEEK 1,3,2025-05-25,7
STUDY001,VS,STUDY001-SUBJ0005,15,HR,Heart Rate,73,beats/min,73,73.0,beats/min,,WEEK 1,3,2025-05-25,7
STUDY001,VS,STUDY001-SUBJ0005,16,HEIGHT,Height,177.5,cm,177.5,177.5,cm,,WEEK 2,4,2025-06-01,14
STUDY001,VS,STUDY001-SUBJ0005,17,WEIGHT,Weight,79.3,kg,79.3,79.3,kg,,WEEK 2,4,2025-06-01,14
STUDY001,VS,STUDY001-SUBJ0005,18,TEMP,Temperature,36.8,C,36.8,36.8,C,,WEEK 2,4,2025-06-01,14
STUDY001,VS,STUDY001-SUBJ0005,19,BP,Blood Pressure,131/89,mmHg,131/89,,mmHg,,WEEK 2,4,2025-06-01,14
STUDY001,VS,STUDY001-SUBJ0005,20,HR,Heart Rate,77,beats/min,77,77.0,beats/min,,WEEK 2,4,2025-06-01,14
STUDY001,VS,STUDY001-SUBJ0005,21,HEIGHT,Height,177.4,cm,177.4,177.4,cm,,WEEK 4,5,2025-06-15,28
STUDY001,VS,STUDY001-SUBJ0005,22,WEIGHT,Weight,80.0,kg,80.0,80.0,kg,,WEEK 4,5,2025-06-15,28
STUDY001,VS,STUDY001-SUBJ0005,23,TEMP,Temperature,37.2,C,37.2,37.2,C,,WEEK 4,5,2025-06-15,28
STUDY001,VS,STUDY001-SUBJ0005,24,BP,Blood Pressure,136/87,mmHg,136/87,,mmHg,,WEEK 4,5,2025-06-15,28
STUDY001,VS,STUDY001-SUBJ0005,25,HR,Heart Rate,76,beats/min,76,76.0,beats/min,,WEEK 4,5,2025-06-15,28
STUDY001,VS,STUDY001-SUBJ0005,26,HEIGHT,Height,177.6,cm,177.6,177.6,cm,,WEEK 8,6,2025-07-13,56
STUDY001,VS,STUDY001-SUBJ0005,27,WEIGHT,Weight,80.3,kg,80.3,80.3,kg,,WEEK 8,6,2025-07-13,56
STUDY001,VS,STUDY001-SUBJ0005,28,TEMP,Temperature,37.0,C,37.0,37.0,C,,WEEK 8,6,2025-07-13,56
STUDY001,VS,STUDY001-SUBJ0005,29,BP,Blood Pressure,133/81,mmHg,133/81,,mmHg,,WEEK 8,6,2025-07-13,56
STUDY001,VS,STUDY001-SUBJ0005,30,HR,Heart Rate,74,beats/min,74,74.0,beats/min,,WEEK 8,6,2025-07-13,56
STUDY001,VS,STUDY001-SUBJ0005,31,HEIGHT,Height,177.7,cm,177.7,177.7,cm,,WEEK 12,7,2025-08-10,84
STUDY001,VS,STUDY001-SUBJ0005,32,WEIGHT,Weight,79.6,kg,79.6,79.6,kg,,WEEK 12,7,2025-08-10,84
STUDY001,VS,STUDY001-SUBJ0005,33,TEMP,Temperature,36.8,C,36.8,36.8,C,,WEEK 12,7,2025-08-10,84
STUDY001,VS,STUDY001-SUBJ0005,34,BP,Blood Pressure,137/88,mmHg,137/88,,mmHg,,WEEK 12,7,2025-08-10,84
STUDY001,VS,STUDY001-SUBJ0005,35,HR,Heart Rate,76,beats/min,76,76.0,beats/min,,WEEK 12,7,2025-08-10,84
STUDY001,VS,STUDY001-SUBJ0005,36,HEIGHT,Height,177.3,cm,177.3,177.3,cm,,WEEK 16,8,2025-09-07,112
STUDY001,VS,STUDY001-SUBJ0005,37,WEIGHT,Weight,79.6,kg,79.6,79.6,kg,,WEEK 16,8,2025-09-07,112
STUDY001,VS,STUDY001-SUBJ0005,38,TEMP,Temperature,37.0,C,37.0,37.0,C,,WEEK 16,8,2025-09-07,112
STUDY001,VS,STUDY001-SUBJ0005,39,BP,Blood Pressure,132/84,mmHg,132/84,,mmHg,,WEEK 16,8,2025-09-07,112
STUDY001,VS,STUDY001-SUBJ0005,40,HR,Heart Rate,78,beats/min,78,78.0,beats/min,,WEEK 16,8,2025-09-07,112
STUDY001,VS,STUDY001-SUBJ0005,41,HEIGHT,Height,177.3,cm,177.3,177.3,cm,,END OF TREATMENT,9,2025-10-05,140
STUDY001,VS,STUDY001-SUBJ0005,42,WEIGHT,Weight,80.3,kg,80.3,80.3,kg,,END OF TREATMENT,9,2025-10-05,140
STUDY001,VS,STUDY001-SUBJ0005,43,TEMP,Temperature,36.9,C,36.9,36.9,C,,END OF TREATMENT,9,2025-10-05,140
STUDY001,VS,STUDY001-SUBJ0005,44,BP,Blood Pressure,131/85,mmHg,131/85,,mmHg,,END OF TREATMENT,9,2025-10-05,140
STUDY001,VS,STUDY001-SUBJ0005,45,HR,Heart Rate,76,beats/min,76,76.0,beats/min,,END OF TREATMENT,9,2025-10-05,140
STUDY001,VS,STUDY001-SUBJ0006,1,HEIGHT,Height,157.0,cm,157.0,157.0,cm,,SCREENING,1,2025-05-16,-14
STUDY001,VS,STUDY001-SUBJ0006,2,WEIGHT,Weight,74.8,kg,74.8,74.8,kg,,SCREENING,1,2025-05-16,-14
STUDY001,VS,STUDY001-SUBJ0006,3,TEMP,Temperature,36.3,C,36.3,36.3,C,,SCREENING,1,2025-05-16,-14
STUDY001,VS,STUDY001-SUBJ0006,4,BP,Blood Pressure,134/86,mmHg,134/86,,mmHg,,SCREENING,1,2025-05-16,-14
STUDY001,VS,STUDY001-SUBJ0006,5,HR,Heart Rate,82,beats/min,82,82.0,beats/min,,SCREENING,1,2025-05-16,-14
STUDY001,VS,STUDY001-SUBJ0006,6,HEIGHT,Height,157.0,cm,157.0,157.0,cm,Y,BASELINE,2,2025-05-30,1
STUDY001,VS,STUDY001-SUBJ0006,7,WEIGHT,Weight,74.3,kg,74.3,74.3,kg,Y,BASELINE,2,2025-05-30,1
STUDY001,VS,STUDY001-SUBJ0006,8,TEMP,Temperature,36.0,C,36.0,36.0,C,Y,BASELINE,2,2025-05-30,1
STUDY001,VS,STUDY001-SUBJ0006,9,BP,Blood Pressure,136/89,mmHg,136/89,,mmHg,Y,BASELINE,2,2025-05-30,1
STUDY001,VS,STUDY001-SUBJ0006,10,HR,Heart Rate,80,beats/min,80,80.0,beats/min,Y,BASELINE,2,2025-05-30,1
STUDY001,VS,STUDY001-SUBJ0006,11,HEIGHT,Height,156.9,cm,156.9,156.9,cm,,WEEK 1,3,2025-06-05,7
STUDY001,VS,STUDY001-SUBJ0006,12,WEIGHT,Weight,73.9,kg,73.9,73.9,kg,,WEEK 1,3,2025-06-05,7
STUDY001,VS,STUDY001-SUBJ0006,13,TEMP,Temperature,36.0,C,36.0,36.0,C,,WEEK 1,3,2025-06-05,7
STUDY001,VS,STUDY001-SUBJ0006,14,BP,Blood Pressure,132/87,mmHg,132/87,,mmHg,,WEEK 1,3,2025-06-05,7
STUDY001,VS,STUDY001-SUBJ0006,15,HR,Heart Rate,75,beats/min,75,75.0,beats/min,,WEEK 1,3,2025-06-05,7
STUDY001,VS,STUDY001-SUBJ0006,16,HEIGHT,Height,157.0,cm,157.0,157.0,cm,,WEEK 2,4,2025-06-12,14
STUDY001,VS,STUDY001-SUBJ0006,17,WEIGHT,Weight,74.9,kg,74.9,74.9,kg,,WEEK 2,4,2025-06-12,14
STUDY001,VS,STUDY001-SUBJ0006,18,TEMP,Temperature,36.2,C,36.2,36.2,C,,WEEK 2,4,2025-06-12,14
STUDY001,VS,STUDY001-SUBJ0006,19,BP,Blood Pressure,128/92,mmHg,128/92,,mmHg,,WEEK 2,4,2025-06-12,14
STUDY001,VS,STUDY001-SUBJ0006,20,HR,Heart Rate,80,beats/min,80,80.0,beats/min,,WEEK 2,4,2025-06-12,14
STUDY001,VS,STUDY001-SUBJ0006,21,HEIGHT,Height,157.1,cm,157.1,157.1,cm,,WEEK 4,5,2025-06-26,28
STUDY001,VS,STUDY001-SUBJ0006,22,WEIGHT,Weight,74.3,kg,74.3,74.3,kg,,WEEK 4,5,2025-06-26,28
STUDY001,VS,STUDY001-SUBJ0006,23,TEMP,Temperature,36.1,C,36.1,36.1,C,,WEEK 4,5,2025-06-26,28
STUDY001,VS,STUDY001-SUBJ0006,24,BP,Blood Pressure,130/89,mmHg,130/89,,mmHg,,WEEK 4,5,2025-06-26,28
STUDY001,VS,STUDY001-SUBJ0006,25,HR,Heart Rate,74,beats/min,74,74.0,beats/min,,WEEK 4,5,2025-06-26,28
STUDY001,VS,STUDY001-SUBJ0006,26,HEIGHT,Height,157.1,cm,157.1,157.1,cm,,WEEK 8,6,2025-07-24,56
STUDY001,VS,STUDY001-SUBJ0006,27,WEIGHT,Weight,74.1,kg,74.1,74.1,kg,,WEEK 8,6,2025-07-24,56
STUDY001,VS,STUDY001-SUBJ0006,28,TEMP,Temperature,36.2,C,36.2,36.2,C,,WEEK 8,6,2025-07-24,56
STUDY001,VS,STUDY001-SUBJ0006,29,BP,Blood Pressure,135/87,mmHg,135/87,,mmHg,,WEEK 8,6,2025-07-24,56
STUDY001,VS,STUDY001-SUBJ0006,30,HR,Heart Rate,78,beats/min,78,78.0,beats/min,,WEEK 8,6,2025-07-24,56
STUDY001,VS,STUDY001-SUBJ0006,31,HEIGHT,Height,157.0,cm,157.0,157.0,cm,,WEEK 12,7,2025-08-21,84
STUDY001,VS,STUDY001-SUBJ0006,32,WEIGHT,Weight,74.0,kg,74.0,74.0,kg,,WEEK 12,7,2025-08-21,84
STUDY001,VS,STUDY001-SUBJ0006,33,TEMP,Temperature,36.1,C,36.1,36.1,C,,WEEK 12,7,2025-08-21,84
STUDY001,VS,STUDY001-SUBJ0006,34,BP,Blood Pressure,132/90,mmHg,132/90,,mmHg,,WEEK 12,7,2025-08-21,84
STUDY001,VS,STUDY001-SUBJ0006,35,HR,Heart Rate,83,beats/min,83,83.0,beats/min,,WEEK 12,7,2025-08-21,84
STUDY001,VS,STUDY001-SUBJ0006,36,HEIGHT,Height,157.2,cm,157.2,157.2,cm,,WEEK 16,8,2025-09-18,112
STUDY001,VS,STUDY001-SUBJ0006,37,WEIGHT,Weight,74.6,kg,74.6,74.6,kg,,WEEK 16,8,2025-09-18,112
STUDY001,VS,STUDY001-SUBJ0006,38,TEMP,Temperature,36.4,C,36.4,36.4,C,,WEEK 16,8,2025-09-18,112
STUDY001,VS,STUDY001-SUBJ0006,39,BP,Blood Pressure,128/86,mmHg,128/86,,mmHg,,WEEK 16,8,2025-09-18,112
STUDY001,VS,STUDY001-SUBJ0006,40,HR,Heart Rate,82,beats/min,82,82.0,beats/min,,WEEK 16,8,2025-09-18,112
STUDY001,VS,STUDY001-SUBJ0006,41,HEIGHT,Height,157.0,cm,157.0,157.0,cm,,END OF TREATMENT,9,2025-10-16,140
STUDY001,VS,STUDY001-SUBJ0006,42,WEIGHT,Weight,75.2,kg,75.2,75.2,kg,,END OF TREATMENT,9,2025-10-16,140
STUDY001,VS,STUDY001-SUBJ0006,43,TEMP,Temperature,36.1,C,36.1,36.1,C,,END OF TREATMENT,9,2025-10-16,140
STUDY001,VS,STUDY001-SUBJ0006,44,BP,Blood Pressure,135/95,mmHg,135/95,,mmHg,,END OF TREATMENT,9,2025-10-16,140
STUDY001,VS,STUDY001-SUBJ0006,45,HR,Heart Rate,80,beats/min,80,80.0,beats/min,,END OF TREATMENT,9,2025-10-16,140
STUDY001,VS,STUDY001-SUBJ0007,1,HEIGHT,Height,194.2,cm,194.2,194.2,cm,,SCREENING,1,2024-12-05,-14
STUDY001,VS,STUDY001-SUBJ0007,2,WEIGHT,Weight,78.9,kg,78.9,78.9,kg,,SCREENING,1,2024-12-05,-14
STUDY001,VS,STUDY001-SUBJ0007,3,TEMP,Temperature,36.1,C,36.1,36.1,C,,SCREENING,1,2024-12-05,-14
STUDY001,VS,STUDY001-SUBJ0007,4,BP,Blood Pressure,106/89,mmHg,106/89,,mmHg,,SCREENING,1,2024-12-05,-14
STUDY001,VS,STUDY001-SUBJ0007,5,HR,Heart Rate,77,beats/min,77,77.0,beats/min,,SCREENING,1,2024-12-05,-14
STUDY001,VS,STUDY001-SUBJ0007,6,HEIGHT,Height,194.3,cm,194.3,194.3,cm,Y,BASELINE,2,2024-12-19,1
STUDY001,VS,STUDY001-SUBJ0007,7,WEIGHT,Weight,78.4,kg,78.4,78.4,kg,Y,BASELINE,2,2024-12-19,1
STUDY001,VS,STUDY001-SUBJ0007,8,TEMP,Temperature,36.2,C,36.2,36.2,C,Y,BASELINE,2,2024-12-19,1
STUDY001,VS,STUDY001-SUBJ0007,9,BP,Blood Pressure,107/92,mmHg,107/92,,mmHg,Y,BASELINE,2,2024-12-19,1
STUDY001,VS,STUDY001-SUBJ0007,10,HR,Heart Rate,78,beats/min,78,78.0,beats/min,Y,BASELINE,2,2024-12-19,1
STUDY001,VS,STUDY001-SUBJ0007,11,HEIGHT,Height,194.2,cm,194.2,194.2,cm,,WEEK 1,3,2024-12-25,7
STUDY001,VS,STUDY001-SUBJ0007,12,WEIGHT,Weight,79.6,kg,79.6,79.6,kg,,WEEK 1,3,2024-12-25,7
STUDY001,VS,STUDY001-SUBJ0007,13,TEMP,Temperature,35.9,C,35.9,35.9,C,,WEEK 1,3,2024-12-25,7
STUDY001,VS,STUDY001-SUBJ0007,14,BP,Blood Pressure,103/90,mmHg,103/90,,mmHg,,WEEK 1,3,2024-12-25,7
STUDY001,VS,STUDY001-SUBJ0007,15,HR,Heart Rate,83,beats/min,83,83.0,beats/min,,WEEK 1,3,2024-12-25,7
STUDY001,VS,STUDY001-SUBJ0007,16,HEIGHT,Height,194.3,cm,194.3,194.3,cm,,WEEK 2,4,2025-01-01,14
STUDY001,VS,STUDY001-SUBJ0007,17,WEIGHT,Weight,78.4,kg,78.4,78.4,kg,,WEEK 2,4,2025-01-01,14
STUDY001,VS,STUDY001-SUBJ0007,18,TEMP,Temperature,36.3,C,36.3,36.3,C,,WEEK 2,4,2025-01-01,14
STUDY001,VS,STUDY001-SUBJ0007,19,BP,Blood Pressure,101/90,mmHg,101/90,,mmHg,,WEEK 2,4,2025-01-01,14
STUDY001,VS,STUDY001-SUBJ0007,20,HR,Heart Rate,79,beats/min,79,79.0,beats/min,,WEEK 2,4,2025-01-01,14
STUDY001,VS,STUDY001-SUBJ0007,21,HEIGHT,Height,194.3,cm,194.3,194.3,cm,,WEEK 4,5,2025-01-15,28
STUDY001,VS,STUDY001-SUBJ0007,22,WEIGHT,Weight,79.2,kg,79.2,79.2,kg,,WEEK 4,5,2025-01-15,28
STUDY001,VS,STUDY001-SUBJ0007,23,TEMP,Temperature,36.3,C,36.3,36.3,C,,WEEK 4,5,2025-01-15,28
STUDY001,VS,STUDY001-SUBJ0007,24,BP,Blood Pressure,105/86,mmHg,105/86,,mmHg,,WEEK 4,5,2025-01-15,28
STUDY001,VS,STUDY001-SUBJ0007,25,HR,Heart Rate,76,beats/min,76,76.0,beats/min,,WEEK 4,5,2025-01-15,28
STUDY001,VS,STUDY001-SUBJ0007,26,HEIGHT,Height,194.1,cm,194.1,194.1,cm,,WEEK 8,6,2025-02-12,56
STUDY001,VS,STUDY001-SUBJ0007,27,WEIGHT,Weight,78.9,kg,78.9,78.9,kg,,WEEK 8,6,2025-02-12,56
STUDY001,VS,STUDY001-SUBJ0007,28,TEMP,Temperature,36.1,C,36.1,36.1,C,,WEEK 8,6,2025-02-12,56
STUDY001,VS,STUDY001-SUBJ0007,29,BP,Blood Pressure,104/88,mmHg,104/88,,mmHg,,WEEK 8,6,2025-02-12,56
STUDY001,VS,STUDY001-SUBJ0007,30,HR,Heart Rate,78,beats/min,78,78.0,beats/min,,WEEK 8,6,2025-02-12,56
STUDY001,VS,STUDY001-SUBJ0007,31,HEIGHT,Height,194.2,cm,194.2,194.2,cm,,WEEK 12,7,2025-03-12,84
STUDY001,VS,STUDY001-SUBJ0007,32,WEIGHT,Weight,79.6,kg,79.6,79.6,kg,,WEEK 12,7,2025-03-12,84
STUDY001,VS,STUDY001-SUBJ0007,33,TEMP,Temperature,36.3,C,36.3,36.3,C,,WEEK 12,7,2025-03-12,84
STUDY001,VS,STUDY001-SUBJ0007,34,BP,Blood Pressure,98/86,mmHg,98/86,,mmHg,,WEEK 12,7,2025-03-12,84
STUDY001,VS,STUDY001-SUBJ0007,35,HR,Heart Rate,80,beats/min,80,80.0,beats/min,,WEEK 12,7,2025-03-12,84
STUDY001,VS,STUDY001-SUBJ0007,36,HEIGHT,Height,194.3,cm,194.3,194.3,cm,,WEEK 16,8,2025-04-09,112
STUDY001,VS,STUDY001-SUBJ0007,37,WEIGHT,Weight,78.1,kg,78.1,78.1,kg,,WEEK 16,8,2025-04-09,112
STUDY001,VS,STUDY001-SUBJ0007,38,TEMP,Temperature,36.3,C,36.3,36.3,C,,WEEK 16,8,2025-04-09,112
STUDY001,VS,STUDY001-SUBJ0007,39,BP,Blood Pressure,98/83,mmHg,98/83,,mmHg,,WEEK 16,8,2025-04-09,112
STUDY001,VS,STUDY001-SUBJ0007,40,HR,Heart Rate,77,beats/min,77,77.0,beats/min,,WEEK 16,8,2025-04-09,112
STUDY001,VS,STUDY001-SUBJ0007,41,HEIGHT,Height,194.1,cm,194.1,194.1,cm,,END OF TREATMENT,9,2025-05-07,140
STUDY001,VS,STUDY001-SUBJ0007,42,WEIGHT,Weight,78.6,kg,78.6,78.6,kg,,END OF TREATMENT,9,2025-05-07,140
STUDY001,VS,STUDY001-SUBJ0007,43,TEMP,Temperature,36.2,C,36.2,36.2,C,,END OF TREATMENT,9,2025-05-07,140
STUDY001,VS,STUDY001-SUBJ0007,44,BP,Blood Pressure,100/86,mmHg,100/86,,mmHg,,END OF TREATMENT,9,2025-05-07,140
STUDY001,VS,STUDY001-SUBJ0007,45,HR,Heart Rate,82,beats/min,82,82.0,beats/min,,END OF TREATMENT,9,2025-05-07,140
STUDY001,VS,STUDY001-SUBJ0008,1,HEIGHT,Height,154.4,cm,154.4,154.4,cm,,SCREENING,1,2024-10-15,-14
STUDY001,VS,STUDY001-SUBJ0008,2,WEIGHT,Weight,84.0,kg,84.0,84.0,kg,,SCREENING,1,2024-10-15,-14
STUDY001,VS,STUDY001-SUBJ0008,3,TEMP,Temperature,36.4,C,36.4,36.4,C,,SCREENING,1,2024-10-15,-14
STUDY001,VS,STUDY001-SUBJ0008,4,BP,Blood Pressure,113/89,mmHg,113/89,,mmHg,,SCREENING,1,2024-10-15,-14
STUDY001,VS,STUDY001-SUBJ0008,5,HR,Heart Rate,67,beats/min,67,67.0,beats/min,,SCREENING,1,2024-10-15,-14
STUDY001,VS,STUDY001-SUBJ0008,6,HEIGHT,Height,154.3,cm,154.3,154.3,cm,Y,BASELINE,2,2024-10-29,1
STUDY001,VS,STUDY001-SUBJ0008,7,WEIGHT,Weight,82.9,kg,82.9,82.9,kg,Y,BASELINE,2,2024-10-29,1
STUDY001,VS,STUDY001-SUBJ0008,8,TEMP,Temperature,36.6,C,36.6,36.6,C,Y,BASELINE,2,2024-10-29,1
STUDY001,VS,STUDY001-SUBJ0008,9,BP,Blood Pressure,114/84,mmHg,114/84,,mmHg,Y,BASELINE,2,2024-10-29,1
STUDY001,VS,STUDY001-SUBJ0008,10,HR,Heart Rate,66,beats/min,66,66.0,beats/min,Y,BASELINE,2,2024-10-29,1
STUDY001,VS,STUDY001-SUBJ0008,11,HEIGHT,Height,154.6,cm,154.6,154.6,cm,,WEEK 1,3,2024-11-04,7
STUDY001,VS,STUDY001-SUBJ0008,12,WEIGHT,Weight,82.8,kg,82.8,82.8,kg,,WEEK 1,3,2024-11-04,7
STUDY001,VS,STUDY001-SUBJ0008,13,TEMP,Temperature,36.5,C,36.5,36.5,C,,WEEK 1,3,2024-11-04,7
STUDY001,VS,STUDY001-SUBJ0008,14,BP,Blood Pressure,113/84,mmHg,113/84,,mmHg,,WEEK 1,3,2024-11-04,7
STUDY001,VS,STUDY001-SUBJ0008,15,HR,Heart Rate,67,beats/min,67,67.0,beats/min,,WEEK 1,3,2024-11-04,7
STUDY001,VS,STUDY001-SUBJ0008,16,HEIGHT,Height,154.3,cm,154.3,154.3,cm,,WEEK 2,4,2024-11-11,14
STUDY001,VS,STUDY001-SUBJ0008,17,WEIGHT,Weight,83.5,kg,83.5,83.5,kg,,WEEK 2,4,2024-11-11,14
STUDY001,VS,STUDY001-SUBJ0008,18,TEMP,Temperature,36.4,C,36.4,36.4,C,,WEEK 2,4,2024-11-11,14
STUDY001,VS,STUDY001-SUBJ0008,19,BP,Blood Pressure,109/85,mmHg,109/85,,mmHg,,WEEK 2,4,2024-11-11,14
STUDY001,VS,STUDY001-SUBJ0008,20,HR,Heart Rate,63,beats/min,63,63.0,beats/min,,WEEK 2,4,2024-11-11,14
STUDY001,VS,STUDY001-SUBJ0008,21,HEIGHT,Height,154.3,cm,154.3,154.3,cm,,WEEK 4,5,2024-11-25,28
STUDY001,VS,STUDY001-SUBJ0008,22,WEIGHT,Weight,84.0,kg,84.0,84.0,kg,,WEEK 4,5,2024-11-25,28
STUDY001,VS,STUDY001-SUBJ0008,23,TEMP,Temperature,36.6,C,36.6,36.6,C,,WEEK 4,5,2024-11-25,28
STUDY001,VS,STUDY001-SUBJ0008,24,BP,Blood Pressure,113/88,mmHg,113/88,,mmHg,,WEEK 4,5,2024-11-25,28
STUDY001,VS,STUDY001-SUBJ0008,25,HR,Heart Rate,67,beats/min,67,67.0,beats/min,,WEEK 4,5,2024-11-25,28
STUDY001,VS,STUDY001-SUBJ0008,26,HEIGHT,Height,154.4,cm,154.4,154.4,cm,,WEEK 8,6,2024-12-23,56
STUDY001,VS,STUDY001-SUBJ0008,27,WEIGHT,Weight,84.1,kg,84.1,84.1,kg,,WEEK 8,6,2024-12-23,56
STUDY001,VS,STUDY001-SUBJ0008,28,TEMP,Temperature,36.4,C,36.4,36.4,C,,WEEK 8,6,2024-12-23,56
STUDY001,VS,STUDY001-SUBJ0008,29,BP,Blood Pressure,111/86,mmHg,111/86,,mmHg,,WEEK 8,6,2024-12-23,56
STUDY001,VS,STUDY001-SUBJ0008,30,HR,Heart Rate,73,beats/min,73,73.0,beats/min,,WEEK 8,6,2024-12-23,56
STUDY001,VS,STUDY001-SUBJ0008,31,HEIGHT,Height,154.4,cm,154.4,154.4,cm,,WEEK 12,7,2025-01-20,84
STUDY001,VS,STUDY001-SUBJ0008,32,WEIGHT,Weight,83.7,kg,83.7,83.7,kg,,WEEK 12,7,2025-01-20,84
STUDY001,VS,STUDY001-SUBJ0008,33,TEMP,Temperature,36.8,C,36.8,36.8,C,,WEEK 12,7,2025-01-20,84
STUDY001,VS,STUDY001-SUBJ0008,34,BP,Blood Pressure,112/83,mmHg,112/83,,mmHg,,WEEK 12,7,2025-01-20,84
STUDY001,VS,STUDY001-SUBJ0008,35,HR,Heart Rate,65,beats/min,65,65.0,beats/min,,WEEK 12,7,2025-01-20,84
STUDY001,VS,STUDY001-SUBJ0008,36,HEIGHT,Height,154.4,cm,154.4,154.4,cm,,WEEK 16,8,2025-02-17,112
STUDY001,VS,STUDY001-SUBJ0008,37,WEIGHT,Weight,83.2,kg,83.2,83.2,kg,,WEEK 16,8,2025-02-17,112
STUDY001,VS,STUDY001-SUBJ0008,38,TEMP,Temperature,36.3,C,36.3,36.3,C,,WEEK 16,8,2025-02-17,112
STUDY001,VS,STUDY001-SUBJ0008,39,BP,Blood Pressure,106/92,mmHg,106/92,,mmHg,,WEEK 16,8,2025-02-17,112
STUDY001,VS,STUDY001-SUBJ0008,40,HR,Heart Rate,69,beats/min,69,69.0,beats/min,,WEEK 16,8,2025-02-17,112
STUDY001,VS,STUDY001-SUBJ0008,41,HEIGHT,Height,154.6,cm,154.6,154.6,cm,,END OF TREATMENT,9,2025-03-17,140
STUDY001,VS,STUDY001-SUBJ0008,42,WEIGHT,Weight,83.6,kg,83.6,83.6,kg,,END OF TREATMENT,9,2025-03-17,140
STUDY001,VS,STUDY001-SUBJ0008,43,TEMP,Temperature,36.6,C,36.6,36.6,C,,END OF TREATMENT,9,2025-03-17,140
STUDY001,VS,STUDY001-SUBJ0008,44,BP,Blood Pressure,113/90,mmHg,113/90,,mmHg,,END OF TREATMENT,9,2025-03-17,140
STUDY001,VS,STUDY001-SUBJ0008,45,HR,Heart Rate,71,beats/min,71,71.0,beats/min,,END OF TREATMENT,9,2025-03-17,140
STUDY001,VS,STUDY001-SUBJ0009,1,HEIGHT,Height,185.1,cm,185.1,185.1,cm,,SCREENING,1,2025-05-02,-14
STUDY001,VS,STUDY001-SUBJ0009,2,WEIGHT,Weight,53.5,kg,53.5,53.5,kg,,SCREENING,1,2025-05-02,-14
STUDY001,VS,STUDY001-SUBJ0009,3,TEMP,Temperature,36.5,C,36.5,36.5,C,,SCREENING,1,2025-05-02,-14
STUDY001,VS,STUDY001-SUBJ0009,4,BP,Blood Pressure,148/80,mmHg,148/80,,mmHg,,SCREENING,1,2025-05-02,-14
STUDY001,VS,STUDY001-SUBJ0009,5,HR,Heart Rate,77,beats/min,77,77.0,beats/min,,SCREENING,1,2025-05-02,-14
STUDY001,VS,STUDY001-SUBJ0009,6,HEIGHT,Height,184.9,cm,184.9,184.9,cm,Y,BASELINE,2,2025-05-16,1
STUDY001,VS,STUDY001-SUBJ0009,7,WEIGHT,Weight,52.8,kg,52.8,52.8,kg,Y,BASELINE,2,2025-05-16,1
STUDY001,VS,STUDY001-SUBJ0009,8,TEMP,Temperature,36.3,C,36.3,36.3,C,Y,BASELINE,2,2025-05-16,1
STUDY001,VS,STUDY001-SUBJ0009,9,BP,Blood Pressure,144/73,mmHg,144/73,,mmHg,Y,BASELINE,2,2025-05-16,1
STUDY001,VS,STUDY001-SUBJ0009,10,HR,Heart Rate,74,beats/min,74,74.0,beats/min,Y,BASELINE,2,2025-05-16,1
STUDY001,VS,STUDY001-SUBJ0009,11,HEIGHT,Height,185.1,cm,185.1,185.1,cm,,WEEK 1,3,2025-05-22,7
STUDY001,VS,STUDY001-SUBJ0009,12,WEIGHT,Weight,52.9,kg,52.9,52.9,kg,,WEEK 1,3,2025-05-22,7
STUDY001,VS,STUDY001-SUBJ0009,13,TEMP,Temperature,36.3,C,36.3,36.3,C,,WEEK 1,3,2025-05-22,7
STUDY001,VS,STUDY001-SUBJ0009,14,BP,Blood Pressure,148/78,mmHg,148/78,,mmHg,,WEEK 1,3,2025-05-22,7
STUDY001,VS,STUDY001-SUBJ0009,15,HR,Heart Rate,76,beats/min,76,76.0,beats/min,,WEEK 1,3,2025-05-22,7
STUDY001,VS,STUDY001-SUBJ0009,16,HEIGHT,Height,185.0,cm,185.0,185.0,cm,,WEEK 2,4,2025-05-29,14
STUDY001,VS,STUDY001-SUBJ0009,17,WEIGHT,Weight,52.3,kg,52.3,52.3,kg,,WEEK 2,4,2025-05-29,14
STUDY001,VS,STUDY001-SUBJ0009,18,TEMP,Temperature,36.3,C,36.3,36.3,C,,WEEK 2,4,2025-05-29,14
STUDY001,VS,STUDY001-SUBJ0009,19,BP,Blood Pressure,149/72,mmHg,149/72,,mmHg,,WEEK 2,4,2025-05-29,14
STUDY001,VS,STUDY001-SUBJ0009,20,HR,Heart Rate,74,beats/min,74,74.0,beats/min,,WEEK 2,4,2025-05-29,14
STUDY001,VS,STUDY001-SUBJ0009,21,HEIGHT,Height,185.2,cm,185.2,185.2,cm,,WEEK 4,5,2025-06-12,28
STUDY001,VS,STUDY001-SUBJ0009,22,WEIGHT,Weight,53.5,kg,53.5,53.5,kg,,WEEK 4,5,2025-06-12,28
STUDY001,VS,STUDY001-SUBJ0009,23,TEMP,Temperature,36.1,C,36.1,36.1,C,,WEEK 4,5,2025-06-12,28
STUDY001,VS,STUDY001-SUBJ0009,24,BP,Blood Pressure,143/72,mmHg,143/72,,mmHg,,WEEK 4,5,2025-06-12,28
STUDY001,VS,STUDY001-SUBJ0009,25,HR,Heart Rate,81,beats/min,81,81.0,beats/min,,WEEK 4,5,2025-06-12,28
STUDY001,VS,STUDY001-SUBJ0009,26,HEIGHT,Height,185.0,cm,185.0,185.0,cm,,WEEK 8,6,2025-07-10,56
STUDY001,VS,STUDY001-SUBJ0009,27,WEIGHT,Weight,52.8,kg,52.8,52.8,kg,,WEEK 8,6,2025-07-10,56
STUDY001,VS,STUDY001-SUBJ0009,28,TEMP,Temperature,36.1,C,36.1,36.1,C,,WEEK 8,6,2025-07-10,56
STUDY001,VS,STUDY001-SUBJ0009,29,BP,Blood Pressure,145/80,mmHg,145/80,,mmHg,,WEEK 8,6,2025-07-10,56
STUDY001,VS,STUDY001-SUBJ0009,30,HR,Heart Rate,79,beats/min,79,79.0,beats/min,,WEEK 8,6,2025-07-10,56
STUDY001,VS,STUDY001-SUBJ0009,31,HEIGHT,Height,185.0,cm,185.0,185.0,cm,,WEEK 12,7,2025-08-07,84
STUDY001,VS,STUDY001-SUBJ0009,32,WEIGHT,Weight,53.8,kg,53.8,53.8,kg,,WEEK 12,7,2025-08-07,84
STUDY001,VS,STUDY001-SUBJ0009,33,TEMP,Temperature,36.1,C,36.1,36.1,C,,WEEK 12,7,2025-08-07,84
STUDY001,VS,STUDY001-SUBJ0009,34,BP,Blood Pressure,144/76,mmHg,144/76,,mmHg,,WEEK 12,7,2025-08-07,84
STUDY001,VS,STUDY001-SUBJ0009,35,HR,Heart Rate,73,beats/min,73,73.0,beats/min,,WEEK 12,7,2025-08-07,84
STUDY001,VS,STUDY001-SUBJ0009,36,HEIGHT,Height,185.0,cm,185.0,185.0,cm,,WEEK 16,8,2025-09-04,112
STUDY001,VS,STUDY001-SUBJ0009,37,WEIGHT,Weight,54.2,kg,54.2,54.2,kg,,WEEK 16,8,2025-09-04,112
STUDY001,VS,STUDY001-SUBJ0009,38,TEMP,Temperature,36.0,C,36.0,36.0,C,,WEEK 16,8,2025-09-04,112
STUDY001,VS,STUDY001-SUBJ0009,39,BP,Blood Pressure,142/78,mmHg,142/78,,mmHg,,WEEK 16,8,2025-09-04,112
STUDY001,VS,STUDY001-SUBJ0009,40,HR,Heart Rate,74,beats/min,74,74.0,beats/min,,WEEK 16,8,2025-09-04,112
STUDY001,VS,STUDY001-SUBJ0009,41,HEIGHT,Height,185.2,cm,185.2,185.2,cm,,END OF TREATMENT,9,2025-10-02,140
STUDY001,VS,STUDY001-SUBJ0009,42,WEIGHT,Weight,53.5,kg,53.5,53.5,kg,,END OF TREATMENT,9,2025-10-02,140
STUDY001,VS,STUDY001-SUBJ0009,43,TEMP,Temperature,36.2,C,36.2,36.2,C,,END OF TREATMENT,9,2025-10-02,140
STUDY001,VS,STUDY001-SUBJ0009,44,BP,Blood Pressure,143/79,mmHg,143/79,,mmHg,,END OF TREATMENT,9,2025-10-02,140
STUDY001,VS,STUDY001-SUBJ0009,45,HR,Heart Rate,79,beats/min,79,79.0,beats/min,,END OF TREATMENT,9,2025-10-02,140
STUDY001,VS,STUDY001-SUBJ0010,1,HEIGHT,Height,187.8,cm,187.8,187.8,cm,,SCREENING,1,2024-11-22,-14
STUDY001,VS,STUDY001-SUBJ0010,2,WEIGHT,Weight,98.0,kg,98.0,98.0,kg,,SCREENING,1,2024-11-22,-14
STUDY001,VS,STUDY001-SUBJ0010,3,TEMP,Temperature,36.9,C,36.9,36.9,C,,SCREENING,1,2024-11-22,-14
STUDY001,VS,STUDY001-SUBJ0010,4,BP,Blood Pressure,124/80,mmHg,124/80,,mmHg,,SCREENING,1,2024-11-22,-14
STUDY001,VS,STUDY001-SUBJ0010,5,HR,Heart Rate,74,beats/min,74,74.0,beats/min,,SCREENING,1,2024-11-22,-14
STUDY001,VS,STUDY001-SUBJ0010,6,HEIGHT,Height,187.6,cm,187.6,187.6,cm,Y,BASELINE,2,2024-12-06,1
STUDY001,VS,STUDY001-SUBJ0010,7,WEIGHT,Weight,98.9,kg,98.9,98.9,kg,Y,BASELINE,2,2024-12-06,1
STUDY001,VS,STUDY001-SUBJ0010,8,TEMP,Temperature,37.2,C,37.2,37.2,C,Y,BASELINE,2,2024-12-06,1
STUDY001,VS,STUDY001-SUBJ0010,9,BP,Blood Pressure,131/77,mmHg,131/77,,mmHg,Y,BASELINE,2,2024-12-06,1
STUDY001,VS,STUDY001-SUBJ0010,10,HR,Heart Rate,67,beats/min,67,67.0,beats/min,Y,BASELINE,2,2024-12-06,1
STUDY001,VS,STUDY001-SUBJ0010,11,HEIGHT,Height,187.7,cm,187.7,187.7,cm,,WEEK 1,3,2024-12-12,7
STUDY001,VS,STUDY001-SUBJ0010,12,WEIGHT,Weight,98.4,kg,98.4,98.4,kg,,WEEK 1,3,2024-12-12,7
STUDY001,VS,STUDY001-SUBJ0010,13,TEMP,Temperature,36.9,C,36.9,36.9,C,,WEEK 1,3,2024-12-12,7
STUDY001,VS,STUDY001-SUBJ0010,14,BP,Blood Pressure,131/81,mmHg,131/81,,mmHg,,WEEK 1,3,2024-12-12,7
STUDY001,VS,STUDY001-SUBJ0010,15,HR,Heart Rate,71,beats/min,71,71.0,beats/min,,WEEK 1,3,2024-12-12,7
STUDY001,VS,STUDY001-SUBJ0010,16,HEIGHT,Height,187.7,cm,187.7,187.7,cm,,WEEK 2,4,2024-12-19,14
STUDY001,VS,STUDY001-SUBJ0010,17,WEIGHT,Weight,97.5,kg,97.5,97.5,kg,,WEEK 2,4,2024-12-19,14
STUDY001,VS,STUDY001-SUBJ0010,18,TEMP,Temperature,37.0,C,37.0,37.0,C,,WEEK 2,4,2024-12-19,14
STUDY001,VS,STUDY001-SUBJ0010,19,BP,Blood Pressure,128/75,mmHg,128/75,,mmHg,,WEEK 2,4,2024-12-19,14
STUDY001,VS,STUDY001-SUBJ0010,20,HR,Heart Rate,70,beats/min,70,70.0,beats/min,,WEEK 2,4,2024-12-19,14
STUDY001,VS,STUDY001-SUBJ0010,21,HEIGHT,Height,187.9,cm,187.9,187.9,cm,,WEEK 4,5,2025-01-02,28
STUDY001,VS,STUDY001-SUBJ0010,22,WEIGHT,Weight,98.8,kg,98.8,98.8,kg,,WEEK 4,5,2025-01-02,28
STUDY001,VS,STUDY001-SUBJ0010,23,TEMP,Temperature,37.1,C,37.1,37.1,C,,WEEK 4,5,2025-01-02,28
STUDY001,VS,STUDY001-SUBJ0010,24,BP,Blood Pressure,127/83,mmHg,127/83,,mmHg,,WEEK 4,5,2025-01-02,28
STUDY001,VS,STUDY001-SUBJ0010,25,HR,Heart Rate,74,beats/min,74,74.0,beats/min,,WEEK 4,5,2025-01-02,28
STUDY001,VS,STUDY001-SUBJ0010,26,HEIGHT,Height,187.9,cm,187.9,187.9,cm,,WEEK 8,6,2025-01-30,56
STUDY001,VS,STUDY001-SUBJ0010,27,WEIGHT,Weight,97.9,kg,97.9,97.9,kg,,WEEK 8,6,2025-01-30,56
STUDY001,VS,STUDY001-SUBJ0010,28,TEMP,Temperature,36.8,C,36.8,36.8,C,,WEEK 8,6,2025-01-30,56
STUDY001,VS,STUDY001-SUBJ0010,29,BP,Blood Pressure,129/79,mmHg,129/79,,mmHg,,WEEK 8,6,2025-01-30,56
STUDY001,VS,STUDY001-SUBJ0010,30,HR,Heart Rate,69,beats/min,69,69.0,beats/min,,WEEK 8,6,2025-01-30,56
STUDY001,VS,STUDY001-SUBJ0010,31,HEIGHT,Height,187.6,cm,187.6,187.6,cm,,WEEK 12,7,2025-02-27,84
STUDY001,VS,STUDY001-SUBJ0010,32,WEIGHT,Weight,97.5,kg,97.5,97.5,kg,,WEEK 12,7,2025-02-27,84
STUDY001,VS,STUDY001-SUBJ0010,33,TEMP,Temperature,36.8,C,36.8,36.8,C,,WEEK 12,7,2025-02-27,84
STUDY001,VS,STUDY001-SUBJ0010,34,BP,Blood Pressure,127/76,mmHg,127/76,,mmHg,,WEEK 12,7,2025-02-27,84
STUDY001,VS,STUDY001-SUBJ0010,35,HR,Heart Rate,66,beats/min,66,66.0,beats/min,,WEEK 12,7,2025-02-27,84
STUDY001,VS,STUDY001-SUBJ0010,36,HEIGHT,Height,187.8,cm,187.8,187.8,cm,,WEEK 16,8,2025-03-27,112
STUDY001,VS,STUDY001-SUBJ0010,37,WEIGHT,Weight,99.3,kg,99.3,99.3,kg,,WEEK 16,8,2025-03-27,112
STUDY001,VS,STUDY001-SUBJ0010,38,TEMP,Temperature,36.7,C,36.7,36.7,C,,WEEK 16,8,2025-03-27,112
STUDY001,VS,STUDY001-SUBJ0010,39,BP,Blood Pressure,123/81,mmHg,123/81,,mmHg,,WEEK 16,8,2025-03-27,112
STUDY001,VS,STUDY001-SUBJ0010,40,HR,Heart Rate,74,beats/min,74,74.0,beats/min,,WEEK 16,8,2025-03-27,112
STUDY001,VS,STUDY001-SUBJ0010,41,HEIGHT,Height,187.9,cm,187.9,187.9,cm,,END OF TREATMENT,9,2025-04-24,140
STUDY001,VS,STUDY001-SUBJ0010,42,WEIGHT,Weight,98.4,kg,98.4,98.4,kg,,END OF TREATMENT,9,2025-04-24,140
STUDY001,VS,STUDY001-SUBJ0010,43,TEMP,Temperature,37.0,C,37.0,37.0,C,,END OF TREATMENT,9,2025-04-24,140
STUDY001,VS,STUDY001-SUBJ0010,44,BP,Blood Pressure,130/78,mmHg,130/78,,mmHg,,END OF TREATMENT,9,2025-04-24,140
STUDY001,VS,STUDY001-SUBJ0010,45,HR,Heart Rate,66,beats/min,66,66.0,beats/min,,END OF TREATMENT,9,2025-04-24,140
