STUDYID,DOMAIN,USUBJID,SUBJID,RFSTDTC,RFENDTC,RFXSTDTC,RFXENDTC,RFICDTC,RFPENDTC,DTHDTC,DTHFL,SITEID,AGE,AGEU,SEX,RACE,ETHNIC,ARMCD,ARM,ACTARMCD,ACTARM,COUNTRY,DMDTC,DMDY
STUDY001,DM,STUDY001-SUBJ0001,SUBJ0001,2025-01-18,2025-07-28,2024-11-29,2025-08-10,2025-05-23,2025-07-28,,,12,39,YEARS,F,WHITE,NOT HISPANIC OR LATINO,ARM1,Treatment 2,ARM1,Treatment 2,AO,2024-08-28,3
STUDY001,DM,STUDY001-SUBJ0002,SUBJ0002,2024-08-29,2025-07-31,2025-03-15,2025-07-24,2024-12-07,2025-07-31,,,49,79,YEARS,M,WHITE,NOT HISPANIC OR LATINO,ARM2,Treatment 1,ARM2,Treatment 1,BF,2025-03-13,4
STUDY001,DM,STUDY001-SUBJ0003,SUBJ0003,2025-03-14,2025-08-20,2024-12-20,2025-07-30,2024-08-27,2025-08-20,,,38,43,YEARS,F,ASIAN,HISPANIC OR LATINO,ARM3,Treatment 2,ARM3,Treatment 2,AL,2025-06-26,28
STUDY001,DM,STUDY001-SUBJ0004,SUBJ0004,2024-08-27,2025-07-28,2025-03-06,2025-07-28,2025-07-10,2025-07-28,,,3,33,YEARS,F,AMERICAN INDIAN OR ALASKA NATIVE,NOT HISPANIC OR LATINO,ARM1,Treatment 2,ARM1,Treatment 2,NP,2024-09-20,6
STUDY001,DM,STUDY001-SUBJ0005,SUBJ0005,2025-04-22,2025-08-11,2024-10-15,2025-08-18,2025-01-20,2025-08-11,,,14,27,YEARS,M,BLACK OR AFRICAN AMERICAN,HISPANIC OR LATINO,ARM2,Treatment 1,ARM2,Treatment 1,NI,2025-05-16,27
STUDY001,DM,STUDY001-SUBJ0006,SUBJ0006,2024-08-24,2025-08-19,2024-12-10,2025-07-25,2024-10-26,2025-08-19,,,11,72,YEARS,M,ASIAN,HISPANIC OR LATINO,ARM3,Treatment 1,ARM3,Treatment 1,BT,2024-09-29,10
STUDY001,DM,STUDY001-SUBJ0007,SUBJ0007,2025-02-10,2025-08-21,2024-09-11,2025-08-15,2025-05-23,2025-08-21,,,13,54,YEARS,M,BLACK OR AFRICAN AMERICAN,NOT HISPANIC OR LATINO,ARM1,Treatment 3,ARM1,Treatment 3,LT,2024-12-28,9
STUDY001,DM,STUDY001-SUBJ0008,SUBJ0008,2024-12-31,2025-08-15,2025-04-01,2025-07-24,2025-07-12,2025-08-15,,,44,37,YEARS,F,AMERICAN INDIAN OR ALASKA NATIVE,HISPANIC OR LATINO,ARM2,Treatment 2,ARM2,Treatment 2,SZ,2025-01-14,16
STUDY001,DM,STUDY001-SUBJ0009,SUBJ0009,2024-10-25,2025-08-14,2025-02-13,2025-08-10,2024-12-29,2025-08-14,,,14,76,YEARS,M,ASIAN,NOT HISPANIC OR LATINO,ARM3,Treatment 3,ARM3,Treatment 3,CU,2024-11-23,21
STUDY001,DM,STUDY001-SUBJ0010,SUBJ0010,2024-11-30,2025-08-10,2025-06-27,2025-07-24,2025-01-03,2025-08-10,,,1,55,YEARS,F,AMERICAN INDIAN OR ALASKA NATIVE,NOT HISPANIC OR LATINO,ARM1,Treatment 3,ARM1,Treatment 3,KG,2024-09-04,20
